"trial_type","trial_index","time_elapsed","internal_node_id","ParticipantID","firstStory","scramStory","rt","url","stimulus","button_pressed","key_press","correctRESP","correct","designation","success","letterStim","letterType","ONSET","TIMEOUT","CONDITION","Participant","ONSET_ACTUAL","RT","RESP","ACC","STORY","responses","response","type","surveyQuestion","QRESP"
"pavlovia","0","11","0.0-0.0","01d92d17ed0ea9d99d2bac6381808c7ee69318be66dd3daf29c6bf4568786f8d","swim","swim","","","","","","","","","","","","","","","","","","","","","","","","",""
"external-html","1","483921","0.0-1.0","01d92d17ed0ea9d99d2bac6381808c7ee69318be66dd3daf29c6bf4568786f8d","swim","swim","483662","consent/consent_updated.html","","","","","","","","","","","","","","","","","","","","","","",""
"html-button-response","2","866822","0.0-2.0-0.0","01d92d17ed0ea9d99d2bac6381808c7ee69318be66dd3daf29c6bf4568786f8d","swim","swim","382899","","<p>Before we begin the main task, you will complete a short volume calibration and headphone check.</p><p>Please make sure you are in a quiet listening environment, that you are wearing headphones, and that your computer's volume is turned on.<p></p>","0","","","","","","","","","","","","","","","","","","","","",""
"html-button-response","3","869334","0.0-2.0-1.0","01d92d17ed0ea9d99d2bac6381808c7ee69318be66dd3daf29c6bf4568786f8d","swim","swim","2260","","<p>The volume calibration will be first.</p><p>You will hear a thirty-second noise. Please adjust your computer's volume so that this noise is being presented at a comfortable level.<p></p>","0","","","","","","","","","","","","","","","","","","","","",""
"audio-button-response","4","872614","0.0-2.0-2.0","01d92d17ed0ea9d99d2bac6381808c7ee69318be66dd3daf29c6bf4568786f8d","swim","swim","3027","","audio/volumetest.mp3","0","","","","","","","","","","","","","","","","","","","","",""
"html-keyboard-response","5","1001832","0.0-3.0-0.0","01d92d17ed0ea9d99d2bac6381808c7ee69318be66dd3daf29c6bf4568786f8d","swim","swim","129218","","<p>You will now complete a short headphone check.</p><p>On each trial, you will hear three tones. One of these tones will be quieter than the others. Your task is to identify whether the quiet tone occurred first, second, or third.</p><p>There are six trials in total.<p></p><p></p>(Press SPACEBAR to begin)","","32","","","","","","","","","","","","","","","","","","","",""
"html-keyboard-response","6","1002585","0.0-3.0-1.0-0.0","01d92d17ed0ea9d99d2bac6381808c7ee69318be66dd3daf29c6bf4568786f8d","swim","swim","null","","<div style=""font-size:60px;"">+</div>","","null","","","","","","","","","","","","","","","","","","","",""
"audio-button-response","7","1007204","0.0-3.0-1.0-1.0","01d92d17ed0ea9d99d2bac6381808c7ee69318be66dd3daf29c6bf4568786f8d","swim","swim","4617","","audio/t2_2.mp3","1","","1","1","headphone-test","","","","","","","","","","","","","","","","",""
"html-keyboard-response","8","1007706","0.0-3.0-1.0-2.0","01d92d17ed0ea9d99d2bac6381808c7ee69318be66dd3daf29c6bf4568786f8d","swim","swim","null","","<p>Correct</p>","","null","","","","","","","","","","","","","","","","","","","",""
"html-keyboard-response","9","1008207","0.0-3.0-1.0-0.1","01d92d17ed0ea9d99d2bac6381808c7ee69318be66dd3daf29c6bf4568786f8d","swim","swim","null","","<div style=""font-size:60px;"">+</div>","","null","","","","","","","","","","","","","","","","","","","",""
"audio-button-response","10","1014075","0.0-3.0-1.0-1.1","01d92d17ed0ea9d99d2bac6381808c7ee69318be66dd3daf29c6bf4568786f8d","swim","swim","5868","","audio/t3_1.mp3","2","","2","1","headphone-test","","","","","","","","","","","","","","","","",""
"html-keyboard-response","11","1014577","0.0-3.0-1.0-2.1","01d92d17ed0ea9d99d2bac6381808c7ee69318be66dd3daf29c6bf4568786f8d","swim","swim","null","","<p>Correct</p>","","null","","","","","","","","","","","","","","","","","","","",""
"html-keyboard-response","12","1015078","0.0-3.0-1.0-0.2","01d92d17ed0ea9d99d2bac6381808c7ee69318be66dd3daf29c6bf4568786f8d","swim","swim","null","","<div style=""font-size:60px;"">+</div>","","null","","","","","","","","","","","","","","","","","","","",""
"audio-button-response","13","1019947","0.0-3.0-1.0-1.2","01d92d17ed0ea9d99d2bac6381808c7ee69318be66dd3daf29c6bf4568786f8d","swim","swim","4868","","audio/t1_2.mp3","0","","0","1","headphone-test","","","","","","","","","","","","","","","","",""
"html-keyboard-response","14","1020449","0.0-3.0-1.0-2.2","01d92d17ed0ea9d99d2bac6381808c7ee69318be66dd3daf29c6bf4568786f8d","swim","swim","null","","<p>Correct</p>","","null","","","","","","","","","","","","","","","","","","","",""
"html-keyboard-response","15","1020950","0.0-3.0-1.0-0.3","01d92d17ed0ea9d99d2bac6381808c7ee69318be66dd3daf29c6bf4568786f8d","swim","swim","null","","<div style=""font-size:60px;"">+</div>","","null","","","","","","","","","","","","","","","","","","","",""
"audio-button-response","16","1025972","0.0-3.0-1.0-1.3","01d92d17ed0ea9d99d2bac6381808c7ee69318be66dd3daf29c6bf4568786f8d","swim","swim","5020","","audio/t1_1.mp3","0","","0","1","headphone-test","","","","","","","","","","","","","","","","",""
"html-keyboard-response","17","1026474","0.0-3.0-1.0-2.3","01d92d17ed0ea9d99d2bac6381808c7ee69318be66dd3daf29c6bf4568786f8d","swim","swim","null","","<p>Correct</p>","","null","","","","","","","","","","","","","","","","","","","",""
"html-keyboard-response","18","1026976","0.0-3.0-1.0-0.4","01d92d17ed0ea9d99d2bac6381808c7ee69318be66dd3daf29c6bf4568786f8d","swim","swim","null","","<div style=""font-size:60px;"">+</div>","","null","","","","","","","","","","","","","","","","","","","",""
"audio-button-response","19","1031524","0.0-3.0-1.0-1.4","01d92d17ed0ea9d99d2bac6381808c7ee69318be66dd3daf29c6bf4568786f8d","swim","swim","4546","","audio/t3_2.mp3","2","","2","1","headphone-test","","","","","","","","","","","","","","","","",""
"html-keyboard-response","20","1032025","0.0-3.0-1.0-2.4","01d92d17ed0ea9d99d2bac6381808c7ee69318be66dd3daf29c6bf4568786f8d","swim","swim","null","","<p>Correct</p>","","null","","","","","","","","","","","","","","","","","","","",""
"html-keyboard-response","21","1032526","0.0-3.0-1.0-0.5","01d92d17ed0ea9d99d2bac6381808c7ee69318be66dd3daf29c6bf4568786f8d","swim","swim","null","","<div style=""font-size:60px;"">+</div>","","null","","","","","","","","","","","","","","","","","","","",""
"audio-button-response","22","1037308","0.0-3.0-1.0-1.5","01d92d17ed0ea9d99d2bac6381808c7ee69318be66dd3daf29c6bf4568786f8d","swim","swim","4780","","audio/t2_1.mp3","1","","1","1","headphone-test","","","","","","","","","","","","","","","","",""
"html-keyboard-response","23","1037810","0.0-3.0-1.0-2.5","01d92d17ed0ea9d99d2bac6381808c7ee69318be66dd3daf29c6bf4568786f8d","swim","swim","null","","<p>Correct</p>","","null","","","","","","","","","","","","","","","","","","","",""
"fullscreen","24","1124948","0.0-4.0","01d92d17ed0ea9d99d2bac6381808c7ee69318be66dd3daf29c6bf4568786f8d","swim","swim","","","","","","","","","true","","","","","","","","","","","","","","","",""
"html-button-response","25","1131003","0.0-5.0-0.0","01d92d17ed0ea9d99d2bac6381808c7ee69318be66dd3daf29c6bf4568786f8d","swim","swim","6053","","<p>There are two blocks to this experiment.</p><p>In each block, you will hear a ~13.5 minute story. One of the stories will be scrambled. Please listen carefully to both stories and understand them as best you can.</p><p>After each story, you will be asked some questions to assess your comprehension.</p>","0","","","","","","","","","","","","","","","","","","","","",""
"html-button-response","26","1147019","0.0-5.0-1.0","01d92d17ed0ea9d99d2bac6381808c7ee69318be66dd3daf29c6bf4568786f8d","swim","swim","16015","","<p>During each story, there will be an additional task.</p><p>A letter will occasionally appear on the screen.</br>Your job is to - as quickly as you can - decide whether the letter is lowercase or uppercase and press one of two keys on the keyboard:</p><p>If the letter is <b>lowercase</b>, press key &lt;<b>x</b>&gt;.</p><p>If the letter is <b>uppercase</b>, press key &lt;<b>m</b>&gt;.</p>","0","","","","","","","","","","","","","","","","","","","","",""
"html-keyboard-response","27","1158145","0.0-5.0-2.0","01d92d17ed0ea9d99d2bac6381808c7ee69318be66dd3daf29c6bf4568786f8d","swim","swim","11126","","<p>Because we want your responses to be as quick as possible, please keep your index fingers over the keys while listening.</p><p>Each block lasts about 20 minutes.</p><p><b>Press &lt;x&gt; or &lt;m&gt; to start the first block!</b></p>","","88","","","","","","","","","","","","","","","","","","","",""
"html-keyboard-response","28","1158646","0.0-7.0-0.0-0.0","01d92d17ed0ea9d99d2bac6381808c7ee69318be66dd3daf29c6bf4568786f8d","swim","swim","null","","<div style=""font-size:60px;"" tabindex=""0"">+</div>","","null","","","","","","","","","","","","","","","","","","","",""
"dual-task","null","null","null","","swim","swim","1321.2700000004843","","a","null","88","88","1","swim-dual-task","","a","lowercase","12000","0","2","01d92d17ed0ea9d99d2bac6381808c7ee69318be66dd3daf29c6bf4568786f8d","11999.995000000112","1321.2700000004843","88","1","swim","","","","",""
"dual-task","null","null","null","","swim","swim","546.3349999999627","","d","null","88","88","1","swim-dual-task","","d","lowercase","24000","0","2","01d92d17ed0ea9d99d2bac6381808c7ee69318be66dd3daf29c6bf4568786f8d","24001.200000000186","546.3349999999627","88","1","swim","","","","",""
"dual-task","null","null","null","","swim","swim","414.6049999999814","","b","null","88","88","1","swim-dual-task","","b","lowercase","34000","0","2","01d92d17ed0ea9d99d2bac6381808c7ee69318be66dd3daf29c6bf4568786f8d","34000.36499999976","414.6049999999814","88","1","swim","","","","",""
"dual-task","null","null","null","","swim","swim","606.0150000001304","","E","null","77","77","1","swim-dual-task","","E","uppercase","42000","0","2","01d92d17ed0ea9d99d2bac6381808c7ee69318be66dd3daf29c6bf4568786f8d","42000.05000000005","606.0150000001304","77","1","swim","","","","",""
"dual-task","null","null","null","","swim","swim","621.1299999998882","","D","null","77","77","1","swim-dual-task","","D","uppercase","50000","0","2","01d92d17ed0ea9d99d2bac6381808c7ee69318be66dd3daf29c6bf4568786f8d","50000.55999999982","621.1299999998882","77","1","swim","","","","",""
"dual-task","null","null","null","","swim","swim","479.3900000001304","","T","null","77","77","1","swim-dual-task","","T","uppercase","58000","0","2","01d92d17ed0ea9d99d2bac6381808c7ee69318be66dd3daf29c6bf4568786f8d","58000.779999999795","479.3900000001304","77","1","swim","","","","",""
"dual-task","null","null","null","","swim","swim","533.6599999994505","","E","null","77","77","1","swim-dual-task","","E","uppercase","68000","0","2","01d92d17ed0ea9d99d2bac6381808c7ee69318be66dd3daf29c6bf4568786f8d","68000.57000000007","533.6599999994505","77","1","swim","","","","",""
"dual-task","null","null","null","","swim","swim","480.55500000016764","","B","null","77","77","1","swim-dual-task","","B","uppercase","78000","0","2","01d92d17ed0ea9d99d2bac6381808c7ee69318be66dd3daf29c6bf4568786f8d","78000.47499999986","480.55500000016764","77","1","swim","","","","",""
"dual-task","null","null","null","","swim","swim","404.52500000037253","","h","null","88","88","1","swim-dual-task","","h","lowercase","86000","0","2","01d92d17ed0ea9d99d2bac6381808c7ee69318be66dd3daf29c6bf4568786f8d","86000.89500000002","404.52500000037253","88","1","swim","","","","",""
"dual-task","null","null","null","","swim","swim","486.9800000002142","","e","null","88","88","1","swim-dual-task","","e","lowercase","98000","0","2","01d92d17ed0ea9d99d2bac6381808c7ee69318be66dd3daf29c6bf4568786f8d","97999.56000000006","486.9800000002142","88","1","swim","","","","",""
"dual-task","null","null","null","","swim","swim","460.25","","q","null","88","88","1","swim-dual-task","","q","lowercase","110000","0","2","01d92d17ed0ea9d99d2bac6381808c7ee69318be66dd3daf29c6bf4568786f8d","109999.96999999974","460.25","88","1","swim","","","","",""
"dual-task","null","null","null","","swim","swim","549.5550000001676","","t","null","88","88","1","swim-dual-task","","t","lowercase","118000","0","2","01d92d17ed0ea9d99d2bac6381808c7ee69318be66dd3daf29c6bf4568786f8d","118000.67999999993","549.5550000001676","88","1","swim","","","","",""
"dual-task","null","null","null","","swim","swim","355.58999999961816","","B","null","77","77","1","swim-dual-task","","B","uppercase","132000","0","2","01d92d17ed0ea9d99d2bac6381808c7ee69318be66dd3daf29c6bf4568786f8d","132000.41000000015","355.58999999961816","77","1","swim","","","","",""
"dual-task","null","null","null","","swim","swim","492.6549999997951","","T","null","77","77","1","swim-dual-task","","T","uppercase","146000","0","2","01d92d17ed0ea9d99d2bac6381808c7ee69318be66dd3daf29c6bf4568786f8d","146000.93999999994","492.6549999997951","77","1","swim","","","","",""
"dual-task","null","null","null","","swim","swim","NA","","d","null","NA","88","0","swim-dual-task","","d","lowercase","154000","1","2","01d92d17ed0ea9d99d2bac6381808c7ee69318be66dd3daf29c6bf4568786f8d","154001.3899999999","NA","NA","0","swim","","","","",""
"dual-task","null","null","null","","swim","swim","1327.380000000121","","t","null","77","88","0","swim-dual-task","","t","lowercase","160000","0","2","01d92d17ed0ea9d99d2bac6381808c7ee69318be66dd3daf29c6bf4568786f8d","160000.68499999982","1327.380000000121","77","0","swim","","","","",""
"dual-task","null","null","null","","swim","swim","402.4600000004284","","A","null","88","77","0","swim-dual-task","","A","uppercase","170000","0","2","01d92d17ed0ea9d99d2bac6381808c7ee69318be66dd3daf29c6bf4568786f8d","170000.44500000007","402.4600000004284","88","0","swim","","","","",""
"dual-task","null","null","null","","swim","swim","535.9050000002608","","A","null","77","77","1","swim-dual-task","","A","uppercase","182000","0","2","01d92d17ed0ea9d99d2bac6381808c7ee69318be66dd3daf29c6bf4568786f8d","182001.4249999998","535.9050000002608","77","1","swim","","","","",""
"dual-task","null","null","null","","swim","swim","NA","","e","null","NA","88","0","swim-dual-task","","e","lowercase","190000","1","2","01d92d17ed0ea9d99d2bac6381808c7ee69318be66dd3daf29c6bf4568786f8d","190000.44500000007","NA","NA","0","swim","","","","",""
"dual-task","null","null","null","","swim","swim","400.54000000003725","","D","null","77","77","1","swim-dual-task","","D","uppercase","202000","0","2","01d92d17ed0ea9d99d2bac6381808c7ee69318be66dd3daf29c6bf4568786f8d","202000.93999999994","400.54000000003725","77","1","swim","","","","",""
"dual-task","null","null","null","","swim","swim","395.07499999995343","","N","null","77","77","1","swim-dual-task","","N","uppercase","214000","0","2","01d92d17ed0ea9d99d2bac6381808c7ee69318be66dd3daf29c6bf4568786f8d","214000.21499999985","395.07499999995343","77","1","swim","","","","",""
"dual-task","null","null","null","","swim","swim","429.9899999999907","","h","null","88","88","1","swim-dual-task","","h","lowercase","226000","0","2","01d92d17ed0ea9d99d2bac6381808c7ee69318be66dd3daf29c6bf4568786f8d","226000.19500000007","429.9899999999907","88","1","swim","","","","",""
"dual-task","null","null","null","","swim","swim","438.6850000000559","","q","null","77","88","0","swim-dual-task","","q","lowercase","234000","0","2","01d92d17ed0ea9d99d2bac6381808c7ee69318be66dd3daf29c6bf4568786f8d","234000.94999999995","438.6850000000559","77","0","swim","","","","",""
"dual-task","null","null","null","","swim","swim","467.02499999990687","","g","null","88","88","1","swim-dual-task","","g","lowercase","242000","0","2","01d92d17ed0ea9d99d2bac6381808c7ee69318be66dd3daf29c6bf4568786f8d","242000.79000000004","467.02499999990687","88","1","swim","","","","",""
"dual-task","null","null","null","","swim","swim","500.59499999997206","","a","null","88","88","1","swim-dual-task","","a","lowercase","248000","0","2","01d92d17ed0ea9d99d2bac6381808c7ee69318be66dd3daf29c6bf4568786f8d","248000.46500000008","500.59499999997206","88","1","swim","","","","",""
"dual-task","null","null","null","","swim","swim","636.0549999999348","","f","null","88","88","1","swim-dual-task","","f","lowercase","256000","0","2","01d92d17ed0ea9d99d2bac6381808c7ee69318be66dd3daf29c6bf4568786f8d","256000.69500000007","636.0549999999348","88","1","swim","","","","",""
"dual-task","null","null","null","","swim","swim","476.41500000003725","","f","null","88","88","1","swim-dual-task","","f","lowercase","264000","0","2","01d92d17ed0ea9d99d2bac6381808c7ee69318be66dd3daf29c6bf4568786f8d","264000.42999999993","476.41500000003725","88","1","swim","","","","",""
"dual-task","null","null","null","","swim","swim","473.7799999997951","","e","null","88","88","1","swim-dual-task","","e","lowercase","270000","0","2","01d92d17ed0ea9d99d2bac6381808c7ee69318be66dd3daf29c6bf4568786f8d","270000.74499999965","473.7799999997951","88","1","swim","","","","",""
"dual-task","null","null","null","","swim","swim","464.22499999962747","","G","null","77","77","1","swim-dual-task","","G","uppercase","280000","0","2","01d92d17ed0ea9d99d2bac6381808c7ee69318be66dd3daf29c6bf4568786f8d","280000.67999999993","464.22499999962747","77","1","swim","","","","",""
"dual-task","null","null","null","","swim","swim","600.3100000002887","","a","null","88","88","1","swim-dual-task","","a","lowercase","286000","0","2","01d92d17ed0ea9d99d2bac6381808c7ee69318be66dd3daf29c6bf4568786f8d","286001.1749999998","600.3100000002887","88","1","swim","","","","",""
"dual-task","null","null","null","","swim","swim","525.4250000002794","","A","null","77","77","1","swim-dual-task","","A","uppercase","294000","0","2","01d92d17ed0ea9d99d2bac6381808c7ee69318be66dd3daf29c6bf4568786f8d","293999.8650000002","525.4250000002794","77","1","swim","","","","",""
"dual-task","null","null","null","","swim","swim","611.7100000001956","","G","null","77","77","1","swim-dual-task","","G","uppercase","306000","0","2","01d92d17ed0ea9d99d2bac6381808c7ee69318be66dd3daf29c6bf4568786f8d","306000.08499999996","611.7100000001956","77","1","swim","","","","",""
"dual-task","null","null","null","","swim","swim","515.75","","h","null","88","88","1","swim-dual-task","","h","lowercase","314000","0","2","01d92d17ed0ea9d99d2bac6381808c7ee69318be66dd3daf29c6bf4568786f8d","313999.92000000016","515.75","88","1","swim","","","","",""
"dual-task","null","null","null","","swim","swim","637.9549999996088","","a","null","88","88","1","swim-dual-task","","a","lowercase","326000","0","2","01d92d17ed0ea9d99d2bac6381808c7ee69318be66dd3daf29c6bf4568786f8d","326000.7150000001","637.9549999996088","88","1","swim","","","","",""
"dual-task","null","null","null","","swim","swim","702.589999999851","","G","null","77","77","1","swim-dual-task","","G","uppercase","338000","0","2","01d92d17ed0ea9d99d2bac6381808c7ee69318be66dd3daf29c6bf4568786f8d","338000.28","702.589999999851","77","1","swim","","","","",""
"dual-task","null","null","null","","swim","swim","418.0299999997951","","T","null","77","77","1","swim-dual-task","","T","uppercase","348000","0","2","01d92d17ed0ea9d99d2bac6381808c7ee69318be66dd3daf29c6bf4568786f8d","348000.42500000005","418.0299999997951","77","1","swim","","","","",""
"dual-task","null","null","null","","swim","swim","456.81500000017695","","E","null","77","77","1","swim-dual-task","","E","uppercase","356000","0","2","01d92d17ed0ea9d99d2bac6381808c7ee69318be66dd3daf29c6bf4568786f8d","356000.74499999965","456.81500000017695","77","1","swim","","","","",""
"dual-task","null","null","null","","swim","swim","421.0449999999255","","Q","null","77","77","1","swim-dual-task","","Q","uppercase","364000","0","2","01d92d17ed0ea9d99d2bac6381808c7ee69318be66dd3daf29c6bf4568786f8d","364000.0399999998","421.0449999999255","77","1","swim","","","","",""
"dual-task","null","null","null","","swim","swim","669.1599999999162","","r","null","88","88","1","swim-dual-task","","r","lowercase","376000","0","2","01d92d17ed0ea9d99d2bac6381808c7ee69318be66dd3daf29c6bf4568786f8d","376000.70499999984","669.1599999999162","88","1","swim","","","","",""
"dual-task","null","null","null","","swim","swim","609.6450000000186","","N","null","77","77","1","swim-dual-task","","N","uppercase","384000","0","2","01d92d17ed0ea9d99d2bac6381808c7ee69318be66dd3daf29c6bf4568786f8d","384001.22","609.6450000000186","77","1","swim","","","","",""
"dual-task","null","null","null","","swim","swim","472.9700000004377","","H","null","77","77","1","swim-dual-task","","H","uppercase","394000","0","2","01d92d17ed0ea9d99d2bac6381808c7ee69318be66dd3daf29c6bf4568786f8d","394000.5299999998","472.9700000004377","77","1","swim","","","","",""
"dual-task","null","null","null","","swim","swim","493.87000000011176","","q","null","88","88","1","swim-dual-task","","q","lowercase","404000","0","2","01d92d17ed0ea9d99d2bac6381808c7ee69318be66dd3daf29c6bf4568786f8d","404001.1300000001","493.87000000011176","88","1","swim","","","","",""
"dual-task","null","null","null","","swim","swim","422.5850000004284","","Q","null","77","77","1","swim-dual-task","","Q","uppercase","410000","0","2","01d92d17ed0ea9d99d2bac6381808c7ee69318be66dd3daf29c6bf4568786f8d","410000.4950000001","422.5850000004284","77","1","swim","","","","",""
"dual-task","null","null","null","","swim","swim","588.839999999851","","n","null","88","88","1","swim-dual-task","","n","lowercase","420000","0","2","01d92d17ed0ea9d99d2bac6381808c7ee69318be66dd3daf29c6bf4568786f8d","420001.0099999998","588.839999999851","88","1","swim","","","","",""
"dual-task","null","null","null","","swim","swim","553.1700000001583","","H","null","77","77","1","swim-dual-task","","H","uppercase","430000","0","2","01d92d17ed0ea9d99d2bac6381808c7ee69318be66dd3daf29c6bf4568786f8d","430001.04000000004","553.1700000001583","77","1","swim","","","","",""
"dual-task","null","null","null","","swim","swim","633.0849999997299","","D","null","77","77","1","swim-dual-task","","D","uppercase","436000","0","2","01d92d17ed0ea9d99d2bac6381808c7ee69318be66dd3daf29c6bf4568786f8d","436000.5850000002","633.0849999997299","77","1","swim","","","","",""
"dual-task","null","null","null","","swim","swim","635.2449999998789","","t","null","88","88","1","swim-dual-task","","t","lowercase","442000","0","2","01d92d17ed0ea9d99d2bac6381808c7ee69318be66dd3daf29c6bf4568786f8d","442005.72499999986","635.2449999998789","88","1","swim","","","","",""
"dual-task","null","null","null","","swim","swim","619.0449999999255","","n","null","88","88","1","swim-dual-task","","n","lowercase","454000","0","2","01d92d17ed0ea9d99d2bac6381808c7ee69318be66dd3daf29c6bf4568786f8d","454000.53500000015","619.0449999999255","88","1","swim","","","","",""
"dual-task","null","null","null","","swim","swim","616.9150000000373","","t","null","88","88","1","swim-dual-task","","t","lowercase","462000","0","2","01d92d17ed0ea9d99d2bac6381808c7ee69318be66dd3daf29c6bf4568786f8d","462000.97499999986","616.9150000000373","88","1","swim","","","","",""
"dual-task","null","null","null","","swim","swim","441.15500000002794","","N","null","77","77","1","swim-dual-task","","N","uppercase","476000","0","2","01d92d17ed0ea9d99d2bac6381808c7ee69318be66dd3daf29c6bf4568786f8d","476000.9199999999","441.15500000002794","77","1","swim","","","","",""
"dual-task","null","null","null","","swim","swim","836.4000000001397","","G","null","77","77","1","swim-dual-task","","G","uppercase","490000","0","2","01d92d17ed0ea9d99d2bac6381808c7ee69318be66dd3daf29c6bf4568786f8d","490001.58999999985","836.4000000001397","77","1","swim","","","","",""
"dual-task","null","null","null","","swim","swim","802.7750000001397","","d","null","88","88","1","swim-dual-task","","d","lowercase","496000","0","2","01d92d17ed0ea9d99d2bac6381808c7ee69318be66dd3daf29c6bf4568786f8d","496000.78500000015","802.7750000001397","88","1","swim","","","","",""
"dual-task","null","null","null","","swim","swim","600.4650000000838","","b","null","88","88","1","swim-dual-task","","b","lowercase","510000","0","2","01d92d17ed0ea9d99d2bac6381808c7ee69318be66dd3daf29c6bf4568786f8d","510001.2749999999","600.4650000000838","88","1","swim","","","","",""
"dual-task","null","null","null","","swim","swim","561.9749999996275","","q","null","88","88","1","swim-dual-task","","q","lowercase","520000","0","2","01d92d17ed0ea9d99d2bac6381808c7ee69318be66dd3daf29c6bf4568786f8d","520000.21499999985","561.9749999996275","88","1","swim","","","","",""
"dual-task","null","null","null","","swim","swim","747.3350000001956","","d","null","88","88","1","swim-dual-task","","d","lowercase","528000","0","2","01d92d17ed0ea9d99d2bac6381808c7ee69318be66dd3daf29c6bf4568786f8d","528000.5","747.3350000001956","88","1","swim","","","","",""
"dual-task","null","null","null","","swim","swim","620.3900000001304","","r","null","88","88","1","swim-dual-task","","r","lowercase","540000","0","2","01d92d17ed0ea9d99d2bac6381808c7ee69318be66dd3daf29c6bf4568786f8d","540000.4149999998","620.3900000001304","88","1","swim","","","","",""
"dual-task","null","null","null","","swim","swim","505.87499999976717","","H","null","77","77","1","swim-dual-task","","H","uppercase","546000","0","2","01d92d17ed0ea9d99d2bac6381808c7ee69318be66dd3daf29c6bf4568786f8d","545999.9299999999","505.87499999976717","77","1","swim","","","","",""
"dual-task","null","null","null","","swim","swim","616.5549999999348","","Q","null","77","77","1","swim-dual-task","","Q","uppercase","554000","0","2","01d92d17ed0ea9d99d2bac6381808c7ee69318be66dd3daf29c6bf4568786f8d","554001.2749999999","616.5549999999348","77","1","swim","","","","",""
"dual-task","null","null","null","","swim","swim","788.8800000001211","","B","null","77","77","1","swim-dual-task","","B","uppercase","566000","0","2","01d92d17ed0ea9d99d2bac6381808c7ee69318be66dd3daf29c6bf4568786f8d","566000.5150000001","788.8800000001211","77","1","swim","","","","",""
"dual-task","null","null","null","","swim","swim","609.9399999999441","","n","null","88","88","1","swim-dual-task","","n","lowercase","578000","0","2","01d92d17ed0ea9d99d2bac6381808c7ee69318be66dd3daf29c6bf4568786f8d","578001.26","609.9399999999441","88","1","swim","","","","",""
"dual-task","null","null","null","","swim","swim","709.9699999997392","","r","null","88","88","1","swim-dual-task","","r","lowercase","588000","0","2","01d92d17ed0ea9d99d2bac6381808c7ee69318be66dd3daf29c6bf4568786f8d","588000.7449999996","709.9699999997392","88","1","swim","","","","",""
"dual-task","null","null","null","","swim","swim","637.9550000000745","","g","null","88","88","1","swim-dual-task","","g","lowercase","600000","0","2","01d92d17ed0ea9d99d2bac6381808c7ee69318be66dd3daf29c6bf4568786f8d","600000.8000000003","637.9550000000745","88","1","swim","","","","",""
"dual-task","null","null","null","","swim","swim","552.7949999999255","","Q","null","77","77","1","swim-dual-task","","Q","uppercase","610000","0","2","01d92d17ed0ea9d99d2bac6381808c7ee69318be66dd3daf29c6bf4568786f8d","610001.96","552.7949999999255","77","1","swim","","","","",""
"dual-task","null","null","null","","swim","swim","464.02499999990687","","D","null","77","77","1","swim-dual-task","","D","uppercase","622000","0","2","01d92d17ed0ea9d99d2bac6381808c7ee69318be66dd3daf29c6bf4568786f8d","622000.5999999999","464.02499999990687","77","1","swim","","","","",""
"dual-task","null","null","null","","swim","swim","722.7950000001583","","F","null","77","77","1","swim-dual-task","","F","uppercase","634000","0","2","01d92d17ed0ea9d99d2bac6381808c7ee69318be66dd3daf29c6bf4568786f8d","634000.1599999999","722.7950000001583","77","1","swim","","","","",""
"dual-task","null","null","null","","swim","swim","721.3900000001304","","b","null","88","88","1","swim-dual-task","","b","lowercase","640000","0","2","01d92d17ed0ea9d99d2bac6381808c7ee69318be66dd3daf29c6bf4568786f8d","640001.6049999997","721.3900000001304","88","1","swim","","","","",""
"dual-task","null","null","null","","swim","swim","604.0949999997392","","F","null","77","77","1","swim-dual-task","","F","uppercase","652000","0","2","01d92d17ed0ea9d99d2bac6381808c7ee69318be66dd3daf29c6bf4568786f8d","652000.5099999998","604.0949999997392","77","1","swim","","","","",""
"dual-task","null","null","null","","swim","swim","1210.7649999996647","","R","null","77","77","1","swim-dual-task","","R","uppercase","662000","0","2","01d92d17ed0ea9d99d2bac6381808c7ee69318be66dd3daf29c6bf4568786f8d","662000.2399999998","1210.7649999996647","77","1","swim","","","","",""
"dual-task","null","null","null","","swim","swim","1304.8249999997206","","E","null","77","77","1","swim-dual-task","","E","uppercase","672000","0","2","01d92d17ed0ea9d99d2bac6381808c7ee69318be66dd3daf29c6bf4568786f8d","672000.27","1304.8249999997206","77","1","swim","","","","",""
"dual-task","null","null","null","","swim","swim","432.66999999969266","","A","null","77","77","1","swim-dual-task","","A","uppercase","682000","0","2","01d92d17ed0ea9d99d2bac6381808c7ee69318be66dd3daf29c6bf4568786f8d","682000.4050000003","432.66999999969266","77","1","swim","","","","",""
"dual-task","null","null","null","","swim","swim","662.0349999996834","","f","null","88","88","1","swim-dual-task","","f","lowercase","690000","0","2","01d92d17ed0ea9d99d2bac6381808c7ee69318be66dd3daf29c6bf4568786f8d","690000.9199999999","662.0349999996834","88","1","swim","","","","",""
"dual-task","null","null","null","","swim","swim","566.1400000001304","","g","null","88","88","1","swim-dual-task","","g","lowercase","700000","0","2","01d92d17ed0ea9d99d2bac6381808c7ee69318be66dd3daf29c6bf4568786f8d","700000.77","566.1400000001304","88","1","swim","","","","",""
"dual-task","null","null","null","","swim","swim","525.5400000002701","","N","null","77","77","1","swim-dual-task","","N","uppercase","708000","0","2","01d92d17ed0ea9d99d2bac6381808c7ee69318be66dd3daf29c6bf4568786f8d","708001.19","525.5400000002701","77","1","swim","","","","",""
"dual-task","null","null","null","","swim","swim","513.0450000001583","","g","null","88","88","1","swim-dual-task","","g","lowercase","716000","0","2","01d92d17ed0ea9d99d2bac6381808c7ee69318be66dd3daf29c6bf4568786f8d","716001.4249999998","513.0450000001583","88","1","swim","","","","",""
"dual-task","null","null","null","","swim","swim","543.9799999997485","","r","null","88","88","1","swim-dual-task","","r","lowercase","724000","0","2","01d92d17ed0ea9d99d2bac6381808c7ee69318be66dd3daf29c6bf4568786f8d","724002.95","543.9799999997485","88","1","swim","","","","",""
"dual-task","null","null","null","","swim","swim","817.0399999998044","","H","null","77","77","1","swim-dual-task","","H","uppercase","736000","0","2","01d92d17ed0ea9d99d2bac6381808c7ee69318be66dd3daf29c6bf4568786f8d","736001.4449999998","817.0399999998044","77","1","swim","","","","",""
"dual-task","null","null","null","","swim","swim","836.5800000003073","","B","null","77","77","1","swim-dual-task","","B","uppercase","744000","0","2","01d92d17ed0ea9d99d2bac6381808c7ee69318be66dd3daf29c6bf4568786f8d","744001.9900000002","836.5800000003073","77","1","swim","","","","",""
"dual-task","null","null","null","","swim","swim","442.1950000000652","","R","null","77","77","1","swim-dual-task","","R","uppercase","756000","0","2","01d92d17ed0ea9d99d2bac6381808c7ee69318be66dd3daf29c6bf4568786f8d","756000.8900000001","442.1950000000652","77","1","swim","","","","",""
"dual-task","null","null","null","","swim","swim","515.864999999525","","F","null","77","77","1","swim-dual-task","","F","uppercase","768000","0","2","01d92d17ed0ea9d99d2bac6381808c7ee69318be66dd3daf29c6bf4568786f8d","768000.7699999996","515.864999999525","77","1","swim","","","","",""
"dual-task","null","null","null","","swim","swim","1390.8000000002794","","h","null","88","88","1","swim-dual-task","","h","lowercase","782000","0","2","01d92d17ed0ea9d99d2bac6381808c7ee69318be66dd3daf29c6bf4568786f8d","782001.4199999995","1390.8000000002794","88","1","swim","","","","",""
"dual-task","null","null","null","","swim","swim","705.5550000004005","","f","null","88","88","1","swim-dual-task","","f","lowercase","790000","0","2","01d92d17ed0ea9d99d2bac6381808c7ee69318be66dd3daf29c6bf4568786f8d","790000.7699999996","705.5550000004005","88","1","swim","","","","",""
"audio-keyboard-response","29","1968624","0.0-7.0-0.0-1.0","01d92d17ed0ea9d99d2bac6381808c7ee69318be66dd3daf29c6bf4568786f8d","swim","swim","null","","audio/story_swim_scrambled.mp3","","null","","","","","","","","","","","","","","","","","","","",""
"html-button-response","30","1972075","0.0-7.0-0.0-2.0","01d92d17ed0ea9d99d2bac6381808c7ee69318be66dd3daf29c6bf4568786f8d","swim","swim","3450","","<p>This concludes the story. Thank you for listening.</p><p>You will now answer some questions about the content of the story.</p>","0","","","","","","","","","","","","","","","","","","","","",""
"survey-multi-choice","31","1976588","0.0-7.0-0.0-3.0-0.0","01d92d17ed0ea9d99d2bac6381808c7ee69318be66dd3daf29c6bf4568786f8d","swim","swim","4509","","<b>Where is the home of naval aviation?</b>","","","","1","swim-comprehension","","","","","","","","","","","","","{""Q0"":""Pensacola""}","","","",""
"survey-multi-choice","32","1981596","0.0-7.0-0.0-3.0-0.1","01d92d17ed0ea9d99d2bac6381808c7ee69318be66dd3daf29c6bf4568786f8d","swim","swim","4754","","<b>What gave the narrator his greatest feeling of accomplishment?</b>","","","","1","swim-comprehension","","","","","","","","","","","","","{""Q0"":""Passing the water survival course""}","","","",""
"survey-multi-choice","33","1997268","0.0-7.0-0.0-3.0-0.2","01d92d17ed0ea9d99d2bac6381808c7ee69318be66dd3daf29c6bf4568786f8d","swim","swim","15419","","<b>What was the final step of the first swim test in the pool?</b>","","","","1","swim-comprehension","","","","","","","","","","","","","{""Q0"":""Tread water with hands above the water""}","","","",""
"survey-multi-choice","34","2005124","0.0-7.0-0.0-3.0-0.3","01d92d17ed0ea9d99d2bac6381808c7ee69318be66dd3daf29c6bf4568786f8d","swim","swim","7603","","<b>How many astronaut candidates passed the first swim test?</b>","","","","1","swim-comprehension","","","","","","","","","","","","","{""Q0"":""All of them""}","","","",""
"survey-multi-choice","35","2012564","0.0-7.0-0.0-3.0-0.4","01d92d17ed0ea9d99d2bac6381808c7ee69318be66dd3daf29c6bf4568786f8d","swim","swim","7185","","<b>What were the astronaut candidates trained to do at the naval air station?</b>","","","","1","swim-comprehension","","","","","","","","","","","","","{""Q0"":""Eject out of aircraft and survive in water long enough to be rescued""}","","","",""
"survey-multi-choice","36","2023139","0.0-7.0-0.0-3.0-0.5","01d92d17ed0ea9d99d2bac6381808c7ee69318be66dd3daf29c6bf4568786f8d","swim","swim","10320","","<b>How often does the narrator swim, now that he is a good swimmer?</b>","","","","0","swim-comprehension","","","","","","","","","","","","","{""Q0"":""Every day at the local pool""}","","","",""
"survey-multi-choice","37","2026707","0.0-7.0-0.0-3.0-0.6","01d92d17ed0ea9d99d2bac6381808c7ee69318be66dd3daf29c6bf4568786f8d","swim","swim","3311","","<b>How many times did the astronaut candidates have to complete the final exercise to pass?</b>","","","","1","swim-comprehension","","","","","","","","","","","","","{""Q0"":""Two""}","","","",""
"survey-multi-choice","38","2044523","0.0-7.0-0.0-3.0-0.7","01d92d17ed0ea9d99d2bac6381808c7ee69318be66dd3daf29c6bf4568786f8d","swim","swim","17563","","<b>How did the narrator train for his swim test?</b>","","","","0","swim-comprehension","","","","","","","","","","","","","{""Q0"":""Signed up for a swim class""}","","","",""
"survey-multi-choice","39","2047347","0.0-7.0-0.0-3.0-0.8","01d92d17ed0ea9d99d2bac6381808c7ee69318be66dd3daf29c6bf4568786f8d","swim","swim","2570","","<b>What is the narrator afraid of, aside from the water?</b>","","","","1","swim-comprehension","","","","","","","","","","","","","{""Q0"":""Heights""}","","","",""
"survey-multi-choice","40","2054659","0.0-7.0-0.0-3.0-0.9","01d92d17ed0ea9d99d2bac6381808c7ee69318be66dd3daf29c6bf4568786f8d","swim","swim","7055","","<b>How many astronaut candidates reported for duty at the Johnson Space Center?</b>","","","","1","swim-comprehension","","","","","","","","","","","","","{""Q0"":""Forty-four""}","","","",""
"html-button-response","41","2056635","0.0-7.0-0.0-4.0","01d92d17ed0ea9d99d2bac6381808c7ee69318be66dd3daf29c6bf4568786f8d","swim","swim","1723","","<p>Thank you for your responses.</p><p>You will now answer some questions about your impressions of the story.</p>","0","","","","","","","","","","","","","","","","","","","","",""
"html-button-response","42","2058259","0.0-7.0-0.0-5.0-0.0","01d92d17ed0ea9d99d2bac6381808c7ee69318be66dd3daf29c6bf4568786f8d","swim","swim","1622","","A3","3","","","","swim-engagement","","","","","","","","","","","","","","4","absorption","",""
"html-button-response","43","2060563","0.0-7.0-0.0-5.0-0.1","01d92d17ed0ea9d99d2bac6381808c7ee69318be66dd3daf29c6bf4568786f8d","swim","swim","2052","","EE5","2","","","","swim-engagement","","","","","","","","","","","","","","3","emo-engage","",""
"html-button-response","44","2062243","0.0-7.0-0.0-5.0-0.2","01d92d17ed0ea9d99d2bac6381808c7ee69318be66dd3daf29c6bf4568786f8d","swim","swim","1428","","E1","3","","","","swim-engagement","","","","","","","","","","","","","","4","enjoyment","",""
"html-button-response","45","2065075","0.0-7.0-0.0-5.0-0.3","01d92d17ed0ea9d99d2bac6381808c7ee69318be66dd3daf29c6bf4568786f8d","swim","swim","2579","","EE4","4","","","","swim-engagement","","","","","","","","","","","","","","5","emo-engage","",""
"html-button-response","46","2067146","0.0-7.0-0.0-5.0-0.4","01d92d17ed0ea9d99d2bac6381808c7ee69318be66dd3daf29c6bf4568786f8d","swim","swim","1819","","EE3","4","","","","swim-engagement","","","","","","","","","","","","","","5","emo-engage","",""
"html-button-response","47","2068507","0.0-7.0-0.0-5.0-0.5","01d92d17ed0ea9d99d2bac6381808c7ee69318be66dd3daf29c6bf4568786f8d","swim","swim","1107","","EE2","4","","","","swim-engagement","","","","","","","","","","","","","","5","emo-engage","",""
"html-button-response","48","2070842","0.0-7.0-0.0-5.0-0.6","01d92d17ed0ea9d99d2bac6381808c7ee69318be66dd3daf29c6bf4568786f8d","swim","swim","2083","","MS1","4","","","","swim-engagement","","","","","","","","","","","","","","5","mental-sim","",""
"html-button-response","49","2075523","0.0-7.0-0.0-5.0-0.7","01d92d17ed0ea9d99d2bac6381808c7ee69318be66dd3daf29c6bf4568786f8d","swim","swim","4427","","A5","2","","","","swim-engagement","","","","","","","","","","","","","","3","absorption","",""
"html-button-response","50","2077419","0.0-7.0-0.0-5.0-0.8","01d92d17ed0ea9d99d2bac6381808c7ee69318be66dd3daf29c6bf4568786f8d","swim","swim","1645","","E7","3","","","","swim-engagement","","","","","","","","","","","","","","4","enjoyment","",""
"html-button-response","51","2080421","0.0-7.0-0.0-5.0-0.9","01d92d17ed0ea9d99d2bac6381808c7ee69318be66dd3daf29c6bf4568786f8d","swim","swim","2749","","MS3","4","","","","swim-engagement","","","","","","","","","","","","","","5","mental-sim","",""
"html-button-response","52","2082442","0.0-7.0-0.0-5.0-0.10","01d92d17ed0ea9d99d2bac6381808c7ee69318be66dd3daf29c6bf4568786f8d","swim","swim","1765","","E6","3","","","","swim-engagement","","","","","","","","","","","","","","4","enjoyment","",""
"html-button-response","53","2087163","0.0-7.0-0.0-5.0-0.11","01d92d17ed0ea9d99d2bac6381808c7ee69318be66dd3daf29c6bf4568786f8d","swim","swim","4468","","EE1","4","","","","swim-engagement","","","","","","","","","","","","","","5","emo-engage","",""
"html-button-response","54","2097770","0.0-7.0-0.0-5.0-0.12","01d92d17ed0ea9d99d2bac6381808c7ee69318be66dd3daf29c6bf4568786f8d","swim","swim","10355","","A2","4","","","","swim-engagement","","","","","","","","","","","","","","5","absorption","",""
"html-button-response","55","2101082","0.0-7.0-0.0-5.0-0.13","01d92d17ed0ea9d99d2bac6381808c7ee69318be66dd3daf29c6bf4568786f8d","swim","swim","3059","","A1","0","","","","swim-engagement","","","","","","","","","","","","","","1","absorption","",""
"html-button-response","56","2105754","0.0-7.0-0.0-5.0-0.14","01d92d17ed0ea9d99d2bac6381808c7ee69318be66dd3daf29c6bf4568786f8d","swim","swim","4419","","A4","3","","","","swim-engagement","","","","","","","","","","","","","","4","absorption","",""
"html-button-response","57","2109898","0.0-7.0-0.0-5.0-0.15","01d92d17ed0ea9d99d2bac6381808c7ee69318be66dd3daf29c6bf4568786f8d","swim","swim","3893","","MS2","3","","","","swim-engagement","","","","","","","","","","","","","","4","mental-sim","",""
"html-button-response","58","2133418","0.0-7.0-0.0-5.0-0.16","01d92d17ed0ea9d99d2bac6381808c7ee69318be66dd3daf29c6bf4568786f8d","swim","swim","23267","","E8","2","","","","swim-engagement","","","","","","","","","","","","","","3","enjoyment","",""
"html-button-response","59","2135538","0.0-7.0-0.0-5.0-0.17","01d92d17ed0ea9d99d2bac6381808c7ee69318be66dd3daf29c6bf4568786f8d","swim","swim","1867","","E10","2","","","","swim-engagement","","","","","","","","","","","","","","3","enjoyment","",""
"html-keyboard-response","60","2145521","0.0-7.0-1.0","01d92d17ed0ea9d99d2bac6381808c7ee69318be66dd3daf29c6bf4568786f8d","swim","swim","9731","","<p>Thank you for your responses. You will now listen to the second story.</p><p>Remember, as you listen to the story you will see letters appear on the screen.</br>As quickly as possible, press <b>&lt;x&gt;</b> if the letter is lowercase and <b>&lt;m&gt;</b> if the letter is uppercase.</p><p>Press <b>&lt;x&gt;</b> or <b>&lt;m&gt;</b> to begin listening!</p>","","88","","","","","","","","","","","","","","","","","","","",""
"html-keyboard-response","61","2146022","0.0-7.0-2.0-0.0","01d92d17ed0ea9d99d2bac6381808c7ee69318be66dd3daf29c6bf4568786f8d","swim","swim","null","","<div style=""font-size:60px;"" tabindex=""0"">+</div>","","null","","","","","","","","","","","","","","","","","","","",""
"dual-task","null","null","null","","swim","swim","722.7100000004284","","B","null","77","77","1","arctic-dual-task","","B","uppercase","12000","0","2","01d92d17ed0ea9d99d2bac6381808c7ee69318be66dd3daf29c6bf4568786f8d","12000.994999999646","722.7100000004284","77","1","arctic","","","","",""
"dual-task","null","null","null","","swim","swim","375.0349999992177","","B","null","77","77","1","arctic-dual-task","","B","uppercase","20000","0","2","01d92d17ed0ea9d99d2bac6381808c7ee69318be66dd3daf29c6bf4568786f8d","20000.114999999758","375.0349999992177","77","1","arctic","","","","",""
"dual-task","null","null","null","","swim","swim","629.3150000004098","","E","null","77","77","1","arctic-dual-task","","E","uppercase","26000","0","2","01d92d17ed0ea9d99d2bac6381808c7ee69318be66dd3daf29c6bf4568786f8d","25998.784999999683","629.3150000004098","77","1","arctic","","","","",""
"dual-task","null","null","null","","swim","swim","529.5950000002049","","f","null","88","88","1","arctic-dual-task","","f","lowercase","36000","0","2","01d92d17ed0ea9d99d2bac6381808c7ee69318be66dd3daf29c6bf4568786f8d","35999.24500000011","529.5950000002049","88","1","arctic","","","","",""
"dual-task","null","null","null","","swim","swim","550.0449999999255","","n","null","88","88","1","arctic-dual-task","","n","lowercase","48000","0","2","01d92d17ed0ea9d99d2bac6381808c7ee69318be66dd3daf29c6bf4568786f8d","47999.13500000024","550.0449999999255","88","1","arctic","","","","",""
"dual-task","null","null","null","","swim","swim","623.0649999999441","","r","null","88","88","1","arctic-dual-task","","r","lowercase","54000","0","2","01d92d17ed0ea9d99d2bac6381808c7ee69318be66dd3daf29c6bf4568786f8d","53998.96999999974","623.0649999999441","88","1","arctic","","","","",""
"dual-task","null","null","null","","swim","swim","719.1850000000559","","G","null","77","77","1","arctic-dual-task","","G","uppercase","62000","0","2","01d92d17ed0ea9d99d2bac6381808c7ee69318be66dd3daf29c6bf4568786f8d","61999.544999999925","719.1850000000559","77","1","arctic","","","","",""
"dual-task","null","null","null","","swim","swim","567.6300000008196","","q","null","88","88","1","arctic-dual-task","","q","lowercase","72000","0","2","01d92d17ed0ea9d99d2bac6381808c7ee69318be66dd3daf29c6bf4568786f8d","71999.83000000007","567.6300000008196","88","1","arctic","","","","",""
"dual-task","null","null","null","","swim","swim","538.5600000000559","","R","null","77","77","1","arctic-dual-task","","R","uppercase","78000","0","2","01d92d17ed0ea9d99d2bac6381808c7ee69318be66dd3daf29c6bf4568786f8d","78000.83499999996","538.5600000000559","77","1","arctic","","","","",""
"dual-task","null","null","null","","swim","swim","882.7700000004843","","H","null","77","77","1","arctic-dual-task","","H","uppercase","90000","0","2","01d92d17ed0ea9d99d2bac6381808c7ee69318be66dd3daf29c6bf4568786f8d","90000.28500000015","882.7700000004843","77","1","arctic","","","","",""
"dual-task","null","null","null","","swim","swim","906.6100000003353","","A","null","77","77","1","arctic-dual-task","","A","uppercase","96000","0","2","01d92d17ed0ea9d99d2bac6381808c7ee69318be66dd3daf29c6bf4568786f8d","95999.17499999981","906.6100000003353","77","1","arctic","","","","",""
"dual-task","null","null","null","","swim","swim","597.2050000000745","","e","null","88","88","1","arctic-dual-task","","e","lowercase","102000","0","2","01d92d17ed0ea9d99d2bac6381808c7ee69318be66dd3daf29c6bf4568786f8d","102000.0700000003","597.2050000000745","88","1","arctic","","","","",""
"dual-task","null","null","null","","swim","swim","702.9949999996461","","e","null","88","88","1","arctic-dual-task","","e","lowercase","114000","0","2","01d92d17ed0ea9d99d2bac6381808c7ee69318be66dd3daf29c6bf4568786f8d","114000.2200000002","702.9949999996461","88","1","arctic","","","","",""
"dual-task","null","null","null","","swim","swim","653.4050000002608","","f","null","88","88","1","arctic-dual-task","","f","lowercase","126000","0","2","01d92d17ed0ea9d99d2bac6381808c7ee69318be66dd3daf29c6bf4568786f8d","125999.87499999953","653.4050000002608","88","1","arctic","","","","",""
"dual-task","null","null","null","","swim","swim","520.9899999997579","","Q","null","77","77","1","arctic-dual-task","","Q","uppercase","138000","0","2","01d92d17ed0ea9d99d2bac6381808c7ee69318be66dd3daf29c6bf4568786f8d","138000.12999999942","520.9899999997579","77","1","arctic","","","","",""
"dual-task","null","null","null","","swim","swim","652.3000000007451","","r","null","88","88","1","arctic-dual-task","","r","lowercase","148000","0","2","01d92d17ed0ea9d99d2bac6381808c7ee69318be66dd3daf29c6bf4568786f8d","147999.88500000024","652.3000000007451","88","1","arctic","","","","",""
"dual-task","null","null","null","","swim","swim","541.2199999997392","","E","null","77","77","1","arctic-dual-task","","E","uppercase","158000","0","2","01d92d17ed0ea9d99d2bac6381808c7ee69318be66dd3daf29c6bf4568786f8d","158000.33499999996","541.2199999997392","77","1","arctic","","","","",""
"dual-task","null","null","null","","swim","swim","492.6649999995716","","N","null","77","77","1","arctic-dual-task","","N","uppercase","166000","0","2","01d92d17ed0ea9d99d2bac6381808c7ee69318be66dd3daf29c6bf4568786f8d","165999.8200000003","492.6649999995716","77","1","arctic","","","","",""
"dual-task","null","null","null","","swim","swim","676.4799999999814","","e","null","88","88","1","arctic-dual-task","","e","lowercase","174000","0","2","01d92d17ed0ea9d99d2bac6381808c7ee69318be66dd3daf29c6bf4568786f8d","173999.62499999953","676.4799999999814","88","1","arctic","","","","",""
"dual-task","null","null","null","","swim","swim","493.72500000009313","","e","null","88","88","1","arctic-dual-task","","e","lowercase","182000","0","2","01d92d17ed0ea9d99d2bac6381808c7ee69318be66dd3daf29c6bf4568786f8d","182000.33999999985","493.72500000009313","88","1","arctic","","","","",""
"dual-task","null","null","null","","swim","swim","556.6299999998882","","a","null","88","88","1","arctic-dual-task","","a","lowercase","190000","0","2","01d92d17ed0ea9d99d2bac6381808c7ee69318be66dd3daf29c6bf4568786f8d","190000.88499999978","556.6299999998882","88","1","arctic","","","","",""
"dual-task","null","null","null","","swim","swim","482.679999999702","","G","null","77","77","1","arctic-dual-task","","G","uppercase","198000","0","2","01d92d17ed0ea9d99d2bac6381808c7ee69318be66dd3daf29c6bf4568786f8d","198000.2349999994","482.679999999702","77","1","arctic","","","","",""
"dual-task","null","null","null","","swim","swim","434.12000000011176","","B","null","77","77","1","arctic-dual-task","","B","uppercase","210000","0","2","01d92d17ed0ea9d99d2bac6381808c7ee69318be66dd3daf29c6bf4568786f8d","210001.3250000002","434.12000000011176","77","1","arctic","","","","",""
"dual-task","null","null","null","","swim","swim","624.3750000004657","","g","null","88","88","1","arctic-dual-task","","g","lowercase","222000","0","2","01d92d17ed0ea9d99d2bac6381808c7ee69318be66dd3daf29c6bf4568786f8d","222000.11499999976","624.3750000004657","88","1","arctic","","","","",""
"dual-task","null","null","null","","swim","swim","682.2099999999627","","E","null","77","77","1","arctic-dual-task","","E","uppercase","236000","0","2","01d92d17ed0ea9d99d2bac6381808c7ee69318be66dd3daf29c6bf4568786f8d","236000.25","682.2099999999627","77","1","arctic","","","","",""
"dual-task","null","null","null","","swim","swim","627.9449999998324","","D","null","77","77","1","arctic-dual-task","","D","uppercase","250000","0","2","01d92d17ed0ea9d99d2bac6381808c7ee69318be66dd3daf29c6bf4568786f8d","249999.57499999972","627.9449999998324","77","1","arctic","","","","",""
"dual-task","null","null","null","","swim","swim","626.6599999996834","","n","null","88","88","1","arctic-dual-task","","n","lowercase","258000","0","2","01d92d17ed0ea9d99d2bac6381808c7ee69318be66dd3daf29c6bf4568786f8d","258001.5450000004","626.6599999996834","88","1","arctic","","","","",""
"dual-task","null","null","null","","swim","swim","531.4399999999441","","T","null","77","77","1","arctic-dual-task","","T","uppercase","268000","0","2","01d92d17ed0ea9d99d2bac6381808c7ee69318be66dd3daf29c6bf4568786f8d","268000.1649999996","531.4399999999441","77","1","arctic","","","","",""
"dual-task","null","null","null","","swim","swim","435.45499999960884","","Q","null","77","77","1","arctic-dual-task","","Q","uppercase","278000","0","2","01d92d17ed0ea9d99d2bac6381808c7ee69318be66dd3daf29c6bf4568786f8d","277999.8450000002","435.45499999960884","77","1","arctic","","","","",""
"dual-task","null","null","null","","swim","swim","649.2999999998137","","G","null","77","77","1","arctic-dual-task","","G","uppercase","284000","0","2","01d92d17ed0ea9d99d2bac6381808c7ee69318be66dd3daf29c6bf4568786f8d","284000.13500000024","649.2999999998137","77","1","arctic","","","","",""
"dual-task","null","null","null","","swim","swim","521.429999999702","","H","null","77","77","1","arctic-dual-task","","H","uppercase","292000","0","2","01d92d17ed0ea9d99d2bac6381808c7ee69318be66dd3daf29c6bf4568786f8d","292000.1599999997","521.429999999702","77","1","arctic","","","","",""
"dual-task","null","null","null","","swim","swim","597.7199999997392","","h","null","88","88","1","arctic-dual-task","","h","lowercase","304000","0","2","01d92d17ed0ea9d99d2bac6381808c7ee69318be66dd3daf29c6bf4568786f8d","304001.2150000003","597.7199999997392","88","1","arctic","","","","",""
"dual-task","null","null","null","","swim","swim","597.5899999993853","","d","null","88","88","1","arctic-dual-task","","d","lowercase","310000","0","2","01d92d17ed0ea9d99d2bac6381808c7ee69318be66dd3daf29c6bf4568786f8d","310000.5","597.5899999993853","88","1","arctic","","","","",""
"dual-task","null","null","null","","swim","swim","511.8599999998696","","D","null","77","77","1","arctic-dual-task","","D","uppercase","322000","0","2","01d92d17ed0ea9d99d2bac6381808c7ee69318be66dd3daf29c6bf4568786f8d","322000.85500000045","511.8599999998696","77","1","arctic","","","","",""
"dual-task","null","null","null","","swim","swim","1056.3900000001304","","n","null","88","88","1","arctic-dual-task","","n","lowercase","336000","0","2","01d92d17ed0ea9d99d2bac6381808c7ee69318be66dd3daf29c6bf4568786f8d","336000.75000000047","1056.3900000001304","88","1","arctic","","","","",""
"dual-task","null","null","null","","swim","swim","510.42000000039116","","F","null","77","77","1","arctic-dual-task","","F","uppercase","344000","0","2","01d92d17ed0ea9d99d2bac6381808c7ee69318be66dd3daf29c6bf4568786f8d","344000.4149999996","510.42000000039116","77","1","arctic","","","","",""
"dual-task","null","null","null","","swim","swim","614.7900000005029","","R","null","77","77","1","arctic-dual-task","","R","uppercase","358000","0","2","01d92d17ed0ea9d99d2bac6381808c7ee69318be66dd3daf29c6bf4568786f8d","358000.6549999998","614.7900000005029","77","1","arctic","","","","",""
"dual-task","null","null","null","","swim","swim","582.5000000004657","","h","null","88","88","1","arctic-dual-task","","h","lowercase","370000","0","2","01d92d17ed0ea9d99d2bac6381808c7ee69318be66dd3daf29c6bf4568786f8d","370000.645","582.5000000004657","88","1","arctic","","","","",""
"dual-task","null","null","null","","swim","swim","617.8300000000745","","t","null","88","88","1","arctic-dual-task","","t","lowercase","380000","0","2","01d92d17ed0ea9d99d2bac6381808c7ee69318be66dd3daf29c6bf4568786f8d","380000.84499999974","617.8300000000745","88","1","arctic","","","","",""
"dual-task","null","null","null","","swim","swim","615.910000000149","","a","null","88","88","1","arctic-dual-task","","a","lowercase","392000","0","2","01d92d17ed0ea9d99d2bac6381808c7ee69318be66dd3daf29c6bf4568786f8d","392001.5400000005","615.910000000149","88","1","arctic","","","","",""
"dual-task","null","null","null","","swim","swim","651.535000000149","","t","null","88","88","1","arctic-dual-task","","t","lowercase","400000","0","2","01d92d17ed0ea9d99d2bac6381808c7ee69318be66dd3daf29c6bf4568786f8d","400000.58999999985","651.535000000149","88","1","arctic","","","","",""
"dual-task","null","null","null","","swim","swim","647.0249999999069","","q","null","88","88","1","arctic-dual-task","","q","lowercase","408000","0","2","01d92d17ed0ea9d99d2bac6381808c7ee69318be66dd3daf29c6bf4568786f8d","408000.6200000001","647.0249999999069","88","1","arctic","","","","",""
"dual-task","null","null","null","","swim","swim","682.2350000003353","","R","null","77","77","1","arctic-dual-task","","R","uppercase","420000","0","2","01d92d17ed0ea9d99d2bac6381808c7ee69318be66dd3daf29c6bf4568786f8d","420001.33499999996","682.2350000003353","77","1","arctic","","","","",""
"dual-task","null","null","null","","swim","swim","650.8299999996088","","F","null","77","77","1","arctic-dual-task","","F","uppercase","430000","0","2","01d92d17ed0ea9d99d2bac6381808c7ee69318be66dd3daf29c6bf4568786f8d","430002.5349999997","650.8299999996088","77","1","arctic","","","","",""
"dual-task","null","null","null","","swim","swim","519.3999999999069","","T","null","77","77","1","arctic-dual-task","","T","uppercase","442000","0","2","01d92d17ed0ea9d99d2bac6381808c7ee69318be66dd3daf29c6bf4568786f8d","442000.3200000003","519.3999999999069","77","1","arctic","","","","",""
"dual-task","null","null","null","","swim","swim","657.4449999998324","","t","null","88","88","1","arctic-dual-task","","t","lowercase","456000","0","2","01d92d17ed0ea9d99d2bac6381808c7ee69318be66dd3daf29c6bf4568786f8d","456000.645","657.4449999998324","88","1","arctic","","","","",""
"dual-task","null","null","null","","swim","swim","685.0800000000745","","d","null","88","88","1","arctic-dual-task","","d","lowercase","464000","0","2","01d92d17ed0ea9d99d2bac6381808c7ee69318be66dd3daf29c6bf4568786f8d","464000.9250000003","685.0800000000745","88","1","arctic","","","","",""
"dual-task","null","null","null","","swim","swim","1561.9699999997392","","d","null","88","88","1","arctic-dual-task","","d","lowercase","470000","0","2","01d92d17ed0ea9d99d2bac6381808c7ee69318be66dd3daf29c6bf4568786f8d","470000.84499999974","1561.9699999997392","88","1","arctic","","","","",""
"dual-task","null","null","null","","swim","swim","581.6750000002794","","E","null","77","77","1","arctic-dual-task","","E","uppercase","476000","0","2","01d92d17ed0ea9d99d2bac6381808c7ee69318be66dd3daf29c6bf4568786f8d","476000.73","581.6750000002794","77","1","arctic","","","","",""
"dual-task","null","null","null","","swim","swim","807.0849999994971","","R","null","77","77","1","arctic-dual-task","","R","uppercase","490000","0","2","01d92d17ed0ea9d99d2bac6381808c7ee69318be66dd3daf29c6bf4568786f8d","490000.59499999974","807.0849999994971","77","1","arctic","","","","",""
"dual-task","null","null","null","","swim","swim","702.2799999997951","","h","null","88","88","1","arctic-dual-task","","h","lowercase","502000","0","2","01d92d17ed0ea9d99d2bac6381808c7ee69318be66dd3daf29c6bf4568786f8d","502000.7100000004","702.2799999997951","88","1","arctic","","","","",""
"dual-task","null","null","null","","swim","swim","441.70000000018626","","F","null","77","77","1","arctic-dual-task","","F","uppercase","510000","0","2","01d92d17ed0ea9d99d2bac6381808c7ee69318be66dd3daf29c6bf4568786f8d","510000.1549999998","441.70000000018626","77","1","arctic","","","","",""
"dual-task","null","null","null","","swim","swim","687.0899999993853","","g","null","88","88","1","arctic-dual-task","","g","lowercase","516000","0","2","01d92d17ed0ea9d99d2bac6381808c7ee69318be66dd3daf29c6bf4568786f8d","516000.93999999994","687.0899999993853","88","1","arctic","","","","",""
"dual-task","null","null","null","","swim","swim","664.1899999994785","","n","null","88","88","1","arctic-dual-task","","n","lowercase","526000","0","2","01d92d17ed0ea9d99d2bac6381808c7ee69318be66dd3daf29c6bf4568786f8d","526000.3550000004","664.1899999994785","88","1","arctic","","","","",""
"dual-task","null","null","null","","swim","swim","636.0600000000559","","a","null","88","88","1","arctic-dual-task","","a","lowercase","538000","0","2","01d92d17ed0ea9d99d2bac6381808c7ee69318be66dd3daf29c6bf4568786f8d","537999.9150000005","636.0600000000559","88","1","arctic","","","","",""
"dual-task","null","null","null","","swim","swim","558.3050000006333","","T","null","77","77","1","arctic-dual-task","","T","uppercase","552000","0","2","01d92d17ed0ea9d99d2bac6381808c7ee69318be66dd3daf29c6bf4568786f8d","552000.7450000006","558.3050000006333","77","1","arctic","","","","",""
"dual-task","null","null","null","","swim","swim","674.1850000000559","","t","null","88","88","1","arctic-dual-task","","t","lowercase","564000","0","2","01d92d17ed0ea9d99d2bac6381808c7ee69318be66dd3daf29c6bf4568786f8d","564000.7500000005","674.1850000000559","88","1","arctic","","","","",""
"dual-task","null","null","null","","swim","swim","744.4199999999255","","b","null","88","88","1","arctic-dual-task","","b","lowercase","572000","0","2","01d92d17ed0ea9d99d2bac6381808c7ee69318be66dd3daf29c6bf4568786f8d","572000.7599999998","744.4199999999255","88","1","arctic","","","","",""
"dual-task","null","null","null","","swim","swim","643.9500000006519","","A","null","77","77","1","arctic-dual-task","","A","uppercase","582000","0","2","01d92d17ed0ea9d99d2bac6381808c7ee69318be66dd3daf29c6bf4568786f8d","582016.4450000003","643.9500000006519","77","1","arctic","","","","",""
"dual-task","null","null","null","","swim","swim","658.8299999991432","","f","null","88","88","1","arctic-dual-task","","f","lowercase","590000","0","2","01d92d17ed0ea9d99d2bac6381808c7ee69318be66dd3daf29c6bf4568786f8d","590000.8099999996","658.8299999991432","88","1","arctic","","","","",""
"dual-task","null","null","null","","swim","swim","545.7349999998696","","Q","null","77","77","1","arctic-dual-task","","Q","uppercase","596000","0","2","01d92d17ed0ea9d99d2bac6381808c7ee69318be66dd3daf29c6bf4568786f8d","596000.9250000003","545.7349999998696","77","1","arctic","","","","",""
"dual-task","null","null","null","","swim","swim","776.6099999998696","","N","null","77","77","1","arctic-dual-task","","N","uppercase","604000","0","2","01d92d17ed0ea9d99d2bac6381808c7ee69318be66dd3daf29c6bf4568786f8d","604000.5099999998","776.6099999998696","77","1","arctic","","","","",""
"dual-task","null","null","null","","swim","swim","555.9899999997579","","A","null","77","77","1","arctic-dual-task","","A","uppercase","612000","0","2","01d92d17ed0ea9d99d2bac6381808c7ee69318be66dd3daf29c6bf4568786f8d","612001.29","555.9899999997579","77","1","arctic","","","","",""
"dual-task","null","null","null","","swim","swim","729.4249999993481","","Q","null","77","77","1","arctic-dual-task","","Q","uppercase","624000","0","2","01d92d17ed0ea9d99d2bac6381808c7ee69318be66dd3daf29c6bf4568786f8d","624000.1949999998","729.4249999993481","77","1","arctic","","","","",""
"dual-task","null","null","null","","swim","swim","581.820000000298","","d","null","88","88","1","arctic-dual-task","","d","lowercase","632000","0","2","01d92d17ed0ea9d99d2bac6381808c7ee69318be66dd3daf29c6bf4568786f8d","632001.1400000006","581.820000000298","88","1","arctic","","","","",""
"dual-task","null","null","null","","swim","swim","753.179999999702","","b","null","88","88","1","arctic-dual-task","","b","lowercase","644000","0","2","01d92d17ed0ea9d99d2bac6381808c7ee69318be66dd3daf29c6bf4568786f8d","644000.6050000004","753.179999999702","88","1","arctic","","","","",""
"dual-task","null","null","null","","swim","swim","1234.640000000596","","q","null","88","88","1","arctic-dual-task","","q","lowercase","654000","0","2","01d92d17ed0ea9d99d2bac6381808c7ee69318be66dd3daf29c6bf4568786f8d","654000.6599999997","1234.640000000596","88","1","arctic","","","","",""
"dual-task","null","null","null","","swim","swim","618.3400000003166","","g","null","88","88","1","arctic-dual-task","","g","lowercase","664000","0","2","01d92d17ed0ea9d99d2bac6381808c7ee69318be66dd3daf29c6bf4568786f8d","664001.4499999997","618.3400000003166","88","1","arctic","","","","",""
"dual-task","null","null","null","","swim","swim","593.1499999994412","","a","null","88","88","1","arctic-dual-task","","a","lowercase","672000","0","2","01d92d17ed0ea9d99d2bac6381808c7ee69318be66dd3daf29c6bf4568786f8d","672000.7699999996","593.1499999994412","88","1","arctic","","","","",""
"dual-task","null","null","null","","swim","swim","601.1399999996647","","q","null","88","88","1","arctic-dual-task","","q","lowercase","678000","0","2","01d92d17ed0ea9d99d2bac6381808c7ee69318be66dd3daf29c6bf4568786f8d","678001.2049999996","601.1399999996647","88","1","arctic","","","","",""
"dual-task","null","null","null","","swim","swim","549.4850000008009","","D","null","77","77","1","arctic-dual-task","","D","uppercase","686000","0","2","01d92d17ed0ea9d99d2bac6381808c7ee69318be66dd3daf29c6bf4568786f8d","686000.8500000006","549.4850000008009","77","1","arctic","","","","",""
"dual-task","null","null","null","","swim","swim","618.0049999998882","","r","null","88","88","1","arctic-dual-task","","r","lowercase","698000","0","2","01d92d17ed0ea9d99d2bac6381808c7ee69318be66dd3daf29c6bf4568786f8d","698001.04","618.0049999998882","88","1","arctic","","","","",""
"dual-task","null","null","null","","swim","swim","589.0149999996647","","b","null","88","88","1","arctic-dual-task","","b","lowercase","712000","0","2","01d92d17ed0ea9d99d2bac6381808c7ee69318be66dd3daf29c6bf4568786f8d","712001.0000000005","589.0149999996647","88","1","arctic","","","","",""
"dual-task","null","null","null","","swim","swim","606.6650000000373","","H","null","77","77","1","arctic-dual-task","","H","uppercase","718000","0","2","01d92d17ed0ea9d99d2bac6381808c7ee69318be66dd3daf29c6bf4568786f8d","718000.3699999996","606.6650000000373","77","1","arctic","","","","",""
"dual-task","null","null","null","","swim","swim","577.5749999997206","","g","null","88","88","1","arctic-dual-task","","g","lowercase","732000","0","2","01d92d17ed0ea9d99d2bac6381808c7ee69318be66dd3daf29c6bf4568786f8d","732000.73","577.5749999997206","88","1","arctic","","","","",""
"dual-task","null","null","null","","swim","swim","550.3250000001863","","H","null","77","77","1","arctic-dual-task","","H","uppercase","738000","0","2","01d92d17ed0ea9d99d2bac6381808c7ee69318be66dd3daf29c6bf4568786f8d","738000.5300000003","550.3250000001863","77","1","arctic","","","","",""
"dual-task","null","null","null","","swim","swim","655.8000000002794","","r","null","88","88","1","arctic-dual-task","","r","lowercase","752000","0","2","01d92d17ed0ea9d99d2bac6381808c7ee69318be66dd3daf29c6bf4568786f8d","752000.4650000003","655.8000000002794","88","1","arctic","","","","",""
"dual-task","null","null","null","","swim","swim","538.8650000002235","","A","null","77","77","1","arctic-dual-task","","A","uppercase","760000","0","2","01d92d17ed0ea9d99d2bac6381808c7ee69318be66dd3daf29c6bf4568786f8d","760001.1450000005","538.8650000002235","77","1","arctic","","","","",""
"dual-task","null","null","null","","swim","swim","541.4700000002049","","N","null","77","77","1","arctic-dual-task","","N","uppercase","768000","0","2","01d92d17ed0ea9d99d2bac6381808c7ee69318be66dd3daf29c6bf4568786f8d","768000.625","541.4700000002049","77","1","arctic","","","","",""
"dual-task","null","null","null","","swim","swim","562.785000000149","","h","null","88","88","1","arctic-dual-task","","h","lowercase","780000","0","2","01d92d17ed0ea9d99d2bac6381808c7ee69318be66dd3daf29c6bf4568786f8d","780000.9650000003","562.785000000149","88","1","arctic","","","","",""
"audio-keyboard-response","62","2944099","0.0-7.0-2.0-1.0","01d92d17ed0ea9d99d2bac6381808c7ee69318be66dd3daf29c6bf4568786f8d","swim","swim","null","","audio/story_arctic.mp3","","null","","","","","","","","","","","","","","","","","","","",""
"html-button-response","63","2948163","0.0-7.0-2.0-2.0","01d92d17ed0ea9d99d2bac6381808c7ee69318be66dd3daf29c6bf4568786f8d","swim","swim","4062","","<p>This concludes the story. Thank you for listening.</p><p>You will now answer some questions about the content of the story.</p>","0","","","","","","","","","","","","","","","","","","","","",""
"survey-multi-choice","64","2954738","0.0-7.0-2.0-3.0-0.0","01d92d17ed0ea9d99d2bac6381808c7ee69318be66dd3daf29c6bf4568786f8d","swim","swim","6573","","<b>What was the objective of the narrator&#39;s expedition?</b>","","","","1","arctic-comprehension","","","","","","","","","","","","","{""Q0"":""Dogsled across Arctic America""}","","","",""
"survey-multi-choice","65","2958578","0.0-7.0-2.0-3.0-0.1","01d92d17ed0ea9d99d2bac6381808c7ee69318be66dd3daf29c6bf4568786f8d","swim","swim","3587","","<b>How did the dogs respond when they saw the bears?</b>","","","","1","arctic-comprehension","","","","","","","","","","","","","{""Q0"":""Approached them""}","","","",""
"survey-multi-choice","66","2964786","0.0-7.0-2.0-3.0-0.2","01d92d17ed0ea9d99d2bac6381808c7ee69318be66dd3daf29c6bf4568786f8d","swim","swim","5956","","<b>How did the narrator&#39;s encounter with the polar bears end?</b>","","","","1","arctic-comprehension","","","","","","","","","","","","","{""Q0"":""The bears walked back to their den.""}","","","",""
"survey-multi-choice","67","2973930","0.0-7.0-2.0-3.0-0.3","01d92d17ed0ea9d99d2bac6381808c7ee69318be66dd3daf29c6bf4568786f8d","swim","swim","8891","","<b>How did the narrator&#39;s neighbour respond when she told him about her expedition?</b>","","","","1","arctic-comprehension","","","","","","","","","","","","","{""Q0"":""He said she was going to fail.""}","","","",""
"survey-multi-choice","68","2978106","0.0-7.0-2.0-3.0-0.4","01d92d17ed0ea9d99d2bac6381808c7ee69318be66dd3daf29c6bf4568786f8d","swim","swim","3922","","<b>Which dog on the narrator&#39;s dog team never followed instructions?</b>","","","","1","arctic-comprehension","","","","","","","","","","","","","{""Q0"":""Robert""}","","","",""
"survey-multi-choice","69","2981274","0.0-7.0-2.0-3.0-0.5","01d92d17ed0ea9d99d2bac6381808c7ee69318be66dd3daf29c6bf4568786f8d","swim","swim","2913","","<b>What is the name of the narrator&#39;s neighbour?</b>","","","","1","arctic-comprehension","","","","","","","","","","","","","{""Q0"":""Dave""}","","","",""
"survey-multi-choice","70","2984250","0.0-7.0-2.0-3.0-0.6","01d92d17ed0ea9d99d2bac6381808c7ee69318be66dd3daf29c6bf4568786f8d","swim","swim","2724","","<b>How many sponsorships did the narrator receive to support her expedition?</b>","","","","1","arctic-comprehension","","","","","","","","","","","","","{""Q0"":""None""}","","","",""
"survey-multi-choice","71","2989970","0.0-7.0-2.0-3.0-0.7","01d92d17ed0ea9d99d2bac6381808c7ee69318be66dd3daf29c6bf4568786f8d","swim","swim","5467","","<b>How did the narrator prepare for her expedition?</b>","","","","1","arctic-comprehension","","","","","","","","","","","","","{""Q0"":""Trained in Alaska learning how to dogsled""}","","","",""
"survey-multi-choice","72","2995306","0.0-7.0-2.0-3.0-0.8","01d92d17ed0ea9d99d2bac6381808c7ee69318be66dd3daf29c6bf4568786f8d","swim","swim","5081","","<b>What were the weather conditions in the Arctic like the winter of the narrator&#39;s expedition?</b>","","","","1","arctic-comprehension","","","","","","","","","","","","","{""Q0"":""There were more storms than any other winter in recorded history.""}","","","",""
"survey-multi-choice","73","2998938","0.0-7.0-2.0-3.0-0.9","01d92d17ed0ea9d99d2bac6381808c7ee69318be66dd3daf29c6bf4568786f8d","swim","swim","3379","","<b>What did the narrator do for leisure while in her tent?</b>","","","","1","arctic-comprehension","","","","","","","","","","","","","{""Q0"":""Read""}","","","",""
"html-button-response","74","3000354","0.0-7.0-2.0-4.0","01d92d17ed0ea9d99d2bac6381808c7ee69318be66dd3daf29c6bf4568786f8d","swim","swim","1163","","<p>Thank you for your responses.</p><p>You will now answer some questions about your impressions of the story.</p>","0","","","","","","","","","","","","","","","","","","","","",""
"html-button-response","75","3002346","0.0-7.0-2.0-5.0-0.0","01d92d17ed0ea9d99d2bac6381808c7ee69318be66dd3daf29c6bf4568786f8d","swim","swim","1991","","E7","5","","","","arctic-engagement","","","","","","","","","","","","","","6","enjoyment","",""
"html-button-response","76","3004794","0.0-7.0-2.0-5.0-0.1","01d92d17ed0ea9d99d2bac6381808c7ee69318be66dd3daf29c6bf4568786f8d","swim","swim","2195","","EE2","5","","","","arctic-engagement","","","","","","","","","","","","","","6","emo-engage","",""
"html-button-response","77","3006363","0.0-7.0-2.0-5.0-0.2","01d92d17ed0ea9d99d2bac6381808c7ee69318be66dd3daf29c6bf4568786f8d","swim","swim","1316","","EE5","5","","","","arctic-engagement","","","","","","","","","","","","","","6","emo-engage","",""
"html-button-response","78","3009090","0.0-7.0-2.0-5.0-0.3","01d92d17ed0ea9d99d2bac6381808c7ee69318be66dd3daf29c6bf4568786f8d","swim","swim","2476","","A5","3","","","","arctic-engagement","","","","","","","","","","","","","","4","absorption","",""
"html-button-response","79","3010475","0.0-7.0-2.0-5.0-0.4","01d92d17ed0ea9d99d2bac6381808c7ee69318be66dd3daf29c6bf4568786f8d","swim","swim","1133","","E1","4","","","","arctic-engagement","","","","","","","","","","","","","","5","enjoyment","",""
"html-button-response","80","3012434","0.0-7.0-2.0-5.0-0.5","01d92d17ed0ea9d99d2bac6381808c7ee69318be66dd3daf29c6bf4568786f8d","swim","swim","1707","","EE3","5","","","","arctic-engagement","","","","","","","","","","","","","","6","emo-engage","",""
"html-button-response","81","3014226","0.0-7.0-2.0-5.0-0.6","01d92d17ed0ea9d99d2bac6381808c7ee69318be66dd3daf29c6bf4568786f8d","swim","swim","1541","","E8","4","","","","arctic-engagement","","","","","","","","","","","","","","5","enjoyment","",""
"html-button-response","82","3016459","0.0-7.0-2.0-5.0-0.7","01d92d17ed0ea9d99d2bac6381808c7ee69318be66dd3daf29c6bf4568786f8d","swim","swim","1981","","E10","5","","","","arctic-engagement","","","","","","","","","","","","","","6","enjoyment","",""
"html-button-response","83","3018499","0.0-7.0-2.0-5.0-0.8","01d92d17ed0ea9d99d2bac6381808c7ee69318be66dd3daf29c6bf4568786f8d","swim","swim","1787","","A3","4","","","","arctic-engagement","","","","","","","","","","","","","","5","absorption","",""
"html-button-response","84","3024194","0.0-7.0-2.0-5.0-0.9","01d92d17ed0ea9d99d2bac6381808c7ee69318be66dd3daf29c6bf4568786f8d","swim","swim","5444","","A1","3","","","","arctic-engagement","","","","","","","","","","","","","","4","absorption","",""
"html-button-response","85","3027786","0.0-7.0-2.0-5.0-0.10","01d92d17ed0ea9d99d2bac6381808c7ee69318be66dd3daf29c6bf4568786f8d","swim","swim","3339","","MS2","5","","","","arctic-engagement","","","","","","","","","","","","","","6","mental-sim","",""
"html-button-response","86","3031770","0.0-7.0-2.0-5.0-0.11","01d92d17ed0ea9d99d2bac6381808c7ee69318be66dd3daf29c6bf4568786f8d","swim","swim","3731","","EE1","4","","","","arctic-engagement","","","","","","","","","","","","","","5","emo-engage","",""
"html-button-response","87","3033786","0.0-7.0-2.0-5.0-0.12","01d92d17ed0ea9d99d2bac6381808c7ee69318be66dd3daf29c6bf4568786f8d","swim","swim","1762","","EE4","5","","","","arctic-engagement","","","","","","","","","","","","","","6","emo-engage","",""
"html-button-response","88","3039002","0.0-7.0-2.0-5.0-0.13","01d92d17ed0ea9d99d2bac6381808c7ee69318be66dd3daf29c6bf4568786f8d","swim","swim","4963","","MS3","5","","","","arctic-engagement","","","","","","","","","","","","","","6","mental-sim","",""
"html-button-response","89","3045378","0.0-7.0-2.0-5.0-0.14","01d92d17ed0ea9d99d2bac6381808c7ee69318be66dd3daf29c6bf4568786f8d","swim","swim","6123","","A2","4","","","","arctic-engagement","","","","","","","","","","","","","","5","absorption","",""
"html-button-response","90","3048322","0.0-7.0-2.0-5.0-0.15","01d92d17ed0ea9d99d2bac6381808c7ee69318be66dd3daf29c6bf4568786f8d","swim","swim","2691","","MS1","5","","","","arctic-engagement","","","","","","","","","","","","","","6","mental-sim","",""
"html-button-response","91","3052771","0.0-7.0-2.0-5.0-0.16","01d92d17ed0ea9d99d2bac6381808c7ee69318be66dd3daf29c6bf4568786f8d","swim","swim","4196","","A4","3","","","","arctic-engagement","","","","","","","","","","","","","","4","absorption","",""
"html-button-response","92","3054410","0.0-7.0-2.0-5.0-0.17","01d92d17ed0ea9d99d2bac6381808c7ee69318be66dd3daf29c6bf4568786f8d","swim","swim","1386","","E6","4","","","","arctic-engagement","","","","","","","","","","","","","","5","enjoyment","",""
"html-button-response","93","3055954","0.0-8.0","01d92d17ed0ea9d99d2bac6381808c7ee69318be66dd3daf29c6bf4568786f8d","swim","swim","1292","","<p>Thank you for your responses.</p><p>You will now answer some demographic, hearing, and general health questions.</p>","0","","","","","","","","","","","","","","","","","","","","",""
"survey-multi-choice","94","3058986","0.0-9.0-0.0","01d92d17ed0ea9d99d2bac6381808c7ee69318be66dd3daf29c6bf4568786f8d","swim","swim","3030","","","","","","","survey","","","","","","","","","","","","","{""Q0"":""Chrome""}","","","browser",""
"survey-text","95","3062146","0.0-9.0-1.0","01d92d17ed0ea9d99d2bac6381808c7ee69318be66dd3daf29c6bf4568786f8d","swim","swim","2906.0049999998882","","","","","","","survey","","","","","","","","","","","","","{""AGE"":""38""}","","","age","38"
"survey-multi-choice","96","3064041","0.0-9.0-2.0","01d92d17ed0ea9d99d2bac6381808c7ee69318be66dd3daf29c6bf4568786f8d","swim","swim","1640","","","","","","","survey","","","","","","","","","","","","","{""Q0"":""Male""}","","","gender","Male"
"survey-multi-choice","97","3065793","0.0-9.0-4.0","01d92d17ed0ea9d99d2bac6381808c7ee69318be66dd3daf29c6bf4568786f8d","swim","swim","1498","","","","","","","survey","","","","","","","","","","","","","{""Q0"":""Left""}","","","handedness","Left"
"survey-multi-choice","98","3067777","0.0-9.0-5.0","01d92d17ed0ea9d99d2bac6381808c7ee69318be66dd3daf29c6bf4568786f8d","swim","swim","1731","","","","","","","survey","","","","","","","","","","","","","{""Q0"":""Bachelor's Degree""}","","","education","Bachelor's Degree"
"survey-text","99","3070017","0.0-10.0-0.0","01d92d17ed0ea9d99d2bac6381808c7ee69318be66dd3daf29c6bf4568786f8d","swim","swim","1983.3150000004098","","","","","","","survey","","","","","","","","","","","","","{""L1"":""English""}","","","first-language","English"
"survey-text","100","3079657","0.0-10.0-1.0","01d92d17ed0ea9d99d2bac6381808c7ee69318be66dd3daf29c6bf4568786f8d","swim","swim","9367.639999999665","","","","","","","survey","","","","","","","","","","","","","{""L2name"":""Spanish"",""L2fluency"":""4"",""L3name"":"""",""L3fluency"":"""",""L4name"":"""",""L4fluency"":""""}","","","additional-languages","{""L2name"":""Spanish"",""L2fluency"":""4"",""L3name"":"""",""L3fluency"":"""",""L4name"":"""",""L4fluency"":""""}"
"survey-multi-choice","101","3083753","0.0-10.0-2.0","01d92d17ed0ea9d99d2bac6381808c7ee69318be66dd3daf29c6bf4568786f8d","swim","swim","3841","","","","","","","survey","","","","","","","","","","","","","{""Q0"":""No""}","","","hearing-aid","No"
"survey-multi-choice","102","3086008","0.0-10.0-3.0","01d92d17ed0ea9d99d2bac6381808c7ee69318be66dd3daf29c6bf4568786f8d","swim","swim","2002","","","","","","","survey","","","","","","","","","","","","","{""Q0"":""Never""}","","","ringing-ears","Never"
"survey-multi-choice","103","3088337","0.0-10.0-5.0","01d92d17ed0ea9d99d2bac6381808c7ee69318be66dd3daf29c6bf4568786f8d","swim","swim","2076","","","","","","","survey","","","","","","","","","","","","","{""Q0"":""No""}","","","neuro-disease","No"
"survey-multi-choice","104","3093977","0.0-10.0-7.0","01d92d17ed0ea9d99d2bac6381808c7ee69318be66dd3daf29c6bf4568786f8d","swim","swim","5388","","","","","","","survey","","","","","","","","","","","","","{""Q0"":""No""}","","","take-meds","No"
"survey-text","105","3099736","0.0-10.0-9.0","01d92d17ed0ea9d99d2bac6381808c7ee69318be66dd3daf29c6bf4568786f8d","swim","swim","5501.570000000298","","","","","","","survey","","","","","","","","","","","","","{""HC"":""n""}","","","health-concerns","n"
"html-button-response","106","3103489","0.0-11.0-0.0","01d92d17ed0ea9d99d2bac6381808c7ee69318be66dd3daf29c6bf4568786f8d","swim","swim","3499","","<p>How would you describe your musical skills/experiences?</p>","2","","","","survey","","","","","","","","","","","","","","","","music-skill","3"
"survey-multi-choice","107","3105432","0.0-11.0-1.0","01d92d17ed0ea9d99d2bac6381808c7ee69318be66dd3daf29c6bf4568786f8d","swim","swim","1691","","","","","","","survey","","","","","","","","","","","","","{""Q0"":""No""}","","","music-instrument","No"
"html-button-response","108","3108129","0.0-12.0-0.0","01d92d17ed0ea9d99d2bac6381808c7ee69318be66dd3daf29c6bf4568786f8d","swim","swim","2445","","<p>How would you describe your general hearing abilities?</p>","4","","","","survey","","","","","","","","","","","","","","","","ssq-01","5"
"html-button-response","109","3115961","0.0-12.0-1.0","01d92d17ed0ea9d99d2bac6381808c7ee69318be66dd3daf29c6bf4568786f8d","swim","swim","7579","","<p>When you talk with someone at a place that strongly reverberates/echoes (e.g., in a church or train station),</br>can you understand what the person says?</p>","8","","","","survey","","","","","","","","","","","","","","","","ssq-02","8"
"html-button-response","110","3118464","0.0-12.0-2.0","01d92d17ed0ea9d99d2bac6381808c7ee69318be66dd3daf29c6bf4568786f8d","swim","swim","2250","","<p>When you are with a group (~5 people) in a lively restaurant, can you follow the group's conversation?</p>","9","","","","survey","","","","","","","","","","","","","","","","ssq-03","9"
"html-button-response","111","3122689","0.0-12.0-3.0","01d92d17ed0ea9d99d2bac6381808c7ee69318be66dd3daf29c6bf4568786f8d","swim","swim","3972","","<p>Based on the sound of a bus or truck, can you tell whether it is moving towards or away from you?</p>","9","","","","survey","","","","","","","","","","","","","","","","ssq-04","9"
"html-button-response","112","3125920","0.0-12.0-4.0","01d92d17ed0ea9d99d2bac6381808c7ee69318be66dd3daf29c6bf4568786f8d","swim","swim","2978","","<p>When you are in an unknown environment, can you tell from which direction a brief sound originates?</p>","8","","","","survey","","","","","","","","","","","","","","","","ssq-05","8"
"html-button-response","113","3128305","0.0-12.0-5.0","01d92d17ed0ea9d99d2bac6381808c7ee69318be66dd3daf29c6bf4568786f8d","swim","swim","2132","","<p>Are you able to ignore distracting sounds when you concentrate on a specific aspect of your acoustic surrounding?</p>","8","","","","survey","","","","","","","","","","","","","","","","ssq-06","8"
"fullscreen","114","3129558","0.0-13.0","01d92d17ed0ea9d99d2bac6381808c7ee69318be66dd3daf29c6bf4568786f8d","swim","swim","","","","","","","","","true","","","","","","","","","","","","","","","",""
