"trial_type","trial_index","time_elapsed","internal_node_id","ParticipantID","firstStory","scramStory","rt","url","stimulus","button_pressed","key_press","correctRESP","correct","designation","success","letterStim","letterType","ONSET","TIMEOUT","CONDITION","Participant","ONSET_ACTUAL","RT","RESP","ACC","STORY","responses","response","type","surveyQuestion","QRESP"
"pavlovia","0","1","0.0-0.0","5fb4bf192bd9d1d91b3e7d1043836877d2f4d5f1f1dbdbef5f74f6ba6412611a","arctic","arctic","","","","","","","","","","","","","","","","","","","","","","","","",""
"external-html","1","2646","0.0-1.0","5fb4bf192bd9d1d91b3e7d1043836877d2f4d5f1f1dbdbef5f74f6ba6412611a","arctic","arctic","2616","consent/consent_updated.html","","","","","","","","","","","","","","","","","","","","","","",""
"html-button-response","2","3685","0.0-2.0-0.0","5fb4bf192bd9d1d91b3e7d1043836877d2f4d5f1f1dbdbef5f74f6ba6412611a","arctic","arctic","1038","","<p>Before we begin the main task, you will complete a short volume calibration and headphone check.</p><p>Please make sure you are in a quiet listening environment, that you are wearing headphones, and that your computer's volume is turned on.<p></p>","0","","","","","","","","","","","","","","","","","","","","",""
"html-button-response","3","4804","0.0-2.0-1.0","5fb4bf192bd9d1d91b3e7d1043836877d2f4d5f1f1dbdbef5f74f6ba6412611a","arctic","arctic","868","","<p>The volume calibration will be first.</p><p>You will hear a thirty-second noise. Please adjust your computer's volume so that this noise is being presented at a comfortable level.<p></p>","0","","","","","","","","","","","","","","","","","","","","",""
"audio-button-response","4","9491","0.0-2.0-2.0","5fb4bf192bd9d1d91b3e7d1043836877d2f4d5f1f1dbdbef5f74f6ba6412611a","arctic","arctic","4435","","audio/volumetest.mp3","0","","","","","","","","","","","","","","","","","","","","",""
"html-keyboard-response","5","11000","0.0-3.0-0.0","5fb4bf192bd9d1d91b3e7d1043836877d2f4d5f1f1dbdbef5f74f6ba6412611a","arctic","arctic","1508","","<p>You will now complete a short headphone check.</p><p>On each trial, you will hear three tones. One of these tones will be quieter than the others. Your task is to identify whether the quiet tone occurred first, second, or third.</p><p>There are six trials in total.<p></p><p></p>(Press SPACEBAR to begin)","","32","","","","","","","","","","","","","","","","","","","",""
"html-keyboard-response","6","11752","0.0-3.0-1.0-0.0","5fb4bf192bd9d1d91b3e7d1043836877d2f4d5f1f1dbdbef5f74f6ba6412611a","arctic","arctic","null","","<div style=""font-size:60px;"">+</div>","","null","","","","","","","","","","","","","","","","","","","",""
"audio-button-response","7","16013","0.0-3.0-1.0-1.0","5fb4bf192bd9d1d91b3e7d1043836877d2f4d5f1f1dbdbef5f74f6ba6412611a","arctic","arctic","4259","","audio/t2_2.mp3","1","","1","1","headphone-test","","","","","","","","","","","","","","","","",""
"html-keyboard-response","8","16514","0.0-3.0-1.0-2.0","5fb4bf192bd9d1d91b3e7d1043836877d2f4d5f1f1dbdbef5f74f6ba6412611a","arctic","arctic","null","","<p>Correct</p>","","null","","","","","","","","","","","","","","","","","","","",""
"html-keyboard-response","9","17014","0.0-3.0-1.0-0.1","5fb4bf192bd9d1d91b3e7d1043836877d2f4d5f1f1dbdbef5f74f6ba6412611a","arctic","arctic","null","","<div style=""font-size:60px;"">+</div>","","null","","","","","","","","","","","","","","","","","","","",""
"audio-button-response","10","21344","0.0-3.0-1.0-1.1","5fb4bf192bd9d1d91b3e7d1043836877d2f4d5f1f1dbdbef5f74f6ba6412611a","arctic","arctic","4330","","audio/t2_1.mp3","1","","1","1","headphone-test","","","","","","","","","","","","","","","","",""
"html-keyboard-response","11","21845","0.0-3.0-1.0-2.1","5fb4bf192bd9d1d91b3e7d1043836877d2f4d5f1f1dbdbef5f74f6ba6412611a","arctic","arctic","null","","<p>Correct</p>","","null","","","","","","","","","","","","","","","","","","","",""
"html-keyboard-response","12","22347","0.0-3.0-1.0-0.2","5fb4bf192bd9d1d91b3e7d1043836877d2f4d5f1f1dbdbef5f74f6ba6412611a","arctic","arctic","null","","<div style=""font-size:60px;"">+</div>","","null","","","","","","","","","","","","","","","","","","","",""
"audio-button-response","13","26369","0.0-3.0-1.0-1.2","5fb4bf192bd9d1d91b3e7d1043836877d2f4d5f1f1dbdbef5f74f6ba6412611a","arctic","arctic","4022","","audio/t3_1.mp3","2","","2","1","headphone-test","","","","","","","","","","","","","","","","",""
"html-keyboard-response","14","26870","0.0-3.0-1.0-2.2","5fb4bf192bd9d1d91b3e7d1043836877d2f4d5f1f1dbdbef5f74f6ba6412611a","arctic","arctic","null","","<p>Correct</p>","","null","","","","","","","","","","","","","","","","","","","",""
"html-keyboard-response","15","27370","0.0-3.0-1.0-0.3","5fb4bf192bd9d1d91b3e7d1043836877d2f4d5f1f1dbdbef5f74f6ba6412611a","arctic","arctic","null","","<div style=""font-size:60px;"">+</div>","","null","","","","","","","","","","","","","","","","","","","",""
"audio-button-response","16","31486","0.0-3.0-1.0-1.3","5fb4bf192bd9d1d91b3e7d1043836877d2f4d5f1f1dbdbef5f74f6ba6412611a","arctic","arctic","4115","","audio/t1_2.mp3","0","","0","1","headphone-test","","","","","","","","","","","","","","","","",""
"html-keyboard-response","17","31988","0.0-3.0-1.0-2.3","5fb4bf192bd9d1d91b3e7d1043836877d2f4d5f1f1dbdbef5f74f6ba6412611a","arctic","arctic","null","","<p>Correct</p>","","null","","","","","","","","","","","","","","","","","","","",""
"html-keyboard-response","18","32489","0.0-3.0-1.0-0.4","5fb4bf192bd9d1d91b3e7d1043836877d2f4d5f1f1dbdbef5f74f6ba6412611a","arctic","arctic","null","","<div style=""font-size:60px;"">+</div>","","null","","","","","","","","","","","","","","","","","","","",""
"audio-button-response","19","36531","0.0-3.0-1.0-1.4","5fb4bf192bd9d1d91b3e7d1043836877d2f4d5f1f1dbdbef5f74f6ba6412611a","arctic","arctic","4041","","audio/t3_2.mp3","2","","2","1","headphone-test","","","","","","","","","","","","","","","","",""
"html-keyboard-response","20","37032","0.0-3.0-1.0-2.4","5fb4bf192bd9d1d91b3e7d1043836877d2f4d5f1f1dbdbef5f74f6ba6412611a","arctic","arctic","null","","<p>Correct</p>","","null","","","","","","","","","","","","","","","","","","","",""
"html-keyboard-response","21","37532","0.0-3.0-1.0-0.5","5fb4bf192bd9d1d91b3e7d1043836877d2f4d5f1f1dbdbef5f74f6ba6412611a","arctic","arctic","null","","<div style=""font-size:60px;"">+</div>","","null","","","","","","","","","","","","","","","","","","","",""
"audio-button-response","22","41849","0.0-3.0-1.0-1.5","5fb4bf192bd9d1d91b3e7d1043836877d2f4d5f1f1dbdbef5f74f6ba6412611a","arctic","arctic","4315","","audio/t1_1.mp3","0","","0","1","headphone-test","","","","","","","","","","","","","","","","",""
"html-keyboard-response","23","42350","0.0-3.0-1.0-2.5","5fb4bf192bd9d1d91b3e7d1043836877d2f4d5f1f1dbdbef5f74f6ba6412611a","arctic","arctic","null","","<p>Correct</p>","","null","","","","","","","","","","","","","","","","","","","",""
"fullscreen","24","44355","0.0-4.0","5fb4bf192bd9d1d91b3e7d1043836877d2f4d5f1f1dbdbef5f74f6ba6412611a","arctic","arctic","","","","","","","","","true","","","","","","","","","","","","","","","",""
"html-button-response","25","62817","0.0-5.0-0.0","5fb4bf192bd9d1d91b3e7d1043836877d2f4d5f1f1dbdbef5f74f6ba6412611a","arctic","arctic","18461","","<p>There are two blocks to this experiment.</p><p>In each block, you will hear a ~13.5 minute story. One of the stories will be scrambled. Please listen carefully to both stories and understand them as best you can.</p><p>After each story, you will be asked some questions to assess your comprehension.</p>","0","","","","","","","","","","","","","","","","","","","","",""
"html-button-response","26","132991","0.0-5.0-1.0","5fb4bf192bd9d1d91b3e7d1043836877d2f4d5f1f1dbdbef5f74f6ba6412611a","arctic","arctic","70173","","<p>During each story, there will be an additional task.</p><p>A letter will occasionally appear on the screen.</br>Your job is to - as quickly as you can - decide whether the letter is lowercase or uppercase and press one of two keys on the keyboard:</p><p>If the letter is <b>lowercase</b>, press key &lt;<b>x</b>&gt;.</p><p>If the letter is <b>uppercase</b>, press key &lt;<b>m</b>&gt;.</p>","0","","","","","","","","","","","","","","","","","","","","",""
"html-keyboard-response","27","134501","0.0-5.0-2.0","5fb4bf192bd9d1d91b3e7d1043836877d2f4d5f1f1dbdbef5f74f6ba6412611a","arctic","arctic","1510","","<p>Because we want your responses to be as quick as possible, please keep your index fingers over the keys while listening.</p><p>Each block lasts about 20 minutes.</p><p><b>Press &lt;x&gt; or &lt;m&gt; to start the first block!</b></p>","","88","","","","","","","","","","","","","","","","","","","",""
"html-keyboard-response","28","135001","0.0-6.0-0.0-0.0","5fb4bf192bd9d1d91b3e7d1043836877d2f4d5f1f1dbdbef5f74f6ba6412611a","arctic","arctic","null","","<div style=""font-size:60px;"" tabindex=""0"">+</div>","","null","","","","","","","","","","","","","","","","","","","",""
"dual-task","null","null","null","","arctic","arctic","493.59999990463257","","T","null","77","77","1","arctic-dual-task","","T","uppercase","12000","0","6","5fb4bf192bd9d1d91b3e7d1043836877d2f4d5f1f1dbdbef5f74f6ba6412611a","12001.599999904633","493.59999990463257","77","1","arctic","","","","",""
"dual-task","null","null","null","","arctic","arctic","544.7000000476837","","d","null","88","88","1","arctic-dual-task","","d","lowercase","24000","0","6","5fb4bf192bd9d1d91b3e7d1043836877d2f4d5f1f1dbdbef5f74f6ba6412611a","24000.699999809265","544.7000000476837","88","1","arctic","","","","",""
"dual-task","null","null","null","","arctic","arctic","438.2999999523163","","D","null","77","77","1","arctic-dual-task","","D","uppercase","36000","0","6","5fb4bf192bd9d1d91b3e7d1043836877d2f4d5f1f1dbdbef5f74f6ba6412611a","36000.89999985695","438.2999999523163","77","1","arctic","","","","",""
"dual-task","null","null","null","","arctic","arctic","459.59999990463257","","F","null","77","77","1","arctic-dual-task","","F","uppercase","46000","0","6","5fb4bf192bd9d1d91b3e7d1043836877d2f4d5f1f1dbdbef5f74f6ba6412611a","46001.299999952316","459.59999990463257","77","1","arctic","","","","",""
"dual-task","null","null","null","","arctic","arctic","789.2000000476837","","r","null","88","88","1","arctic-dual-task","","r","lowercase","60000","0","6","5fb4bf192bd9d1d91b3e7d1043836877d2f4d5f1f1dbdbef5f74f6ba6412611a","60000.59999990463","789.2000000476837","88","1","arctic","","","","",""
"dual-task","null","null","null","","arctic","arctic","898.2000000476837","","G","null","77","77","1","arctic-dual-task","","G","uppercase","70000","0","6","5fb4bf192bd9d1d91b3e7d1043836877d2f4d5f1f1dbdbef5f74f6ba6412611a","70000.09999990463","898.2000000476837","77","1","arctic","","","","",""
"dual-task","null","null","null","","arctic","arctic","1810.9000000953674","","a","null","88","88","1","arctic-dual-task","","a","lowercase","82000","0","6","5fb4bf192bd9d1d91b3e7d1043836877d2f4d5f1f1dbdbef5f74f6ba6412611a","81999.79999995232","1810.9000000953674","88","1","arctic","","","","",""
"dual-task","null","null","null","","arctic","arctic","597.8999998569489","","F","null","77","77","1","arctic-dual-task","","F","uppercase","92000","0","6","5fb4bf192bd9d1d91b3e7d1043836877d2f4d5f1f1dbdbef5f74f6ba6412611a","92000.19999980927","597.8999998569489","77","1","arctic","","","","",""
"dual-task","null","null","null","","arctic","arctic","448.89999985694885","","T","null","77","77","1","arctic-dual-task","","T","uppercase","104000","0","6","5fb4bf192bd9d1d91b3e7d1043836877d2f4d5f1f1dbdbef5f74f6ba6412611a","104000.79999995232","448.89999985694885","77","1","arctic","","","","",""
"dual-task","null","null","null","","arctic","arctic","428.09999990463257","","b","null","88","88","1","arctic-dual-task","","b","lowercase","112000","0","6","5fb4bf192bd9d1d91b3e7d1043836877d2f4d5f1f1dbdbef5f74f6ba6412611a","111999.69999980927","428.09999990463257","88","1","arctic","","","","",""
"dual-task","null","null","null","","arctic","arctic","456.7000000476837","","d","null","88","88","1","arctic-dual-task","","d","lowercase","120000","0","6","5fb4bf192bd9d1d91b3e7d1043836877d2f4d5f1f1dbdbef5f74f6ba6412611a","120001","456.7000000476837","88","1","arctic","","","","",""
"dual-task","null","null","null","","arctic","arctic","396.19999980926514","","B","null","77","77","1","arctic-dual-task","","B","uppercase","130000","0","6","5fb4bf192bd9d1d91b3e7d1043836877d2f4d5f1f1dbdbef5f74f6ba6412611a","130000.89999985695","396.19999980926514","77","1","arctic","","","","",""
"dual-task","null","null","null","","arctic","arctic","419.7999999523163","","N","null","77","77","1","arctic-dual-task","","N","uppercase","136000","0","6","5fb4bf192bd9d1d91b3e7d1043836877d2f4d5f1f1dbdbef5f74f6ba6412611a","135999.89999985695","419.7999999523163","77","1","arctic","","","","",""
"dual-task","null","null","null","","arctic","arctic","562.6000001430511","","n","null","88","88","1","arctic-dual-task","","n","lowercase","144000","0","6","5fb4bf192bd9d1d91b3e7d1043836877d2f4d5f1f1dbdbef5f74f6ba6412611a","144000.09999990463","562.6000001430511","88","1","arctic","","","","",""
"dual-task","null","null","null","","arctic","arctic","527.2999999523163","","t","null","88","88","1","arctic-dual-task","","t","lowercase","158000","0","6","5fb4bf192bd9d1d91b3e7d1043836877d2f4d5f1f1dbdbef5f74f6ba6412611a","158000.79999995232","527.2999999523163","88","1","arctic","","","","",""
"dual-task","null","null","null","","arctic","arctic","445.19999980926514","","h","null","88","88","1","arctic-dual-task","","h","lowercase","168000","0","6","5fb4bf192bd9d1d91b3e7d1043836877d2f4d5f1f1dbdbef5f74f6ba6412611a","168000.89999985695","445.19999980926514","88","1","arctic","","","","",""
"dual-task","null","null","null","","arctic","arctic","518.5","","E","null","77","77","1","arctic-dual-task","","E","uppercase","178000","0","6","5fb4bf192bd9d1d91b3e7d1043836877d2f4d5f1f1dbdbef5f74f6ba6412611a","178000.59999990463","518.5","77","1","arctic","","","","",""
"dual-task","null","null","null","","arctic","arctic","444.7000000476837","","H","null","77","77","1","arctic-dual-task","","H","uppercase","188000","0","6","5fb4bf192bd9d1d91b3e7d1043836877d2f4d5f1f1dbdbef5f74f6ba6412611a","188000.19999980927","444.7000000476837","77","1","arctic","","","","",""
"dual-task","null","null","null","","arctic","arctic","404.7000000476837","","R","null","77","77","1","arctic-dual-task","","R","uppercase","202000","0","6","5fb4bf192bd9d1d91b3e7d1043836877d2f4d5f1f1dbdbef5f74f6ba6412611a","202000.09999990463","404.7000000476837","77","1","arctic","","","","",""
"dual-task","null","null","null","","arctic","arctic","563.2000000476837","","g","null","88","88","1","arctic-dual-task","","g","lowercase","214000","0","6","5fb4bf192bd9d1d91b3e7d1043836877d2f4d5f1f1dbdbef5f74f6ba6412611a","214000.59999990463","563.2000000476837","88","1","arctic","","","","",""
"dual-task","null","null","null","","arctic","arctic","938.6000001430511","","H","null","77","77","1","arctic-dual-task","","H","uppercase","220000","0","6","5fb4bf192bd9d1d91b3e7d1043836877d2f4d5f1f1dbdbef5f74f6ba6412611a","220000.29999995232","938.6000001430511","77","1","arctic","","","","",""
"dual-task","null","null","null","","arctic","arctic","463.2000000476837","","A","null","77","77","1","arctic-dual-task","","A","uppercase","232000","0","6","5fb4bf192bd9d1d91b3e7d1043836877d2f4d5f1f1dbdbef5f74f6ba6412611a","232000.69999980927","463.2000000476837","77","1","arctic","","","","",""
"dual-task","null","null","null","","arctic","arctic","409.7999999523163","","R","null","77","77","1","arctic-dual-task","","R","uppercase","240000","0","6","5fb4bf192bd9d1d91b3e7d1043836877d2f4d5f1f1dbdbef5f74f6ba6412611a","240001","409.7999999523163","77","1","arctic","","","","",""
"dual-task","null","null","null","","arctic","arctic","454.7000000476837","","b","null","88","88","1","arctic-dual-task","","b","lowercase","248000","0","6","5fb4bf192bd9d1d91b3e7d1043836877d2f4d5f1f1dbdbef5f74f6ba6412611a","248001.19999980927","454.7000000476837","88","1","arctic","","","","",""
"dual-task","null","null","null","","arctic","arctic","394.39999985694885","","E","null","77","77","1","arctic-dual-task","","E","uppercase","258000","0","6","5fb4bf192bd9d1d91b3e7d1043836877d2f4d5f1f1dbdbef5f74f6ba6412611a","258000.69999980927","394.39999985694885","77","1","arctic","","","","",""
"dual-task","null","null","null","","arctic","arctic","491.60000014305115","","q","null","88","88","1","arctic-dual-task","","q","lowercase","270000","0","6","5fb4bf192bd9d1d91b3e7d1043836877d2f4d5f1f1dbdbef5f74f6ba6412611a","270001.09999990463","491.60000014305115","88","1","arctic","","","","",""
"dual-task","null","null","null","","arctic","arctic","782.7000000476837","","R","null","77","77","1","arctic-dual-task","","R","uppercase","282000","0","6","5fb4bf192bd9d1d91b3e7d1043836877d2f4d5f1f1dbdbef5f74f6ba6412611a","282000.19999980927","782.7000000476837","77","1","arctic","","","","",""
"dual-task","null","null","null","","arctic","arctic","488.7000000476837","","f","null","88","88","1","arctic-dual-task","","f","lowercase","292000","0","6","5fb4bf192bd9d1d91b3e7d1043836877d2f4d5f1f1dbdbef5f74f6ba6412611a","292000.5","488.7000000476837","88","1","arctic","","","","",""
"dual-task","null","null","null","","arctic","arctic","427.80000019073486","","q","null","88","88","1","arctic-dual-task","","q","lowercase","300000","0","6","5fb4bf192bd9d1d91b3e7d1043836877d2f4d5f1f1dbdbef5f74f6ba6412611a","300000.59999990463","427.80000019073486","88","1","arctic","","","","",""
"dual-task","null","null","null","","arctic","arctic","476.2000000476837","","N","null","77","77","1","arctic-dual-task","","N","uppercase","306000","0","6","5fb4bf192bd9d1d91b3e7d1043836877d2f4d5f1f1dbdbef5f74f6ba6412611a","306000.2999999523","476.2000000476837","77","1","arctic","","","","",""
"dual-task","null","null","null","","arctic","arctic","436.39999985694885","","n","null","88","88","1","arctic-dual-task","","n","lowercase","312000","0","6","5fb4bf192bd9d1d91b3e7d1043836877d2f4d5f1f1dbdbef5f74f6ba6412611a","312000.39999985695","436.39999985694885","88","1","arctic","","","","",""
"dual-task","null","null","null","","arctic","arctic","438.90000009536743","","B","null","77","77","1","arctic-dual-task","","B","uppercase","318000","0","6","5fb4bf192bd9d1d91b3e7d1043836877d2f4d5f1f1dbdbef5f74f6ba6412611a","318000.7999999523","438.90000009536743","77","1","arctic","","","","",""
"dual-task","null","null","null","","arctic","arctic","586.5","","g","null","88","88","1","arctic-dual-task","","g","lowercase","332000","0","6","5fb4bf192bd9d1d91b3e7d1043836877d2f4d5f1f1dbdbef5f74f6ba6412611a","332000.59999990463","586.5","88","1","arctic","","","","",""
"dual-task","null","null","null","","arctic","arctic","433.90000009536743","","e","null","88","88","1","arctic-dual-task","","e","lowercase","344000","0","6","5fb4bf192bd9d1d91b3e7d1043836877d2f4d5f1f1dbdbef5f74f6ba6412611a","344001","433.90000009536743","88","1","arctic","","","","",""
"dual-task","null","null","null","","arctic","arctic","394.59999990463257","","H","null","77","77","1","arctic-dual-task","","H","uppercase","350000","0","6","5fb4bf192bd9d1d91b3e7d1043836877d2f4d5f1f1dbdbef5f74f6ba6412611a","350000.89999985695","394.59999990463257","77","1","arctic","","","","",""
"dual-task","null","null","null","","arctic","arctic","1134.2999999523163","","D","null","88","77","0","arctic-dual-task","","D","uppercase","356000","0","6","5fb4bf192bd9d1d91b3e7d1043836877d2f4d5f1f1dbdbef5f74f6ba6412611a","356000.39999985695","1134.2999999523163","88","0","arctic","","","","",""
"dual-task","null","null","null","","arctic","arctic","733.2999999523163","","t","null","88","88","1","arctic-dual-task","","t","lowercase","368000","0","6","5fb4bf192bd9d1d91b3e7d1043836877d2f4d5f1f1dbdbef5f74f6ba6412611a","368000.2999999523","733.2999999523163","88","1","arctic","","","","",""
"dual-task","null","null","null","","arctic","arctic","500.7000000476837","","T","null","77","77","1","arctic-dual-task","","T","uppercase","378000","0","6","5fb4bf192bd9d1d91b3e7d1043836877d2f4d5f1f1dbdbef5f74f6ba6412611a","378000.2999999523","500.7000000476837","77","1","arctic","","","","",""
"dual-task","null","null","null","","arctic","arctic","431.5","","D","null","77","77","1","arctic-dual-task","","D","uppercase","390000","0","6","5fb4bf192bd9d1d91b3e7d1043836877d2f4d5f1f1dbdbef5f74f6ba6412611a","390001.09999990463","431.5","77","1","arctic","","","","",""
"dual-task","null","null","null","","arctic","arctic","498.90000009536743","","G","null","77","77","1","arctic-dual-task","","G","uppercase","402000","0","6","5fb4bf192bd9d1d91b3e7d1043836877d2f4d5f1f1dbdbef5f74f6ba6412611a","402001","498.90000009536743","77","1","arctic","","","","",""
"dual-task","null","null","null","","arctic","arctic","995.2999999523163","","r","null","88","88","1","arctic-dual-task","","r","lowercase","408000","0","6","5fb4bf192bd9d1d91b3e7d1043836877d2f4d5f1f1dbdbef5f74f6ba6412611a","408000.2999999523","995.2999999523163","88","1","arctic","","","","",""
"dual-task","null","null","null","","arctic","arctic","436.7000000476837","","A","null","77","77","1","arctic-dual-task","","A","uppercase","414000","0","6","5fb4bf192bd9d1d91b3e7d1043836877d2f4d5f1f1dbdbef5f74f6ba6412611a","414001.19999980927","436.7000000476837","77","1","arctic","","","","",""
"dual-task","null","null","null","","arctic","arctic","411.59999990463257","","f","null","88","88","1","arctic-dual-task","","f","lowercase","428000","0","6","5fb4bf192bd9d1d91b3e7d1043836877d2f4d5f1f1dbdbef5f74f6ba6412611a","428000.19999980927","411.59999990463257","88","1","arctic","","","","",""
"dual-task","null","null","null","","arctic","arctic","531.6000001430511","","r","null","88","88","1","arctic-dual-task","","r","lowercase","442000","0","6","5fb4bf192bd9d1d91b3e7d1043836877d2f4d5f1f1dbdbef5f74f6ba6412611a","442001.19999980927","531.6000001430511","88","1","arctic","","","","",""
"dual-task","null","null","null","","arctic","arctic","487.5","","r","null","88","88","1","arctic-dual-task","","r","lowercase","448000","0","6","5fb4bf192bd9d1d91b3e7d1043836877d2f4d5f1f1dbdbef5f74f6ba6412611a","448000.89999985695","487.5","88","1","arctic","","","","",""
"dual-task","null","null","null","","arctic","arctic","363.7000000476837","","E","null","77","77","1","arctic-dual-task","","E","uppercase","458000","0","6","5fb4bf192bd9d1d91b3e7d1043836877d2f4d5f1f1dbdbef5f74f6ba6412611a","458000.19999980927","363.7000000476837","77","1","arctic","","","","",""
"dual-task","null","null","null","","arctic","arctic","542.3999998569489","","h","null","88","88","1","arctic-dual-task","","h","lowercase","468000","0","6","5fb4bf192bd9d1d91b3e7d1043836877d2f4d5f1f1dbdbef5f74f6ba6412611a","468000.39999985695","542.3999998569489","88","1","arctic","","","","",""
"dual-task","null","null","null","","arctic","arctic","430.89999985694885","","g","null","88","88","1","arctic-dual-task","","g","lowercase","476000","0","6","5fb4bf192bd9d1d91b3e7d1043836877d2f4d5f1f1dbdbef5f74f6ba6412611a","476001","430.89999985694885","88","1","arctic","","","","",""
"dual-task","null","null","null","","arctic","arctic","687.2999999523163","","B","null","88","77","0","arctic-dual-task","","B","uppercase","486000","0","6","5fb4bf192bd9d1d91b3e7d1043836877d2f4d5f1f1dbdbef5f74f6ba6412611a","486000.2999999523","687.2999999523163","88","0","arctic","","","","",""
"dual-task","null","null","null","","arctic","arctic","382.2999999523163","","q","null","88","88","1","arctic-dual-task","","q","lowercase","496000","0","6","5fb4bf192bd9d1d91b3e7d1043836877d2f4d5f1f1dbdbef5f74f6ba6412611a","496000.69999980927","382.2999999523163","88","1","arctic","","","","",""
"dual-task","null","null","null","","arctic","arctic","564.4000000953674","","G","null","77","77","1","arctic-dual-task","","G","uppercase","506000","0","6","5fb4bf192bd9d1d91b3e7d1043836877d2f4d5f1f1dbdbef5f74f6ba6412611a","506000","564.4000000953674","77","1","arctic","","","","",""
"dual-task","null","null","null","","arctic","arctic","595.6000001430511","","Q","null","77","77","1","arctic-dual-task","","Q","uppercase","516000","0","6","5fb4bf192bd9d1d91b3e7d1043836877d2f4d5f1f1dbdbef5f74f6ba6412611a","516000.09999990463","595.6000001430511","77","1","arctic","","","","",""
"dual-task","null","null","null","","arctic","arctic","372.2999999523163","","d","null","88","88","1","arctic-dual-task","","d","lowercase","524000","0","6","5fb4bf192bd9d1d91b3e7d1043836877d2f4d5f1f1dbdbef5f74f6ba6412611a","524000.89999985695","372.2999999523163","88","1","arctic","","","","",""
"dual-task","null","null","null","","arctic","arctic","386.2000000476837","","a","null","88","88","1","arctic-dual-task","","a","lowercase","532000","0","6","5fb4bf192bd9d1d91b3e7d1043836877d2f4d5f1f1dbdbef5f74f6ba6412611a","532001","386.2000000476837","88","1","arctic","","","","",""
"dual-task","null","null","null","","arctic","arctic","689.8999998569489","","h","null","88","88","1","arctic-dual-task","","h","lowercase","540000","0","6","5fb4bf192bd9d1d91b3e7d1043836877d2f4d5f1f1dbdbef5f74f6ba6412611a","540000.899999857","689.8999998569489","88","1","arctic","","","","",""
"dual-task","null","null","null","","arctic","arctic","469","","F","null","77","77","1","arctic-dual-task","","F","uppercase","548000","0","6","5fb4bf192bd9d1d91b3e7d1043836877d2f4d5f1f1dbdbef5f74f6ba6412611a","548000.5","469","77","1","arctic","","","","",""
"dual-task","null","null","null","","arctic","arctic","281.2999999523163","","q","null","88","88","1","arctic-dual-task","","q","lowercase","558000","0","6","5fb4bf192bd9d1d91b3e7d1043836877d2f4d5f1f1dbdbef5f74f6ba6412611a","558000.7999999523","281.2999999523163","88","1","arctic","","","","",""
"dual-task","null","null","null","","arctic","arctic","399.59999990463257","","E","null","77","77","1","arctic-dual-task","","E","uppercase","566000","0","6","5fb4bf192bd9d1d91b3e7d1043836877d2f4d5f1f1dbdbef5f74f6ba6412611a","566000.899999857","399.59999990463257","77","1","arctic","","","","",""
"dual-task","null","null","null","","arctic","arctic","474.39999985694885","","t","null","88","88","1","arctic-dual-task","","t","lowercase","574000","0","6","5fb4bf192bd9d1d91b3e7d1043836877d2f4d5f1f1dbdbef5f74f6ba6412611a","574001","474.39999985694885","88","1","arctic","","","","",""
"dual-task","null","null","null","","arctic","arctic","400.7999999523163","","T","null","77","77","1","arctic-dual-task","","T","uppercase","582000","0","6","5fb4bf192bd9d1d91b3e7d1043836877d2f4d5f1f1dbdbef5f74f6ba6412611a","582000.2999999523","400.7999999523163","77","1","arctic","","","","",""
"dual-task","null","null","null","","arctic","arctic","412","","R","null","77","77","1","arctic-dual-task","","R","uppercase","588000","0","6","5fb4bf192bd9d1d91b3e7d1043836877d2f4d5f1f1dbdbef5f74f6ba6412611a","588000.5","412","77","1","arctic","","","","",""
"dual-task","null","null","null","","arctic","arctic","1529.2999999523163","","t","null","88","88","1","arctic-dual-task","","t","lowercase","596000","0","6","5fb4bf192bd9d1d91b3e7d1043836877d2f4d5f1f1dbdbef5f74f6ba6412611a","596000.5","1529.2999999523163","88","1","arctic","","","","",""
"dual-task","null","null","null","","arctic","arctic","455.40000009536743","","e","null","88","88","1","arctic-dual-task","","e","lowercase","606000","0","6","5fb4bf192bd9d1d91b3e7d1043836877d2f4d5f1f1dbdbef5f74f6ba6412611a","606000.5","455.40000009536743","88","1","arctic","","","","",""
"dual-task","null","null","null","","arctic","arctic","675.3000001907349","","A","null","77","77","1","arctic-dual-task","","A","uppercase","616000","0","6","5fb4bf192bd9d1d91b3e7d1043836877d2f4d5f1f1dbdbef5f74f6ba6412611a","616000.0999999046","675.3000001907349","77","1","arctic","","","","",""
"dual-task","null","null","null","","arctic","arctic","519.2000000476837","","f","null","88","88","1","arctic-dual-task","","f","lowercase","626000","0","6","5fb4bf192bd9d1d91b3e7d1043836877d2f4d5f1f1dbdbef5f74f6ba6412611a","626000.899999857","519.2000000476837","88","1","arctic","","","","",""
"dual-task","null","null","null","","arctic","arctic","334.7999999523163","","N","null","77","77","1","arctic-dual-task","","N","uppercase","634000","0","6","5fb4bf192bd9d1d91b3e7d1043836877d2f4d5f1f1dbdbef5f74f6ba6412611a","634000.399999857","334.7999999523163","77","1","arctic","","","","",""
"dual-task","null","null","null","","arctic","arctic","495.7999999523163","","B","null","77","77","1","arctic-dual-task","","B","uppercase","640000","0","6","5fb4bf192bd9d1d91b3e7d1043836877d2f4d5f1f1dbdbef5f74f6ba6412611a","640000.6999998093","495.7999999523163","77","1","arctic","","","","",""
"dual-task","null","null","null","","arctic","arctic","471.90000009536743","","F","null","77","77","1","arctic-dual-task","","F","uppercase","648000","0","6","5fb4bf192bd9d1d91b3e7d1043836877d2f4d5f1f1dbdbef5f74f6ba6412611a","648000.899999857","471.90000009536743","77","1","arctic","","","","",""
"dual-task","null","null","null","","arctic","arctic","410.39999985694885","","Q","null","77","77","1","arctic-dual-task","","Q","uppercase","660000","0","6","5fb4bf192bd9d1d91b3e7d1043836877d2f4d5f1f1dbdbef5f74f6ba6412611a","660000.5999999046","410.39999985694885","77","1","arctic","","","","",""
"dual-task","null","null","null","","arctic","arctic","420.7000000476837","","h","null","88","88","1","arctic-dual-task","","h","lowercase","668000","0","6","5fb4bf192bd9d1d91b3e7d1043836877d2f4d5f1f1dbdbef5f74f6ba6412611a","668001.0999999046","420.7000000476837","88","1","arctic","","","","",""
"dual-task","null","null","null","","arctic","arctic","372.5","","a","null","88","88","1","arctic-dual-task","","a","lowercase","676000","0","6","5fb4bf192bd9d1d91b3e7d1043836877d2f4d5f1f1dbdbef5f74f6ba6412611a","676000.5999999046","372.5","88","1","arctic","","","","",""
"dual-task","null","null","null","","arctic","arctic","366.10000014305115","","D","null","77","77","1","arctic-dual-task","","D","uppercase","686000","0","6","5fb4bf192bd9d1d91b3e7d1043836877d2f4d5f1f1dbdbef5f74f6ba6412611a","686001.0999999046","366.10000014305115","77","1","arctic","","","","",""
"dual-task","null","null","null","","arctic","arctic","444","","a","null","88","88","1","arctic-dual-task","","a","lowercase","692000","0","6","5fb4bf192bd9d1d91b3e7d1043836877d2f4d5f1f1dbdbef5f74f6ba6412611a","692000.399999857","444","88","1","arctic","","","","",""
"dual-task","null","null","null","","arctic","arctic","380.89999985694885","","d","null","88","88","1","arctic-dual-task","","d","lowercase","702000","0","6","5fb4bf192bd9d1d91b3e7d1043836877d2f4d5f1f1dbdbef5f74f6ba6412611a","702000.7999999523","380.89999985694885","88","1","arctic","","","","",""
"dual-task","null","null","null","","arctic","arctic","417.5","","e","null","88","88","1","arctic-dual-task","","e","lowercase","710000","0","6","5fb4bf192bd9d1d91b3e7d1043836877d2f4d5f1f1dbdbef5f74f6ba6412611a","710000.399999857","417.5","88","1","arctic","","","","",""
"dual-task","null","null","null","","arctic","arctic","402.7000000476837","","Q","null","77","77","1","arctic-dual-task","","Q","uppercase","716000","0","6","5fb4bf192bd9d1d91b3e7d1043836877d2f4d5f1f1dbdbef5f74f6ba6412611a","716001.0999999046","402.7000000476837","77","1","arctic","","","","",""
"dual-task","null","null","null","","arctic","arctic","401.2000000476837","","N","null","88","77","0","arctic-dual-task","","N","uppercase","724000","0","6","5fb4bf192bd9d1d91b3e7d1043836877d2f4d5f1f1dbdbef5f74f6ba6412611a","724001.5999999046","401.2000000476837","88","0","arctic","","","","",""
"dual-task","null","null","null","","arctic","arctic","449.5","","f","null","88","88","1","arctic-dual-task","","f","lowercase","732000","0","6","5fb4bf192bd9d1d91b3e7d1043836877d2f4d5f1f1dbdbef5f74f6ba6412611a","732000.5","449.5","88","1","arctic","","","","",""
"dual-task","null","null","null","","arctic","arctic","365.10000014305115","","G","null","77","77","1","arctic-dual-task","","G","uppercase","740000","0","6","5fb4bf192bd9d1d91b3e7d1043836877d2f4d5f1f1dbdbef5f74f6ba6412611a","740000.1999998093","365.10000014305115","77","1","arctic","","","","",""
"dual-task","null","null","null","","arctic","arctic","473.7999999523163","","n","null","88","88","1","arctic-dual-task","","n","lowercase","748000","0","6","5fb4bf192bd9d1d91b3e7d1043836877d2f4d5f1f1dbdbef5f74f6ba6412611a","748000.899999857","473.7999999523163","88","1","arctic","","","","",""
"dual-task","null","null","null","","arctic","arctic","459.7999999523163","","b","null","88","88","1","arctic-dual-task","","b","lowercase","760000","0","6","5fb4bf192bd9d1d91b3e7d1043836877d2f4d5f1f1dbdbef5f74f6ba6412611a","760001.899999857","459.7999999523163","88","1","arctic","","","","",""
"dual-task","null","null","null","","arctic","arctic","461.2000000476837","","g","null","88","88","1","arctic-dual-task","","g","lowercase","770000","0","6","5fb4bf192bd9d1d91b3e7d1043836877d2f4d5f1f1dbdbef5f74f6ba6412611a","770000.7999999523","461.2000000476837","88","1","arctic","","","","",""
"dual-task","null","null","null","","arctic","arctic","676.3999998569489","","A","null","88","77","0","arctic-dual-task","","A","uppercase","776000","0","6","5fb4bf192bd9d1d91b3e7d1043836877d2f4d5f1f1dbdbef5f74f6ba6412611a","776001.1999998093","676.3999998569489","88","0","arctic","","","","",""
"dual-task","null","null","null","","arctic","arctic","484.2000000476837","","n","null","88","88","1","arctic-dual-task","","n","lowercase","790000","0","6","5fb4bf192bd9d1d91b3e7d1043836877d2f4d5f1f1dbdbef5f74f6ba6412611a","790000.1999998093","484.2000000476837","88","1","arctic","","","","",""
"audio-keyboard-response","29","933015","0.0-6.0-0.0-1.0","5fb4bf192bd9d1d91b3e7d1043836877d2f4d5f1f1dbdbef5f74f6ba6412611a","arctic","arctic","null","","audio/story_arctic_scrambled.mp3","","null","","","","","","","","","","","","","","","","","","","",""
"html-button-response","30","936032","0.0-6.0-0.0-2.0","5fb4bf192bd9d1d91b3e7d1043836877d2f4d5f1f1dbdbef5f74f6ba6412611a","arctic","arctic","3017","","<p>This concludes the story. Thank you for listening.</p><p>You will now answer some questions about the content of the story.</p>","0","","","","","","","","","","","","","","","","","","","","",""
"survey-multi-choice","31","942281","0.0-6.0-0.0-3.0-0.0","5fb4bf192bd9d1d91b3e7d1043836877d2f4d5f1f1dbdbef5f74f6ba6412611a","arctic","arctic","6247","","<b>What is the name of the narrator&#39;s neighbour?</b>","","","","0","arctic-comprehension","","","","","","","","","","","","","{""Q0"":""Doug""}","","","",""
"survey-multi-choice","32","947203","0.0-6.0-0.0-3.0-0.1","5fb4bf192bd9d1d91b3e7d1043836877d2f4d5f1f1dbdbef5f74f6ba6412611a","arctic","arctic","4670","","<b>What did the narrator do for leisure while in her tent?</b>","","","","0","arctic-comprehension","","","","","","","","","","","","","{""Q0"":""Take photos""}","","","",""
"survey-multi-choice","33","951217","0.0-6.0-0.0-3.0-0.2","5fb4bf192bd9d1d91b3e7d1043836877d2f4d5f1f1dbdbef5f74f6ba6412611a","arctic","arctic","3761","","<b>What were the weather conditions in the Arctic like the winter of the narrator&#39;s expedition?</b>","","","","1","arctic-comprehension","","","","","","","","","","","","","{""Q0"":""There were more storms than any other winter in recorded history.""}","","","",""
"survey-multi-choice","34","957767","0.0-6.0-0.0-3.0-0.3","5fb4bf192bd9d1d91b3e7d1043836877d2f4d5f1f1dbdbef5f74f6ba6412611a","arctic","arctic","6298","","<b>How did the narrator prepare for her expedition?</b>","","","","1","arctic-comprehension","","","","","","","","","","","","","{""Q0"":""Trained in Alaska learning how to dogsled""}","","","",""
"survey-multi-choice","35","965142","0.0-6.0-0.0-3.0-0.4","5fb4bf192bd9d1d91b3e7d1043836877d2f4d5f1f1dbdbef5f74f6ba6412611a","arctic","arctic","7122","","<b>What was the objective of the narrator&#39;s expedition?</b>","","","","1","arctic-comprehension","","","","","","","","","","","","","{""Q0"":""Dogsled across Arctic America""}","","","",""
"survey-multi-choice","36","971843","0.0-6.0-0.0-3.0-0.5","5fb4bf192bd9d1d91b3e7d1043836877d2f4d5f1f1dbdbef5f74f6ba6412611a","arctic","arctic","6448","","<b>How many sponsorships did the narrator receive to support her expedition?</b>","","","","1","arctic-comprehension","","","","","","","","","","","","","{""Q0"":""None""}","","","",""
"survey-multi-choice","37","979211","0.0-6.0-0.0-3.0-0.6","5fb4bf192bd9d1d91b3e7d1043836877d2f4d5f1f1dbdbef5f74f6ba6412611a","arctic","arctic","7114","","<b>How did the narrator&#39;s neighbour respond when she told him about her expedition?</b>","","","","1","arctic-comprehension","","","","","","","","","","","","","{""Q0"":""He said she was going to fail.""}","","","",""
"survey-multi-choice","38","985045","0.0-6.0-0.0-3.0-0.7","5fb4bf192bd9d1d91b3e7d1043836877d2f4d5f1f1dbdbef5f74f6ba6412611a","arctic","arctic","5581","","<b>How did the narrator&#39;s encounter with the polar bears end?</b>","","","","0","arctic-comprehension","","","","","","","","","","","","","{""Q0"":""Her dogs killed the bear.""}","","","",""
"survey-multi-choice","39","990041","0.0-6.0-0.0-3.0-0.8","5fb4bf192bd9d1d91b3e7d1043836877d2f4d5f1f1dbdbef5f74f6ba6412611a","arctic","arctic","4743","","<b>How did the dogs respond when they saw the bears?</b>","","","","1","arctic-comprehension","","","","","","","","","","","","","{""Q0"":""Approached them""}","","","",""
"survey-multi-choice","40","995609","0.0-6.0-0.0-3.0-0.9","5fb4bf192bd9d1d91b3e7d1043836877d2f4d5f1f1dbdbef5f74f6ba6412611a","arctic","arctic","5316","","<b>Which dog on the narrator&#39;s dog team never followed instructions?</b>","","","","0","arctic-comprehension","","","","","","","","","","","","","{""Q0"":""Douggie-dog""}","","","",""
"html-button-response","41","997559","0.0-6.0-0.0-4.0","5fb4bf192bd9d1d91b3e7d1043836877d2f4d5f1f1dbdbef5f74f6ba6412611a","arctic","arctic","1697","","<p>Thank you for your responses.</p><p>You will now answer some questions about your impressions of the story.</p>","0","","","","","","","","","","","","","","","","","","","","",""
"html-button-response","42","1000412","0.0-6.0-0.0-5.0-0.0","5fb4bf192bd9d1d91b3e7d1043836877d2f4d5f1f1dbdbef5f74f6ba6412611a","arctic","arctic","2852","","MS1","5","","","","arctic-engagement","","","","","","","","","","","","","","6","mental-sim","",""
"html-button-response","43","1010812","0.0-6.0-0.0-5.0-0.1","5fb4bf192bd9d1d91b3e7d1043836877d2f4d5f1f1dbdbef5f74f6ba6412611a","arctic","arctic","10148","","A1","5","","","","arctic-engagement","","","","","","","","","","","","","","6","absorption","",""
"html-button-response","44","1012933","0.0-6.0-0.0-5.0-0.2","5fb4bf192bd9d1d91b3e7d1043836877d2f4d5f1f1dbdbef5f74f6ba6412611a","arctic","arctic","1870","","EE1","4","","","","arctic-engagement","","","","","","","","","","","","","","5","emo-engage","",""
"html-button-response","45","1014202","0.0-6.0-0.0-5.0-0.3","5fb4bf192bd9d1d91b3e7d1043836877d2f4d5f1f1dbdbef5f74f6ba6412611a","arctic","arctic","1017","","A2","5","","","","arctic-engagement","","","","","","","","","","","","","","6","absorption","",""
"html-button-response","46","1016088","0.0-6.0-0.0-5.0-0.4","5fb4bf192bd9d1d91b3e7d1043836877d2f4d5f1f1dbdbef5f74f6ba6412611a","arctic","arctic","1633","","A4","5","","","","arctic-engagement","","","","","","","","","","","","","","6","absorption","",""
"html-button-response","47","1017886","0.0-6.0-0.0-5.0-0.5","5fb4bf192bd9d1d91b3e7d1043836877d2f4d5f1f1dbdbef5f74f6ba6412611a","arctic","arctic","1547","","EE4","5","","","","arctic-engagement","","","","","","","","","","","","","","6","emo-engage","",""
"html-button-response","48","1019606","0.0-6.0-0.0-5.0-0.6","5fb4bf192bd9d1d91b3e7d1043836877d2f4d5f1f1dbdbef5f74f6ba6412611a","arctic","arctic","1469","","E6","2","","","","arctic-engagement","","","","","","","","","","","","","","3","enjoyment","",""
"html-button-response","49","1022172","0.0-6.0-0.0-5.0-0.7","5fb4bf192bd9d1d91b3e7d1043836877d2f4d5f1f1dbdbef5f74f6ba6412611a","arctic","arctic","2313","","MS2","2","","","","arctic-engagement","","","","","","","","","","","","","","3","mental-sim","",""
"html-button-response","50","1023714","0.0-6.0-0.0-5.0-0.8","5fb4bf192bd9d1d91b3e7d1043836877d2f4d5f1f1dbdbef5f74f6ba6412611a","arctic","arctic","1290","","E1","5","","","","arctic-engagement","","","","","","","","","","","","","","6","enjoyment","",""
"html-button-response","51","1025548","0.0-6.0-0.0-5.0-0.9","5fb4bf192bd9d1d91b3e7d1043836877d2f4d5f1f1dbdbef5f74f6ba6412611a","arctic","arctic","1582","","E10","5","","","","arctic-engagement","","","","","","","","","","","","","","6","enjoyment","",""
"html-button-response","52","1027684","0.0-6.0-0.0-5.0-0.10","5fb4bf192bd9d1d91b3e7d1043836877d2f4d5f1f1dbdbef5f74f6ba6412611a","arctic","arctic","1884","","E7","5","","","","arctic-engagement","","","","","","","","","","","","","","6","enjoyment","",""
"html-button-response","53","1029706","0.0-6.0-0.0-5.0-0.11","5fb4bf192bd9d1d91b3e7d1043836877d2f4d5f1f1dbdbef5f74f6ba6412611a","arctic","arctic","1769","","A3","1","","","","arctic-engagement","","","","","","","","","","","","","","2","absorption","",""
"html-button-response","54","1031598","0.0-6.0-0.0-5.0-0.12","5fb4bf192bd9d1d91b3e7d1043836877d2f4d5f1f1dbdbef5f74f6ba6412611a","arctic","arctic","1641","","EE3","5","","","","arctic-engagement","","","","","","","","","","","","","","6","emo-engage","",""
"html-button-response","55","1032910","0.0-6.0-0.0-5.0-0.13","5fb4bf192bd9d1d91b3e7d1043836877d2f4d5f1f1dbdbef5f74f6ba6412611a","arctic","arctic","1061","","EE2","4","","","","arctic-engagement","","","","","","","","","","","","","","5","emo-engage","",""
"html-button-response","56","1034888","0.0-6.0-0.0-5.0-0.14","5fb4bf192bd9d1d91b3e7d1043836877d2f4d5f1f1dbdbef5f74f6ba6412611a","arctic","arctic","1727","","EE5","4","","","","arctic-engagement","","","","","","","","","","","","","","5","emo-engage","",""
"html-button-response","57","1036566","0.0-6.0-0.0-5.0-0.15","5fb4bf192bd9d1d91b3e7d1043836877d2f4d5f1f1dbdbef5f74f6ba6412611a","arctic","arctic","1425","","E8","5","","","","arctic-engagement","","","","","","","","","","","","","","6","enjoyment","",""
"html-button-response","58","1038594","0.0-6.0-0.0-5.0-0.16","5fb4bf192bd9d1d91b3e7d1043836877d2f4d5f1f1dbdbef5f74f6ba6412611a","arctic","arctic","1776","","MS3","5","","","","arctic-engagement","","","","","","","","","","","","","","6","mental-sim","",""
"html-button-response","59","1041003","0.0-6.0-0.0-5.0-0.17","5fb4bf192bd9d1d91b3e7d1043836877d2f4d5f1f1dbdbef5f74f6ba6412611a","arctic","arctic","2156","","A5","4","","","","arctic-engagement","","","","","","","","","","","","","","5","absorption","",""
"html-keyboard-response","60","1044400","0.0-6.0-1.0","5fb4bf192bd9d1d91b3e7d1043836877d2f4d5f1f1dbdbef5f74f6ba6412611a","arctic","arctic","3145","","<p>Thank you for your responses. You will now listen to the second story.</p><p>Remember, as you listen to the story you will see letters appear on the screen.</br>As quickly as possible, press <b>&lt;x&gt;</b> if the letter is lowercase and <b>&lt;m&gt;</b> if the letter is uppercase.</p><p>Press <b>&lt;x&gt;</b> or <b>&lt;m&gt;</b> to begin listening!</p>","","77","","","","","","","","","","","","","","","","","","","",""
"html-keyboard-response","61","1044900","0.0-6.0-2.0-0.0","5fb4bf192bd9d1d91b3e7d1043836877d2f4d5f1f1dbdbef5f74f6ba6412611a","arctic","arctic","null","","<div style=""font-size:60px;"" tabindex=""0"">+</div>","","null","","","","","","","","","","","","","","","","","","","",""
"dual-task","null","null","null","","arctic","arctic","1201.5","","f","null","88","88","1","swim-dual-task","","f","lowercase","18000","0","6","5fb4bf192bd9d1d91b3e7d1043836877d2f4d5f1f1dbdbef5f74f6ba6412611a","18000.599999904633","1201.5","88","1","swim","","","","",""
"dual-task","null","null","null","","arctic","arctic","412.19999980926514","","B","null","77","77","1","swim-dual-task","","B","uppercase","30000","0","6","5fb4bf192bd9d1d91b3e7d1043836877d2f4d5f1f1dbdbef5f74f6ba6412611a","30000.799999952316","412.19999980926514","77","1","swim","","","","",""
"dual-task","null","null","null","","arctic","arctic","401.7999999523163","","d","null","88","88","1","swim-dual-task","","d","lowercase","40000","0","6","5fb4bf192bd9d1d91b3e7d1043836877d2f4d5f1f1dbdbef5f74f6ba6412611a","40000.90000009537","401.7999999523163","88","1","swim","","","","",""
"dual-task","null","null","null","","arctic","arctic","460.69999980926514","","B","null","77","77","1","swim-dual-task","","B","uppercase","54000","0","6","5fb4bf192bd9d1d91b3e7d1043836877d2f4d5f1f1dbdbef5f74f6ba6412611a","54001.299999952316","460.69999980926514","77","1","swim","","","","",""
"dual-task","null","null","null","","arctic","arctic","506.2999999523163","","T","null","77","77","1","swim-dual-task","","T","uppercase","62000","0","6","5fb4bf192bd9d1d91b3e7d1043836877d2f4d5f1f1dbdbef5f74f6ba6412611a","62000.5","506.2999999523163","77","1","swim","","","","",""
"dual-task","null","null","null","","arctic","arctic","639.7000000476837","","H","null","77","77","1","swim-dual-task","","H","uppercase","76000","0","6","5fb4bf192bd9d1d91b3e7d1043836877d2f4d5f1f1dbdbef5f74f6ba6412611a","76001.09999990463","639.7000000476837","77","1","swim","","","","",""
"dual-task","null","null","null","","arctic","arctic","568.7000000476837","","t","null","88","88","1","swim-dual-task","","t","lowercase","86000","0","6","5fb4bf192bd9d1d91b3e7d1043836877d2f4d5f1f1dbdbef5f74f6ba6412611a","86001.09999990463","568.7000000476837","88","1","swim","","","","",""
"dual-task","null","null","null","","arctic","arctic","647.5","","q","null","88","88","1","swim-dual-task","","q","lowercase","100000","0","6","5fb4bf192bd9d1d91b3e7d1043836877d2f4d5f1f1dbdbef5f74f6ba6412611a","100000.5","647.5","88","1","swim","","","","",""
"dual-task","null","null","null","","arctic","arctic","678.8999998569489","","H","null","77","77","1","swim-dual-task","","H","uppercase","106000","0","6","5fb4bf192bd9d1d91b3e7d1043836877d2f4d5f1f1dbdbef5f74f6ba6412611a","106000","678.8999998569489","77","1","swim","","","","",""
"dual-task","null","null","null","","arctic","arctic","434.2999999523163","","F","null","77","77","1","swim-dual-task","","F","uppercase","114000","0","6","5fb4bf192bd9d1d91b3e7d1043836877d2f4d5f1f1dbdbef5f74f6ba6412611a","114000.90000009537","434.2999999523163","77","1","swim","","","","",""
"dual-task","null","null","null","","arctic","arctic","446.09999990463257","","a","null","77","88","0","swim-dual-task","","a","lowercase","128000","0","6","5fb4bf192bd9d1d91b3e7d1043836877d2f4d5f1f1dbdbef5f74f6ba6412611a","128000.79999995232","446.09999990463257","77","0","swim","","","","",""
"dual-task","null","null","null","","arctic","arctic","380.2000000476837","","Q","null","77","77","1","swim-dual-task","","Q","uppercase","140000","0","6","5fb4bf192bd9d1d91b3e7d1043836877d2f4d5f1f1dbdbef5f74f6ba6412611a","140001.20000004768","380.2000000476837","77","1","swim","","","","",""
"dual-task","null","null","null","","arctic","arctic","377.40000009536743","","F","null","77","77","1","swim-dual-task","","F","uppercase","152000","0","6","5fb4bf192bd9d1d91b3e7d1043836877d2f4d5f1f1dbdbef5f74f6ba6412611a","152000.90000009537","377.40000009536743","77","1","swim","","","","",""
"dual-task","null","null","null","","arctic","arctic","690.2999999523163","","r","null","88","88","1","swim-dual-task","","r","lowercase","164000","0","6","5fb4bf192bd9d1d91b3e7d1043836877d2f4d5f1f1dbdbef5f74f6ba6412611a","164000.09999990463","690.2999999523163","88","1","swim","","","","",""
"dual-task","null","null","null","","arctic","arctic","423","","a","null","88","88","1","swim-dual-task","","a","lowercase","172000","0","6","5fb4bf192bd9d1d91b3e7d1043836877d2f4d5f1f1dbdbef5f74f6ba6412611a","172000.90000009537","423","88","1","swim","","","","",""
"dual-task","null","null","null","","arctic","arctic","430.2999999523163","","Q","null","77","77","1","swim-dual-task","","Q","uppercase","184000","0","6","5fb4bf192bd9d1d91b3e7d1043836877d2f4d5f1f1dbdbef5f74f6ba6412611a","184000.5","430.2999999523163","77","1","swim","","","","",""
"dual-task","null","null","null","","arctic","arctic","389.7999999523163","","A","null","77","77","1","swim-dual-task","","A","uppercase","194000","0","6","5fb4bf192bd9d1d91b3e7d1043836877d2f4d5f1f1dbdbef5f74f6ba6412611a","194000.79999995232","389.7999999523163","77","1","swim","","","","",""
"dual-task","null","null","null","","arctic","arctic","479.89999985694885","","E","null","77","77","1","swim-dual-task","","E","uppercase","206000","0","6","5fb4bf192bd9d1d91b3e7d1043836877d2f4d5f1f1dbdbef5f74f6ba6412611a","206000.59999990463","479.89999985694885","77","1","swim","","","","",""
"dual-task","null","null","null","","arctic","arctic","408.5","","R","null","77","77","1","swim-dual-task","","R","uppercase","220000","0","6","5fb4bf192bd9d1d91b3e7d1043836877d2f4d5f1f1dbdbef5f74f6ba6412611a","220000.70000004768","408.5","77","1","swim","","","","",""
"dual-task","null","null","null","","arctic","arctic","453.7000000476837","","R","null","77","77","1","swim-dual-task","","R","uppercase","232000","0","6","5fb4bf192bd9d1d91b3e7d1043836877d2f4d5f1f1dbdbef5f74f6ba6412611a","232000.79999995232","453.7000000476837","77","1","swim","","","","",""
"dual-task","null","null","null","","arctic","arctic","483.2000000476837","","A","null","77","77","1","swim-dual-task","","A","uppercase","242000","0","6","5fb4bf192bd9d1d91b3e7d1043836877d2f4d5f1f1dbdbef5f74f6ba6412611a","242000.59999990463","483.2000000476837","77","1","swim","","","","",""
"dual-task","null","null","null","","arctic","arctic","341.09999990463257","","R","null","77","77","1","swim-dual-task","","R","uppercase","256000","0","6","5fb4bf192bd9d1d91b3e7d1043836877d2f4d5f1f1dbdbef5f74f6ba6412611a","256000.70000004768","341.09999990463257","77","1","swim","","","","",""
"dual-task","null","null","null","","arctic","arctic","394.40000009536743","","d","null","88","88","1","swim-dual-task","","d","lowercase","262000","0","6","5fb4bf192bd9d1d91b3e7d1043836877d2f4d5f1f1dbdbef5f74f6ba6412611a","262001","394.40000009536743","88","1","swim","","","","",""
"dual-task","null","null","null","","arctic","arctic","428.09999990463257","","N","null","88","77","0","swim-dual-task","","N","uppercase","272000","0","6","5fb4bf192bd9d1d91b3e7d1043836877d2f4d5f1f1dbdbef5f74f6ba6412611a","272001.7000000477","428.09999990463257","88","0","swim","","","","",""
"dual-task","null","null","null","","arctic","arctic","355.60000014305115","","G","null","77","77","1","swim-dual-task","","G","uppercase","280000","0","6","5fb4bf192bd9d1d91b3e7d1043836877d2f4d5f1f1dbdbef5f74f6ba6412611a","280000.59999990463","355.60000014305115","77","1","swim","","","","",""
"dual-task","null","null","null","","arctic","arctic","444.2999999523163","","e","null","88","88","1","swim-dual-task","","e","lowercase","288000","0","6","5fb4bf192bd9d1d91b3e7d1043836877d2f4d5f1f1dbdbef5f74f6ba6412611a","288000.7999999523","444.2999999523163","88","1","swim","","","","",""
"dual-task","null","null","null","","arctic","arctic","1056","","B","null","77","77","1","swim-dual-task","","B","uppercase","300000","0","6","5fb4bf192bd9d1d91b3e7d1043836877d2f4d5f1f1dbdbef5f74f6ba6412611a","300001.40000009537","1056","77","1","swim","","","","",""
"dual-task","null","null","null","","arctic","arctic","518.7999999523163","","R","null","77","77","1","swim-dual-task","","R","uppercase","308000","0","6","5fb4bf192bd9d1d91b3e7d1043836877d2f4d5f1f1dbdbef5f74f6ba6412611a","308000.40000009537","518.7999999523163","77","1","swim","","","","",""
"dual-task","null","null","null","","arctic","arctic","347","","B","null","77","77","1","swim-dual-task","","B","uppercase","314000","0","6","5fb4bf192bd9d1d91b3e7d1043836877d2f4d5f1f1dbdbef5f74f6ba6412611a","314001.40000009537","347","77","1","swim","","","","",""
"dual-task","null","null","null","","arctic","arctic","524.5","","D","null","77","77","1","swim-dual-task","","D","uppercase","324000","0","6","5fb4bf192bd9d1d91b3e7d1043836877d2f4d5f1f1dbdbef5f74f6ba6412611a","324000.2999999523","524.5","77","1","swim","","","","",""
"dual-task","null","null","null","","arctic","arctic","469.40000009536743","","h","null","88","88","1","swim-dual-task","","h","lowercase","334000","0","6","5fb4bf192bd9d1d91b3e7d1043836877d2f4d5f1f1dbdbef5f74f6ba6412611a","334001.2000000477","469.40000009536743","88","1","swim","","","","",""
"dual-task","null","null","null","","arctic","arctic","506.2000000476837","","A","null","77","77","1","swim-dual-task","","A","uppercase","342000","0","6","5fb4bf192bd9d1d91b3e7d1043836877d2f4d5f1f1dbdbef5f74f6ba6412611a","342000.5","506.2000000476837","77","1","swim","","","","",""
"dual-task","null","null","null","","arctic","arctic","1030.1000001430511","","T","null","77","77","1","swim-dual-task","","T","uppercase","350000","0","6","5fb4bf192bd9d1d91b3e7d1043836877d2f4d5f1f1dbdbef5f74f6ba6412611a","350000.7999999523","1030.1000001430511","77","1","swim","","","","",""
"dual-task","null","null","null","","arctic","arctic","474","","T","null","77","77","1","swim-dual-task","","T","uppercase","358000","0","6","5fb4bf192bd9d1d91b3e7d1043836877d2f4d5f1f1dbdbef5f74f6ba6412611a","358000.59999990463","474","77","1","swim","","","","",""
"dual-task","null","null","null","","arctic","arctic","450.7000000476837","","N","null","77","77","1","swim-dual-task","","N","uppercase","368000","0","6","5fb4bf192bd9d1d91b3e7d1043836877d2f4d5f1f1dbdbef5f74f6ba6412611a","368001.59999990463","450.7000000476837","77","1","swim","","","","",""
"dual-task","null","null","null","","arctic","arctic","415.2000000476837","","T","null","77","77","1","swim-dual-task","","T","uppercase","376000","0","6","5fb4bf192bd9d1d91b3e7d1043836877d2f4d5f1f1dbdbef5f74f6ba6412611a","376000.7000000477","415.2000000476837","77","1","swim","","","","",""
"dual-task","null","null","null","","arctic","arctic","624.5","","r","null","88","88","1","swim-dual-task","","r","lowercase","386000","0","6","5fb4bf192bd9d1d91b3e7d1043836877d2f4d5f1f1dbdbef5f74f6ba6412611a","386001.2000000477","624.5","88","1","swim","","","","",""
"dual-task","null","null","null","","arctic","arctic","443","","r","null","88","88","1","swim-dual-task","","r","lowercase","396000","0","6","5fb4bf192bd9d1d91b3e7d1043836877d2f4d5f1f1dbdbef5f74f6ba6412611a","396001.2000000477","443","88","1","swim","","","","",""
"dual-task","null","null","null","","arctic","arctic","NA","","d","null","NA","88","0","swim-dual-task","","d","lowercase","402000","1","6","5fb4bf192bd9d1d91b3e7d1043836877d2f4d5f1f1dbdbef5f74f6ba6412611a","402001","NA","NA","0","swim","","","","",""
"dual-task","null","null","null","","arctic","arctic","NA","","e","null","NA","88","0","swim-dual-task","","e","lowercase","414000","1","6","5fb4bf192bd9d1d91b3e7d1043836877d2f4d5f1f1dbdbef5f74f6ba6412611a","414001.2000000477","NA","NA","0","swim","","","","",""
"dual-task","null","null","null","","arctic","arctic","706.4000000953674","","h","null","88","88","1","swim-dual-task","","h","lowercase","426000","0","6","5fb4bf192bd9d1d91b3e7d1043836877d2f4d5f1f1dbdbef5f74f6ba6412611a","426000.5","706.4000000953674","88","1","swim","","","","",""
"dual-task","null","null","null","","arctic","arctic","996.5","","F","null","77","77","1","swim-dual-task","","F","uppercase","434000","0","6","5fb4bf192bd9d1d91b3e7d1043836877d2f4d5f1f1dbdbef5f74f6ba6412611a","434001","996.5","77","1","swim","","","","",""
"dual-task","null","null","null","","arctic","arctic","862.4000000953674","","N","null","77","77","1","swim-dual-task","","N","uppercase","446000","0","6","5fb4bf192bd9d1d91b3e7d1043836877d2f4d5f1f1dbdbef5f74f6ba6412611a","446001","862.4000000953674","77","1","swim","","","","",""
"dual-task","null","null","null","","arctic","arctic","739.2000000476837","","h","null","88","88","1","swim-dual-task","","h","lowercase","452000","0","6","5fb4bf192bd9d1d91b3e7d1043836877d2f4d5f1f1dbdbef5f74f6ba6412611a","452000.40000009537","739.2000000476837","88","1","swim","","","","",""
"dual-task","null","null","null","","arctic","arctic","889.9000000953674","","n","null","88","88","1","swim-dual-task","","n","lowercase","462000","0","6","5fb4bf192bd9d1d91b3e7d1043836877d2f4d5f1f1dbdbef5f74f6ba6412611a","462001.2000000477","889.9000000953674","88","1","swim","","","","",""
"dual-task","null","null","null","","arctic","arctic","781.6999998092651","","E","null","77","77","1","swim-dual-task","","E","uppercase","468000","0","6","5fb4bf192bd9d1d91b3e7d1043836877d2f4d5f1f1dbdbef5f74f6ba6412611a","468001.2999999523","781.6999998092651","77","1","swim","","","","",""
"dual-task","null","null","null","","arctic","arctic","535.3000001907349","","r","null","88","88","1","swim-dual-task","","r","lowercase","480000","0","6","5fb4bf192bd9d1d91b3e7d1043836877d2f4d5f1f1dbdbef5f74f6ba6412611a","480000.5","535.3000001907349","88","1","swim","","","","",""
"dual-task","null","null","null","","arctic","arctic","552.4000000953674","","Q","null","77","77","1","swim-dual-task","","Q","uppercase","488000","0","6","5fb4bf192bd9d1d91b3e7d1043836877d2f4d5f1f1dbdbef5f74f6ba6412611a","488000.09999990463","552.4000000953674","77","1","swim","","","","",""
"dual-task","null","null","null","","arctic","arctic","1169.2000000476837","","q","null","88","88","1","swim-dual-task","","q","lowercase","496000","0","6","5fb4bf192bd9d1d91b3e7d1043836877d2f4d5f1f1dbdbef5f74f6ba6412611a","496001.40000009537","1169.2000000476837","88","1","swim","","","","",""
"dual-task","null","null","null","","arctic","arctic","1479.5999999046326","","E","null","88","77","0","swim-dual-task","","E","uppercase","504000","0","6","5fb4bf192bd9d1d91b3e7d1043836877d2f4d5f1f1dbdbef5f74f6ba6412611a","504001.40000009537","1479.5999999046326","88","0","swim","","","","",""
"dual-task","null","null","null","","arctic","arctic","847.2000000476837","","H","null","77","77","1","swim-dual-task","","H","uppercase","514000","0","6","5fb4bf192bd9d1d91b3e7d1043836877d2f4d5f1f1dbdbef5f74f6ba6412611a","514000.40000009537","847.2000000476837","77","1","swim","","","","",""
"dual-task","null","null","null","","arctic","arctic","430.19999980926514","","e","null","88","88","1","swim-dual-task","","e","lowercase","526000","0","6","5fb4bf192bd9d1d91b3e7d1043836877d2f4d5f1f1dbdbef5f74f6ba6412611a","526000.9000000954","430.19999980926514","88","1","swim","","","","",""
"dual-task","null","null","null","","arctic","arctic","1128","","q","null","88","88","1","swim-dual-task","","q","lowercase","534000","0","6","5fb4bf192bd9d1d91b3e7d1043836877d2f4d5f1f1dbdbef5f74f6ba6412611a","534000.5","1128","88","1","swim","","","","",""
"dual-task","null","null","null","","arctic","arctic","342.7999999523163","","Q","null","77","77","1","swim-dual-task","","Q","uppercase","546000","0","6","5fb4bf192bd9d1d91b3e7d1043836877d2f4d5f1f1dbdbef5f74f6ba6412611a","546000.7000000477","342.7999999523163","77","1","swim","","","","",""
"dual-task","null","null","null","","arctic","arctic","1481.8999998569489","","e","null","88","88","1","swim-dual-task","","e","lowercase","558000","0","6","5fb4bf192bd9d1d91b3e7d1043836877d2f4d5f1f1dbdbef5f74f6ba6412611a","558001.7000000477","1481.8999998569489","88","1","swim","","","","",""
"dual-task","null","null","null","","arctic","arctic","421.90000009536743","","t","null","88","88","1","swim-dual-task","","t","lowercase","570000","0","6","5fb4bf192bd9d1d91b3e7d1043836877d2f4d5f1f1dbdbef5f74f6ba6412611a","570000.7000000477","421.90000009536743","88","1","swim","","","","",""
"dual-task","null","null","null","","arctic","arctic","407.60000014305115","","G","null","77","77","1","swim-dual-task","","G","uppercase","582000","0","6","5fb4bf192bd9d1d91b3e7d1043836877d2f4d5f1f1dbdbef5f74f6ba6412611a","582000.5999999046","407.60000014305115","77","1","swim","","","","",""
"dual-task","null","null","null","","arctic","arctic","402.5","","g","null","88","88","1","swim-dual-task","","g","lowercase","594000","0","6","5fb4bf192bd9d1d91b3e7d1043836877d2f4d5f1f1dbdbef5f74f6ba6412611a","594001.0999999046","402.5","88","1","swim","","","","",""
"dual-task","null","null","null","","arctic","arctic","419.7000000476837","","n","null","88","88","1","swim-dual-task","","n","lowercase","602000","0","6","5fb4bf192bd9d1d91b3e7d1043836877d2f4d5f1f1dbdbef5f74f6ba6412611a","602000.7999999523","419.7000000476837","88","1","swim","","","","",""
"dual-task","null","null","null","","arctic","arctic","346.80000019073486","","D","null","77","77","1","swim-dual-task","","D","uppercase","616000","0","6","5fb4bf192bd9d1d91b3e7d1043836877d2f4d5f1f1dbdbef5f74f6ba6412611a","616001","346.80000019073486","77","1","swim","","","","",""
"dual-task","null","null","null","","arctic","arctic","468.89999985694885","","A","null","77","77","1","swim-dual-task","","A","uppercase","622000","0","6","5fb4bf192bd9d1d91b3e7d1043836877d2f4d5f1f1dbdbef5f74f6ba6412611a","622001.4000000954","468.89999985694885","77","1","swim","","","","",""
"dual-task","null","null","null","","arctic","arctic","411.09999990463257","","f","null","77","88","0","swim-dual-task","","f","lowercase","636000","0","6","5fb4bf192bd9d1d91b3e7d1043836877d2f4d5f1f1dbdbef5f74f6ba6412611a","636001.2999999523","411.09999990463257","77","0","swim","","","","",""
"dual-task","null","null","null","","arctic","arctic","425.90000009536743","","b","null","88","88","1","swim-dual-task","","b","lowercase","644000","0","6","5fb4bf192bd9d1d91b3e7d1043836877d2f4d5f1f1dbdbef5f74f6ba6412611a","644000.7999999523","425.90000009536743","88","1","swim","","","","",""
"dual-task","null","null","null","","arctic","arctic","693.3999998569489","","G","null","77","77","1","swim-dual-task","","G","uppercase","654000","0","6","5fb4bf192bd9d1d91b3e7d1043836877d2f4d5f1f1dbdbef5f74f6ba6412611a","654001.0999999046","693.3999998569489","77","1","swim","","","","",""
"dual-task","null","null","null","","arctic","arctic","393","","D","null","77","77","1","swim-dual-task","","D","uppercase","668000","0","6","5fb4bf192bd9d1d91b3e7d1043836877d2f4d5f1f1dbdbef5f74f6ba6412611a","668001.4000000954","393","77","1","swim","","","","",""
"dual-task","null","null","null","","arctic","arctic","359.5","","a","null","88","88","1","swim-dual-task","","a","lowercase","676000","0","6","5fb4bf192bd9d1d91b3e7d1043836877d2f4d5f1f1dbdbef5f74f6ba6412611a","676001.2999999523","359.5","88","1","swim","","","","",""
"dual-task","null","null","null","","arctic","arctic","528.4000000953674","","N","null","77","77","1","swim-dual-task","","N","uppercase","686000","0","6","5fb4bf192bd9d1d91b3e7d1043836877d2f4d5f1f1dbdbef5f74f6ba6412611a","686001.5","528.4000000953674","77","1","swim","","","","",""
"dual-task","null","null","null","","arctic","arctic","499.7999999523163","","f","null","88","88","1","swim-dual-task","","f","lowercase","698000","0","6","5fb4bf192bd9d1d91b3e7d1043836877d2f4d5f1f1dbdbef5f74f6ba6412611a","698001.2999999523","499.7999999523163","88","1","swim","","","","",""
"dual-task","null","null","null","","arctic","arctic","353.2000000476837","","b","null","88","88","1","swim-dual-task","","b","lowercase","708000","0","6","5fb4bf192bd9d1d91b3e7d1043836877d2f4d5f1f1dbdbef5f74f6ba6412611a","708000.5","353.2000000476837","88","1","swim","","","","",""
"dual-task","null","null","null","","arctic","arctic","474.7000000476837","","b","null","88","88","1","swim-dual-task","","b","lowercase","720000","0","6","5fb4bf192bd9d1d91b3e7d1043836877d2f4d5f1f1dbdbef5f74f6ba6412611a","720001.5","474.7000000476837","88","1","swim","","","","",""
"dual-task","null","null","null","","arctic","arctic","447.2000000476837","","b","null","88","88","1","swim-dual-task","","b","lowercase","728000","0","6","5fb4bf192bd9d1d91b3e7d1043836877d2f4d5f1f1dbdbef5f74f6ba6412611a","728000.7000000477","447.2000000476837","88","1","swim","","","","",""
"dual-task","null","null","null","","arctic","arctic","521.3999998569489","","t","null","88","88","1","swim-dual-task","","t","lowercase","740000","0","6","5fb4bf192bd9d1d91b3e7d1043836877d2f4d5f1f1dbdbef5f74f6ba6412611a","740001.7000000477","521.3999998569489","88","1","swim","","","","",""
"dual-task","null","null","null","","arctic","arctic","949.3000001907349","","n","null","88","88","1","swim-dual-task","","n","lowercase","754000","0","6","5fb4bf192bd9d1d91b3e7d1043836877d2f4d5f1f1dbdbef5f74f6ba6412611a","754001.0999999046","949.3000001907349","88","1","swim","","","","",""
"dual-task","null","null","null","","arctic","arctic","1718","","h","null","88","88","1","swim-dual-task","","h","lowercase","762000","0","6","5fb4bf192bd9d1d91b3e7d1043836877d2f4d5f1f1dbdbef5f74f6ba6412611a","762000.2999999523","1718","88","1","swim","","","","",""
"dual-task","null","null","null","","arctic","arctic","856.7999999523163","","E","null","88","77","0","swim-dual-task","","E","uppercase","770000","0","6","5fb4bf192bd9d1d91b3e7d1043836877d2f4d5f1f1dbdbef5f74f6ba6412611a","770001.2000000477","856.7999999523163","88","0","swim","","","","",""
"dual-task","null","null","null","","arctic","arctic","740.5999999046326","","t","null","88","88","1","swim-dual-task","","t","lowercase","778000","0","6","5fb4bf192bd9d1d91b3e7d1043836877d2f4d5f1f1dbdbef5f74f6ba6412611a","778000.9000000954","740.5999999046326","88","1","swim","","","","",""
"dual-task","null","null","null","","arctic","arctic","435.09999990463257","","f","null","88","88","1","swim-dual-task","","f","lowercase","786000","0","6","5fb4bf192bd9d1d91b3e7d1043836877d2f4d5f1f1dbdbef5f74f6ba6412611a","786000.7999999523","435.09999990463257","88","1","swim","","","","",""
"dual-task","null","null","null","","arctic","arctic","446.90000009536743","","d","null","88","88","1","swim-dual-task","","d","lowercase","800000","0","6","5fb4bf192bd9d1d91b3e7d1043836877d2f4d5f1f1dbdbef5f74f6ba6412611a","800000.7000000477","446.90000009536743","88","1","swim","","","","",""
"audio-keyboard-response","62","1854944","0.0-6.0-2.0-1.0","5fb4bf192bd9d1d91b3e7d1043836877d2f4d5f1f1dbdbef5f74f6ba6412611a","arctic","arctic","null","","audio/story_swim.mp3","","null","","","","","","","","","","","","","","","","","","","",""
"html-button-response","63","1856363","0.0-6.0-2.0-2.0","5fb4bf192bd9d1d91b3e7d1043836877d2f4d5f1f1dbdbef5f74f6ba6412611a","arctic","arctic","1418","","<p>This concludes the story. Thank you for listening.</p><p>You will now answer some questions about the content of the story.</p>","0","","","","","","","","","","","","","","","","","","","","",""
"survey-multi-choice","64","1864831","0.0-6.0-2.0-3.0-0.0","5fb4bf192bd9d1d91b3e7d1043836877d2f4d5f1f1dbdbef5f74f6ba6412611a","arctic","arctic","8465","","<b>How did the narrator train for his swim test?</b>","","","","0","swim-comprehension","","","","","","","","","","","","","{""Q0"":""Swam at the lake every day""}","","","",""
"survey-multi-choice","65","1868880","0.0-6.0-2.0-3.0-0.1","5fb4bf192bd9d1d91b3e7d1043836877d2f4d5f1f1dbdbef5f74f6ba6412611a","arctic","arctic","3795","","<b>Where is the home of naval aviation?</b>","","","","0","swim-comprehension","","","","","","","","","","","","","{""Q0"":""Los Angeles""}","","","",""
"survey-multi-choice","66","1878195","0.0-6.0-2.0-3.0-0.2","5fb4bf192bd9d1d91b3e7d1043836877d2f4d5f1f1dbdbef5f74f6ba6412611a","arctic","arctic","9063","","<b>What was the final step of the first swim test in the pool?</b>","","","","0","swim-comprehension","","","","","","","","","","","","","{""Q0"":""Swim three laps of the pool underwater""}","","","",""
"survey-multi-choice","67","1886084","0.0-6.0-2.0-3.0-0.3","5fb4bf192bd9d1d91b3e7d1043836877d2f4d5f1f1dbdbef5f74f6ba6412611a","arctic","arctic","7636","","<b>What were the astronaut candidates trained to do at the naval air station?</b>","","","","1","swim-comprehension","","","","","","","","","","","","","{""Q0"":""Eject out of aircraft and survive in water long enough to be rescued""}","","","",""
"survey-multi-choice","68","1898825","0.0-6.0-2.0-3.0-0.4","5fb4bf192bd9d1d91b3e7d1043836877d2f4d5f1f1dbdbef5f74f6ba6412611a","arctic","arctic","12488","","<b>How many astronaut candidates passed the first swim test?</b>","","","","0","swim-comprehension","","","","","","","","","","","","","{""Q0"":""Two""}","","","",""
"survey-multi-choice","69","1904908","0.0-6.0-2.0-3.0-0.5","5fb4bf192bd9d1d91b3e7d1043836877d2f4d5f1f1dbdbef5f74f6ba6412611a","arctic","arctic","5830","","<b>What is the narrator afraid of, aside from the water?</b>","","","","1","swim-comprehension","","","","","","","","","","","","","{""Q0"":""Heights""}","","","",""
"survey-multi-choice","70","1909910","0.0-6.0-2.0-3.0-0.6","5fb4bf192bd9d1d91b3e7d1043836877d2f4d5f1f1dbdbef5f74f6ba6412611a","arctic","arctic","4749","","<b>How often does the narrator swim, now that he is a good swimmer?</b>","","","","1","swim-comprehension","","","","","","","","","","","","","{""Q0"":""Never swam again in his life""}","","","",""
"survey-multi-choice","71","1917290","0.0-6.0-2.0-3.0-0.7","5fb4bf192bd9d1d91b3e7d1043836877d2f4d5f1f1dbdbef5f74f6ba6412611a","arctic","arctic","7128","","<b>What gave the narrator his greatest feeling of accomplishment?</b>","","","","1","swim-comprehension","","","","","","","","","","","","","{""Q0"":""Passing the water survival course""}","","","",""
"survey-multi-choice","72","1922048","0.0-6.0-2.0-3.0-0.8","5fb4bf192bd9d1d91b3e7d1043836877d2f4d5f1f1dbdbef5f74f6ba6412611a","arctic","arctic","4504","","<b>How many astronaut candidates reported for duty at the Johnson Space Center?</b>","","","","1","swim-comprehension","","","","","","","","","","","","","{""Q0"":""Forty-four""}","","","",""
"survey-multi-choice","73","1927437","0.0-6.0-2.0-3.0-0.9","5fb4bf192bd9d1d91b3e7d1043836877d2f4d5f1f1dbdbef5f74f6ba6412611a","arctic","arctic","5136","","<b>How many times did the astronaut candidates have to complete the final exercise to pass?</b>","","","","1","swim-comprehension","","","","","","","","","","","","","{""Q0"":""Two""}","","","",""
"html-button-response","74","1929630","0.0-6.0-2.0-4.0","5fb4bf192bd9d1d91b3e7d1043836877d2f4d5f1f1dbdbef5f74f6ba6412611a","arctic","arctic","1941","","<p>Thank you for your responses.</p><p>You will now answer some questions about your impressions of the story.</p>","0","","","","","","","","","","","","","","","","","","","","",""
"html-button-response","75","1930776","0.0-6.0-2.0-5.0-0.0","5fb4bf192bd9d1d91b3e7d1043836877d2f4d5f1f1dbdbef5f74f6ba6412611a","arctic","arctic","1146","","E1","5","","","","swim-engagement","","","","","","","","","","","","","","6","enjoyment","",""
"html-button-response","76","1932167","0.0-6.0-2.0-5.0-0.1","5fb4bf192bd9d1d91b3e7d1043836877d2f4d5f1f1dbdbef5f74f6ba6412611a","arctic","arctic","1138","","E6","5","","","","swim-engagement","","","","","","","","","","","","","","6","enjoyment","",""
"html-button-response","77","1935856","0.0-6.0-2.0-5.0-0.2","5fb4bf192bd9d1d91b3e7d1043836877d2f4d5f1f1dbdbef5f74f6ba6412611a","arctic","arctic","3439","","A4","5","","","","swim-engagement","","","","","","","","","","","","","","6","absorption","",""
"html-button-response","78","1938974","0.0-6.0-2.0-5.0-0.3","5fb4bf192bd9d1d91b3e7d1043836877d2f4d5f1f1dbdbef5f74f6ba6412611a","arctic","arctic","2866","","A2","6","","","","swim-engagement","","","","","","","","","","","","","","7","absorption","",""
"html-button-response","79","1940901","0.0-6.0-2.0-5.0-0.4","5fb4bf192bd9d1d91b3e7d1043836877d2f4d5f1f1dbdbef5f74f6ba6412611a","arctic","arctic","1676","","E8","6","","","","swim-engagement","","","","","","","","","","","","","","7","enjoyment","",""
"html-button-response","80","1942285","0.0-6.0-2.0-5.0-0.5","5fb4bf192bd9d1d91b3e7d1043836877d2f4d5f1f1dbdbef5f74f6ba6412611a","arctic","arctic","1132","","E7","5","","","","swim-engagement","","","","","","","","","","","","","","6","enjoyment","",""
"html-button-response","81","1945645","0.0-6.0-2.0-5.0-0.6","5fb4bf192bd9d1d91b3e7d1043836877d2f4d5f1f1dbdbef5f74f6ba6412611a","arctic","arctic","3108","","MS1","5","","","","swim-engagement","","","","","","","","","","","","","","6","mental-sim","",""
"html-button-response","82","1947187","0.0-6.0-2.0-5.0-0.7","5fb4bf192bd9d1d91b3e7d1043836877d2f4d5f1f1dbdbef5f74f6ba6412611a","arctic","arctic","1291","","A1","5","","","","swim-engagement","","","","","","","","","","","","","","6","absorption","",""
"html-button-response","83","1949586","0.0-6.0-2.0-5.0-0.8","5fb4bf192bd9d1d91b3e7d1043836877d2f4d5f1f1dbdbef5f74f6ba6412611a","arctic","arctic","2146","","EE4","5","","","","swim-engagement","","","","","","","","","","","","","","6","emo-engage","",""
"html-button-response","84","1950747","0.0-6.0-2.0-5.0-0.9","5fb4bf192bd9d1d91b3e7d1043836877d2f4d5f1f1dbdbef5f74f6ba6412611a","arctic","arctic","911","","E10","5","","","","swim-engagement","","","","","","","","","","","","","","6","enjoyment","",""
"html-button-response","85","1954510","0.0-6.0-2.0-5.0-0.10","5fb4bf192bd9d1d91b3e7d1043836877d2f4d5f1f1dbdbef5f74f6ba6412611a","arctic","arctic","3511","","MS3","4","","","","swim-engagement","","","","","","","","","","","","","","5","mental-sim","",""
"html-button-response","86","1956287","0.0-6.0-2.0-5.0-0.11","5fb4bf192bd9d1d91b3e7d1043836877d2f4d5f1f1dbdbef5f74f6ba6412611a","arctic","arctic","1526","","EE3","5","","","","swim-engagement","","","","","","","","","","","","","","6","emo-engage","",""
"html-button-response","87","1958416","0.0-6.0-2.0-5.0-0.12","5fb4bf192bd9d1d91b3e7d1043836877d2f4d5f1f1dbdbef5f74f6ba6412611a","arctic","arctic","1877","","A3","1","","","","swim-engagement","","","","","","","","","","","","","","2","absorption","",""
"html-button-response","88","1961533","0.0-6.0-2.0-5.0-0.13","5fb4bf192bd9d1d91b3e7d1043836877d2f4d5f1f1dbdbef5f74f6ba6412611a","arctic","arctic","2865","","EE5","4","","","","swim-engagement","","","","","","","","","","","","","","5","emo-engage","",""
"html-button-response","89","1964084","0.0-6.0-2.0-5.0-0.14","5fb4bf192bd9d1d91b3e7d1043836877d2f4d5f1f1dbdbef5f74f6ba6412611a","arctic","arctic","2298","","MS2","5","","","","swim-engagement","","","","","","","","","","","","","","6","mental-sim","",""
"html-button-response","90","1966341","0.0-6.0-2.0-5.0-0.15","5fb4bf192bd9d1d91b3e7d1043836877d2f4d5f1f1dbdbef5f74f6ba6412611a","arctic","arctic","2006","","EE1","4","","","","swim-engagement","","","","","","","","","","","","","","5","emo-engage","",""
"html-button-response","91","1967982","0.0-6.0-2.0-5.0-0.16","5fb4bf192bd9d1d91b3e7d1043836877d2f4d5f1f1dbdbef5f74f6ba6412611a","arctic","arctic","1389","","EE2","5","","","","swim-engagement","","","","","","","","","","","","","","6","emo-engage","",""
"html-button-response","92","1969666","0.0-6.0-2.0-5.0-0.17","5fb4bf192bd9d1d91b3e7d1043836877d2f4d5f1f1dbdbef5f74f6ba6412611a","arctic","arctic","1431","","A5","5","","","","swim-engagement","","","","","","","","","","","","","","6","absorption","",""
"html-button-response","93","1971465","0.0-8.0","5fb4bf192bd9d1d91b3e7d1043836877d2f4d5f1f1dbdbef5f74f6ba6412611a","arctic","arctic","1547","","<p>Thank you for your responses.</p><p>You will now answer some demographic, hearing, and general health questions.</p>","0","","","","","","","","","","","","","","","","","","","","",""
"survey-multi-choice","94","1973658","0.0-9.0-0.0","5fb4bf192bd9d1d91b3e7d1043836877d2f4d5f1f1dbdbef5f74f6ba6412611a","arctic","arctic","2192","","","","","","","survey","","","","","","","","","","","","","{""Q0"":""Chrome""}","","","browser",""
"survey-text","95","1976209","0.0-9.0-1.0","5fb4bf192bd9d1d91b3e7d1043836877d2f4d5f1f1dbdbef5f74f6ba6412611a","arctic","arctic","2297.600000143051","","","","","","","survey","","","","","","","","","","","","","{""AGE"":""29""}","","","age","29"
"survey-multi-choice","96","1977957","0.0-9.0-2.0","5fb4bf192bd9d1d91b3e7d1043836877d2f4d5f1f1dbdbef5f74f6ba6412611a","arctic","arctic","1496","","","","","","","survey","","","","","","","","","","","","","{""Q0"":""Female""}","","","gender","Female"
"survey-multi-choice","97","1980122","0.0-9.0-4.0","5fb4bf192bd9d1d91b3e7d1043836877d2f4d5f1f1dbdbef5f74f6ba6412611a","arctic","arctic","1913","","","","","","","survey","","","","","","","","","","","","","{""Q0"":""Right""}","","","handedness","Right"
"survey-multi-choice","98","1982408","0.0-9.0-5.0","5fb4bf192bd9d1d91b3e7d1043836877d2f4d5f1f1dbdbef5f74f6ba6412611a","arctic","arctic","2032","","","","","","","survey","","","","","","","","","","","","","{""Q0"":""Bachelor's Degree""}","","","education","Bachelor's Degree"
"survey-text","99","1986263","0.0-10.0-0.0","5fb4bf192bd9d1d91b3e7d1043836877d2f4d5f1f1dbdbef5f74f6ba6412611a","arctic","arctic","3601.399999856949","","","","","","","survey","","","","","","","","","","","","","{""L1"":""English""}","","","first-language","English"
"survey-text","100","1995048","0.0-10.0-1.0","5fb4bf192bd9d1d91b3e7d1043836877d2f4d5f1f1dbdbef5f74f6ba6412611a","arctic","arctic","8529.200000047684","","","","","","","survey","","","","","","","","","","","","","{""L2name"":""Spanish"",""L2fluency"":""4"",""L3name"":"""",""L3fluency"":"""",""L4name"":"""",""L4fluency"":""""}","","","additional-languages","{""L2name"":""Spanish"",""L2fluency"":""4"",""L3name"":"""",""L3fluency"":"""",""L4name"":"""",""L4fluency"":""""}"
"survey-multi-choice","101","1997564","0.0-10.0-2.0","5fb4bf192bd9d1d91b3e7d1043836877d2f4d5f1f1dbdbef5f74f6ba6412611a","arctic","arctic","2263","","","","","","","survey","","","","","","","","","","","","","{""Q0"":""No""}","","","hearing-aid","No"
"survey-multi-choice","102","2000529","0.0-10.0-3.0","5fb4bf192bd9d1d91b3e7d1043836877d2f4d5f1f1dbdbef5f74f6ba6412611a","arctic","arctic","2713","","","","","","","survey","","","","","","","","","","","","","{""Q0"":""Never""}","","","ringing-ears","Never"
"survey-multi-choice","103","2002850","0.0-10.0-5.0","5fb4bf192bd9d1d91b3e7d1043836877d2f4d5f1f1dbdbef5f74f6ba6412611a","arctic","arctic","2068","","","","","","","survey","","","","","","","","","","","","","{""Q0"":""No""}","","","neuro-disease","No"
"survey-multi-choice","104","2006526","0.0-10.0-7.0","5fb4bf192bd9d1d91b3e7d1043836877d2f4d5f1f1dbdbef5f74f6ba6412611a","arctic","arctic","3424","","","","","","","survey","","","","","","","","","","","","","{""Q0"":""No""}","","","take-meds","No"
"survey-text","105","2008218","0.0-10.0-9.0","5fb4bf192bd9d1d91b3e7d1043836877d2f4d5f1f1dbdbef5f74f6ba6412611a","arctic","arctic","1436.0999999046326","","","","","","","survey","","","","","","","","","","","","","{""HC"":""""}","","","health-concerns",""
"html-button-response","106","2010116","0.0-11.0-0.0","5fb4bf192bd9d1d91b3e7d1043836877d2f4d5f1f1dbdbef5f74f6ba6412611a","arctic","arctic","1647","","<p>How would you describe your musical skills/experiences?</p>","4","","","","survey","","","","","","","","","","","","","","","","music-skill","5"
"survey-multi-choice","107","2012560","0.0-11.0-1.0","5fb4bf192bd9d1d91b3e7d1043836877d2f4d5f1f1dbdbef5f74f6ba6412611a","arctic","arctic","2191","","","","","","","survey","","","","","","","","","","","","","{""Q0"":""No""}","","","music-instrument","No"
"html-button-response","108","2015799","0.0-12.0-0.0","5fb4bf192bd9d1d91b3e7d1043836877d2f4d5f1f1dbdbef5f74f6ba6412611a","arctic","arctic","2987","","<p>How would you describe your general hearing abilities?</p>","5","","","","survey","","","","","","","","","","","","","","","","ssq-01","6"
"html-button-response","109","2020334","0.0-12.0-1.0","5fb4bf192bd9d1d91b3e7d1043836877d2f4d5f1f1dbdbef5f74f6ba6412611a","arctic","arctic","4283","","<p>When you talk with someone at a place that strongly reverberates/echoes (e.g., in a church or train station),</br>can you understand what the person says?</p>","6","","","","survey","","","","","","","","","","","","","","","","ssq-02","6"
"html-button-response","110","2022734","0.0-12.0-2.0","5fb4bf192bd9d1d91b3e7d1043836877d2f4d5f1f1dbdbef5f74f6ba6412611a","arctic","arctic","2149","","<p>When you are with a group (~5 people) in a lively restaurant, can you follow the group's conversation?</p>","8","","","","survey","","","","","","","","","","","","","","","","ssq-03","8"
"html-button-response","111","2026066","0.0-12.0-3.0","5fb4bf192bd9d1d91b3e7d1043836877d2f4d5f1f1dbdbef5f74f6ba6412611a","arctic","arctic","3079","","<p>Based on the sound of a bus or truck, can you tell whether it is moving towards or away from you?</p>","8","","","","survey","","","","","","","","","","","","","","","","ssq-04","8"
"html-button-response","112","2029147","0.0-12.0-4.0","5fb4bf192bd9d1d91b3e7d1043836877d2f4d5f1f1dbdbef5f74f6ba6412611a","arctic","arctic","2830","","<p>When you are in an unknown environment, can you tell from which direction a brief sound originates?</p>","7","","","","survey","","","","","","","","","","","","","","","","ssq-05","7"
"html-button-response","113","2033138","0.0-12.0-5.0","5fb4bf192bd9d1d91b3e7d1043836877d2f4d5f1f1dbdbef5f74f6ba6412611a","arctic","arctic","3739","","<p>Are you able to ignore distracting sounds when you concentrate on a specific aspect of your acoustic surrounding?</p>","7","","","","survey","","","","","","","","","","","","","","","","ssq-06","7"
"fullscreen","114","2034390","0.0-13.0","5fb4bf192bd9d1d91b3e7d1043836877d2f4d5f1f1dbdbef5f74f6ba6412611a","arctic","arctic","","","","","","","","","true","","","","","","","","","","","","","","","",""
