"trial_type","trial_index","time_elapsed","internal_node_id","ParticipantID","firstStory","scramStory","rt","url","stimulus","button_pressed","key_press","correctRESP","correct","designation","success","letterStim","letterType","ONSET","TIMEOUT","CONDITION","Participant","ONSET_ACTUAL","RT","RESP","ACC","STORY","responses","response","type","surveyQuestion","QRESP"
"pavlovia","0","4","0.0-0.0","f9c2263490d8b601ac040df49f409cbe6153a8197c305277a8dd51d08805f1e2","swim","swim","","","","","","","","","","","","","","","","","","","","","","","","",""
"external-html","1","115871","0.0-1.0","f9c2263490d8b601ac040df49f409cbe6153a8197c305277a8dd51d08805f1e2","swim","swim","115702","consent/consent_updated.html","","","","","","","","","","","","","","","","","","","","","","",""
"html-button-response","2","131328","0.0-2.0-0.0","f9c2263490d8b601ac040df49f409cbe6153a8197c305277a8dd51d08805f1e2","swim","swim","15455","","<p>Before we begin the main task, you will complete a short volume calibration and headphone check.</p><p>Please make sure you are in a quiet listening environment, that you are wearing headphones, and that your computer's volume is turned on.<p></p>","0","","","","","","","","","","","","","","","","","","","","",""
"html-button-response","3","135263","0.0-2.0-1.0","f9c2263490d8b601ac040df49f409cbe6153a8197c305277a8dd51d08805f1e2","swim","swim","3684","","<p>The volume calibration will be first.</p><p>You will hear a thirty-second noise. Please adjust your computer's volume so that this noise is being presented at a comfortable level.<p></p>","0","","","","","","","","","","","","","","","","","","","","",""
"audio-button-response","4","142300","0.0-2.0-2.0","f9c2263490d8b601ac040df49f409cbe6153a8197c305277a8dd51d08805f1e2","swim","swim","6786","","audio/volumetest.mp3","0","","","","","","","","","","","","","","","","","","","","",""
"html-keyboard-response","5","149267","0.0-3.0-0.0","f9c2263490d8b601ac040df49f409cbe6153a8197c305277a8dd51d08805f1e2","swim","swim","6966","","<p>You will now complete a short headphone check.</p><p>On each trial, you will hear three tones. One of these tones will be quieter than the others. Your task is to identify whether the quiet tone occurred first, second, or third.</p><p>There are six trials in total.<p></p><p></p>(Press SPACEBAR to begin)","","32","","","","","","","","","","","","","","","","","","","",""
"html-keyboard-response","6","150043","0.0-3.0-1.0-0.0","f9c2263490d8b601ac040df49f409cbe6153a8197c305277a8dd51d08805f1e2","swim","swim","null","","<div style=""font-size:60px;"">+</div>","","null","","","","","","","","","","","","","","","","","","","",""
"audio-button-response","7","155144","0.0-3.0-1.0-1.0","f9c2263490d8b601ac040df49f409cbe6153a8197c305277a8dd51d08805f1e2","swim","swim","5100","","audio/t1_2.mp3","0","","0","1","headphone-test","","","","","","","","","","","","","","","","",""
"html-keyboard-response","8","155657","0.0-3.0-1.0-2.0","f9c2263490d8b601ac040df49f409cbe6153a8197c305277a8dd51d08805f1e2","swim","swim","null","","<p>Correct</p>","","null","","","","","","","","","","","","","","","","","","","",""
"html-keyboard-response","9","156158","0.0-3.0-1.0-0.1","f9c2263490d8b601ac040df49f409cbe6153a8197c305277a8dd51d08805f1e2","swim","swim","null","","<div style=""font-size:60px;"">+</div>","","null","","","","","","","","","","","","","","","","","","","",""
"audio-button-response","10","161178","0.0-3.0-1.0-1.1","f9c2263490d8b601ac040df49f409cbe6153a8197c305277a8dd51d08805f1e2","swim","swim","5019","","audio/t3_2.mp3","2","","2","1","headphone-test","","","","","","","","","","","","","","","","",""
"html-keyboard-response","11","161687","0.0-3.0-1.0-2.1","f9c2263490d8b601ac040df49f409cbe6153a8197c305277a8dd51d08805f1e2","swim","swim","null","","<p>Correct</p>","","null","","","","","","","","","","","","","","","","","","","",""
"html-keyboard-response","12","162193","0.0-3.0-1.0-0.2","f9c2263490d8b601ac040df49f409cbe6153a8197c305277a8dd51d08805f1e2","swim","swim","null","","<div style=""font-size:60px;"">+</div>","","null","","","","","","","","","","","","","","","","","","","",""
"audio-button-response","13","166824","0.0-3.0-1.0-1.2","f9c2263490d8b601ac040df49f409cbe6153a8197c305277a8dd51d08805f1e2","swim","swim","4630","","audio/t2_1.mp3","1","","1","1","headphone-test","","","","","","","","","","","","","","","","",""
"html-keyboard-response","14","167335","0.0-3.0-1.0-2.2","f9c2263490d8b601ac040df49f409cbe6153a8197c305277a8dd51d08805f1e2","swim","swim","null","","<p>Correct</p>","","null","","","","","","","","","","","","","","","","","","","",""
"html-keyboard-response","15","167837","0.0-3.0-1.0-0.3","f9c2263490d8b601ac040df49f409cbe6153a8197c305277a8dd51d08805f1e2","swim","swim","null","","<div style=""font-size:60px;"">+</div>","","null","","","","","","","","","","","","","","","","","","","",""
"audio-button-response","16","172899","0.0-3.0-1.0-1.3","f9c2263490d8b601ac040df49f409cbe6153a8197c305277a8dd51d08805f1e2","swim","swim","5062","","audio/t2_2.mp3","1","","1","1","headphone-test","","","","","","","","","","","","","","","","",""
"html-keyboard-response","17","173407","0.0-3.0-1.0-2.3","f9c2263490d8b601ac040df49f409cbe6153a8197c305277a8dd51d08805f1e2","swim","swim","null","","<p>Correct</p>","","null","","","","","","","","","","","","","","","","","","","",""
"html-keyboard-response","18","173908","0.0-3.0-1.0-0.4","f9c2263490d8b601ac040df49f409cbe6153a8197c305277a8dd51d08805f1e2","swim","swim","null","","<div style=""font-size:60px;"">+</div>","","null","","","","","","","","","","","","","","","","","","","",""
"audio-button-response","19","178605","0.0-3.0-1.0-1.4","f9c2263490d8b601ac040df49f409cbe6153a8197c305277a8dd51d08805f1e2","swim","swim","4695","","audio/t3_1.mp3","2","","2","1","headphone-test","","","","","","","","","","","","","","","","",""
"html-keyboard-response","20","179114","0.0-3.0-1.0-2.4","f9c2263490d8b601ac040df49f409cbe6153a8197c305277a8dd51d08805f1e2","swim","swim","null","","<p>Correct</p>","","null","","","","","","","","","","","","","","","","","","","",""
"html-keyboard-response","21","179616","0.0-3.0-1.0-0.5","f9c2263490d8b601ac040df49f409cbe6153a8197c305277a8dd51d08805f1e2","swim","swim","null","","<div style=""font-size:60px;"">+</div>","","null","","","","","","","","","","","","","","","","","","","",""
"audio-button-response","22","184233","0.0-3.0-1.0-1.5","f9c2263490d8b601ac040df49f409cbe6153a8197c305277a8dd51d08805f1e2","swim","swim","4617","","audio/t1_1.mp3","0","","0","1","headphone-test","","","","","","","","","","","","","","","","",""
"html-keyboard-response","23","184746","0.0-3.0-1.0-2.5","f9c2263490d8b601ac040df49f409cbe6153a8197c305277a8dd51d08805f1e2","swim","swim","null","","<p>Correct</p>","","null","","","","","","","","","","","","","","","","","","","",""
"fullscreen","24","270745","0.0-4.0","f9c2263490d8b601ac040df49f409cbe6153a8197c305277a8dd51d08805f1e2","swim","swim","","","","","","","","","true","","","","","","","","","","","","","","","",""
"html-button-response","25","281052","0.0-5.0-0.0","f9c2263490d8b601ac040df49f409cbe6153a8197c305277a8dd51d08805f1e2","swim","swim","10307","","<p>There are two blocks to this experiment.</p><p>In each block, you will hear a ~13.5 minute story. One of the stories will be scrambled. Please listen carefully to both stories and understand them as best you can.</p><p>After each story, you will be asked some questions to assess your comprehension.</p>","0","","","","","","","","","","","","","","","","","","","","",""
"html-button-response","26","301607","0.0-5.0-1.0","f9c2263490d8b601ac040df49f409cbe6153a8197c305277a8dd51d08805f1e2","swim","swim","20555","","<p>During each story, there will be an additional task.</p><p>A letter will occasionally appear on the screen.</br>Your job is to - as quickly as you can - decide whether the letter is lowercase or uppercase and press one of two keys on the keyboard:</p><p>If the letter is <b>lowercase</b>, press key &lt;<b>x</b>&gt;.</p><p>If the letter is <b>uppercase</b>, press key &lt;<b>m</b>&gt;.</p>","0","","","","","","","","","","","","","","","","","","","","",""
"html-keyboard-response","27","312379","0.0-5.0-2.0","f9c2263490d8b601ac040df49f409cbe6153a8197c305277a8dd51d08805f1e2","swim","swim","10772","","<p>Because we want your responses to be as quick as possible, please keep your index fingers over the keys while listening.</p><p>Each block lasts about 20 minutes.</p><p><b>Press &lt;x&gt; or &lt;m&gt; to start the first block!</b></p>","","88","","","","","","","","","","","","","","","","","","","",""
"html-keyboard-response","28","312880","0.0-7.0-0.0-0.0","f9c2263490d8b601ac040df49f409cbe6153a8197c305277a8dd51d08805f1e2","swim","swim","null","","<div style=""font-size:60px;"" tabindex=""0"">+</div>","","null","","","","","","","","","","","","","","","","","","","",""
"dual-task","null","null","null","","swim","swim","857.7000000476837","","e","null","88","88","1","swim-dual-task","","e","lowercase","16000","0","5","f9c2263490d8b601ac040df49f409cbe6153a8197c305277a8dd51d08805f1e2","16007.400000095367","857.7000000476837","88","1","swim","","","","",""
"dual-task","null","null","null","","swim","swim","1119","","T","null","77","77","1","swim-dual-task","","T","uppercase","26000","0","5","f9c2263490d8b601ac040df49f409cbe6153a8197c305277a8dd51d08805f1e2","26002.400000095367","1119","77","1","swim","","","","",""
"dual-task","null","null","null","","swim","swim","693.8999998569489","","f","null","88","88","1","swim-dual-task","","f","lowercase","38000","0","5","f9c2263490d8b601ac040df49f409cbe6153a8197c305277a8dd51d08805f1e2","38003.60000014305","693.8999998569489","88","1","swim","","","","",""
"dual-task","null","null","null","","swim","swim","1134.7000000476837","","g","null","88","88","1","swim-dual-task","","g","lowercase","48000","0","5","f9c2263490d8b601ac040df49f409cbe6153a8197c305277a8dd51d08805f1e2","48002.60000014305","1134.7000000476837","88","1","swim","","","","",""
"dual-task","null","null","null","","swim","swim","896.2000000476837","","h","null","88","88","1","swim-dual-task","","h","lowercase","54000","0","5","f9c2263490d8b601ac040df49f409cbe6153a8197c305277a8dd51d08805f1e2","54000.700000047684","896.2000000476837","88","1","swim","","","","",""
"dual-task","null","null","null","","swim","swim","897.5999999046326","","f","null","88","88","1","swim-dual-task","","f","lowercase","64000","0","5","f9c2263490d8b601ac040df49f409cbe6153a8197c305277a8dd51d08805f1e2","64007.700000047684","897.5999999046326","88","1","swim","","","","",""
"dual-task","null","null","null","","swim","swim","965.5","","B","null","77","77","1","swim-dual-task","","B","uppercase","74000","0","5","f9c2263490d8b601ac040df49f409cbe6153a8197c305277a8dd51d08805f1e2","74003.70000004768","965.5","77","1","swim","","","","",""
"dual-task","null","null","null","","swim","swim","1092.2999999523163","","r","null","88","88","1","swim-dual-task","","r","lowercase","80000","0","5","f9c2263490d8b601ac040df49f409cbe6153a8197c305277a8dd51d08805f1e2","80012.5","1092.2999999523163","88","1","swim","","","","",""
"dual-task","null","null","null","","swim","swim","1026.4000000953674","","D","null","77","77","1","swim-dual-task","","D","uppercase","92000","0","5","f9c2263490d8b601ac040df49f409cbe6153a8197c305277a8dd51d08805f1e2","92014.70000004768","1026.4000000953674","77","1","swim","","","","",""
"dual-task","null","null","null","","swim","swim","1064.2999999523163","","A","null","77","77","1","swim-dual-task","","A","uppercase","104000","0","5","f9c2263490d8b601ac040df49f409cbe6153a8197c305277a8dd51d08805f1e2","104000.90000009537","1064.2999999523163","77","1","swim","","","","",""
"dual-task","null","null","null","","swim","swim","1563.1000001430511","","e","null","88","88","1","swim-dual-task","","e","lowercase","112000","0","5","f9c2263490d8b601ac040df49f409cbe6153a8197c305277a8dd51d08805f1e2","112013.70000004768","1563.1000001430511","88","1","swim","","","","",""
"dual-task","null","null","null","","swim","swim","1070.0999999046326","","R","null","77","77","1","swim-dual-task","","R","uppercase","126000","0","5","f9c2263490d8b601ac040df49f409cbe6153a8197c305277a8dd51d08805f1e2","126003.20000004768","1070.0999999046326","77","1","swim","","","","",""
"dual-task","null","null","null","","swim","swim","1061.5999999046326","","r","null","88","88","1","swim-dual-task","","r","lowercase","138000","0","5","f9c2263490d8b601ac040df49f409cbe6153a8197c305277a8dd51d08805f1e2","138011.80000019073","1061.5999999046326","88","1","swim","","","","",""
"dual-task","null","null","null","","swim","swim","1110","","A","null","77","77","1","swim-dual-task","","A","uppercase","144000","0","5","f9c2263490d8b601ac040df49f409cbe6153a8197c305277a8dd51d08805f1e2","144010.90000009537","1110","77","1","swim","","","","",""
"dual-task","null","null","null","","swim","swim","555","","R","null","77","77","1","swim-dual-task","","R","uppercase","156000","0","5","f9c2263490d8b601ac040df49f409cbe6153a8197c305277a8dd51d08805f1e2","156006.30000019073","555","77","1","swim","","","","",""
"dual-task","null","null","null","","swim","swim","607.2999999523163","","E","null","77","77","1","swim-dual-task","","E","uppercase","168000","0","5","f9c2263490d8b601ac040df49f409cbe6153a8197c305277a8dd51d08805f1e2","168010","607.2999999523163","77","1","swim","","","","",""
"dual-task","null","null","null","","swim","swim","594.1000001430511","","G","null","77","77","1","swim-dual-task","","G","uppercase","178000","0","5","f9c2263490d8b601ac040df49f409cbe6153a8197c305277a8dd51d08805f1e2","178007","594.1000001430511","77","1","swim","","","","",""
"dual-task","null","null","null","","swim","swim","NA","","d","null","NA","88","0","swim-dual-task","","d","lowercase","186000","1","5","f9c2263490d8b601ac040df49f409cbe6153a8197c305277a8dd51d08805f1e2","186014.60000014305","NA","NA","0","swim","","","","",""
"dual-task","null","null","null","","swim","swim","1570.9000000953674","","e","null","88","88","1","swim-dual-task","","e","lowercase","194000","0","5","f9c2263490d8b601ac040df49f409cbe6153a8197c305277a8dd51d08805f1e2","194006.5","1570.9000000953674","88","1","swim","","","","",""
"dual-task","null","null","null","","swim","swim","810.5","","b","null","88","88","1","swim-dual-task","","b","lowercase","204000","0","5","f9c2263490d8b601ac040df49f409cbe6153a8197c305277a8dd51d08805f1e2","204006.30000019073","810.5","88","1","swim","","","","",""
"dual-task","null","null","null","","swim","swim","752.4000000953674","","H","null","77","77","1","swim-dual-task","","H","uppercase","212000","0","5","f9c2263490d8b601ac040df49f409cbe6153a8197c305277a8dd51d08805f1e2","212008.90000009537","752.4000000953674","77","1","swim","","","","",""
"dual-task","null","null","null","","swim","swim","616.2999999523163","","N","null","77","77","1","swim-dual-task","","N","uppercase","224000","0","5","f9c2263490d8b601ac040df49f409cbe6153a8197c305277a8dd51d08805f1e2","224009.10000014305","616.2999999523163","77","1","swim","","","","",""
"dual-task","null","null","null","","swim","swim","1177.7000000476837","","B","null","77","77","1","swim-dual-task","","B","uppercase","236000","0","5","f9c2263490d8b601ac040df49f409cbe6153a8197c305277a8dd51d08805f1e2","236007.70000004768","1177.7000000476837","77","1","swim","","","","",""
"dual-task","null","null","null","","swim","swim","595.6000001430511","","F","null","77","77","1","swim-dual-task","","F","uppercase","248000","0","5","f9c2263490d8b601ac040df49f409cbe6153a8197c305277a8dd51d08805f1e2","248013.70000004768","595.6000001430511","77","1","swim","","","","",""
"dual-task","null","null","null","","swim","swim","616.6000001430511","","q","null","88","88","1","swim-dual-task","","q","lowercase","254000","0","5","f9c2263490d8b601ac040df49f409cbe6153a8197c305277a8dd51d08805f1e2","254000.20000004768","616.6000001430511","88","1","swim","","","","",""
"dual-task","null","null","null","","swim","swim","611.4000000953674","","d","null","88","88","1","swim-dual-task","","d","lowercase","266000","0","5","f9c2263490d8b601ac040df49f409cbe6153a8197c305277a8dd51d08805f1e2","266006","611.4000000953674","88","1","swim","","","","",""
"dual-task","null","null","null","","swim","swim","615.2000000476837","","D","null","77","77","1","swim-dual-task","","D","uppercase","276000","0","5","f9c2263490d8b601ac040df49f409cbe6153a8197c305277a8dd51d08805f1e2","276001.7000000477","615.2000000476837","77","1","swim","","","","",""
"dual-task","null","null","null","","swim","swim","926.4000000953674","","q","null","88","88","1","swim-dual-task","","q","lowercase","290000","0","5","f9c2263490d8b601ac040df49f409cbe6153a8197c305277a8dd51d08805f1e2","290010.90000009537","926.4000000953674","88","1","swim","","","","",""
"dual-task","null","null","null","","swim","swim","628.7000000476837","","N","null","77","77","1","swim-dual-task","","N","uppercase","298000","0","5","f9c2263490d8b601ac040df49f409cbe6153a8197c305277a8dd51d08805f1e2","298004","628.7000000476837","77","1","swim","","","","",""
"dual-task","null","null","null","","swim","swim","472.2000000476837","","a","null","88","88","1","swim-dual-task","","a","lowercase","308000","0","5","f9c2263490d8b601ac040df49f409cbe6153a8197c305277a8dd51d08805f1e2","308001.2000000477","472.2000000476837","88","1","swim","","","","",""
"dual-task","null","null","null","","swim","swim","586.8999998569489","","D","null","77","77","1","swim-dual-task","","D","uppercase","320000","0","5","f9c2263490d8b601ac040df49f409cbe6153a8197c305277a8dd51d08805f1e2","320006.60000014305","586.8999998569489","77","1","swim","","","","",""
"dual-task","null","null","null","","swim","swim","545.3999998569489","","t","null","77","88","0","swim-dual-task","","t","lowercase","332000","0","5","f9c2263490d8b601ac040df49f409cbe6153a8197c305277a8dd51d08805f1e2","332000","545.3999998569489","77","0","swim","","","","",""
"dual-task","null","null","null","","swim","swim","592","","A","null","77","77","1","swim-dual-task","","A","uppercase","342000","0","5","f9c2263490d8b601ac040df49f409cbe6153a8197c305277a8dd51d08805f1e2","342001.40000009537","592","77","1","swim","","","","",""
"dual-task","null","null","null","","swim","swim","582.7999999523163","","D","null","77","77","1","swim-dual-task","","D","uppercase","354000","0","5","f9c2263490d8b601ac040df49f409cbe6153a8197c305277a8dd51d08805f1e2","354010.60000014305","582.7999999523163","77","1","swim","","","","",""
"dual-task","null","null","null","","swim","swim","NA","","T","null","NA","77","0","swim-dual-task","","T","uppercase","362000","1","5","f9c2263490d8b601ac040df49f409cbe6153a8197c305277a8dd51d08805f1e2","362009.90000009537","NA","NA","0","swim","","","","",""
"dual-task","null","null","null","","swim","swim","587","","Q","null","77","77","1","swim-dual-task","","Q","uppercase","370000","0","5","f9c2263490d8b601ac040df49f409cbe6153a8197c305277a8dd51d08805f1e2","370014.40000009537","587","77","1","swim","","","","",""
"dual-task","null","null","null","","swim","swim","532.2000000476837","","H","null","77","77","1","swim-dual-task","","H","uppercase","380000","0","5","f9c2263490d8b601ac040df49f409cbe6153a8197c305277a8dd51d08805f1e2","380012.60000014305","532.2000000476837","77","1","swim","","","","",""
"dual-task","null","null","null","","swim","swim","563.5999999046326","","b","null","88","88","1","swim-dual-task","","b","lowercase","388000","0","5","f9c2263490d8b601ac040df49f409cbe6153a8197c305277a8dd51d08805f1e2","388013.80000019073","563.5999999046326","88","1","swim","","","","",""
"dual-task","null","null","null","","swim","swim","411.40000009536743","","a","null","88","88","1","swim-dual-task","","a","lowercase","402000","0","5","f9c2263490d8b601ac040df49f409cbe6153a8197c305277a8dd51d08805f1e2","402005.90000009537","411.40000009536743","88","1","swim","","","","",""
"dual-task","null","null","null","","swim","swim","589.5","","G","null","77","77","1","swim-dual-task","","G","uppercase","412000","0","5","f9c2263490d8b601ac040df49f409cbe6153a8197c305277a8dd51d08805f1e2","412003.90000009537","589.5","77","1","swim","","","","",""
"dual-task","null","null","null","","swim","swim","473.90000009536743","","B","null","77","77","1","swim-dual-task","","B","uppercase","422000","0","5","f9c2263490d8b601ac040df49f409cbe6153a8197c305277a8dd51d08805f1e2","422015","473.90000009536743","77","1","swim","","","","",""
"dual-task","null","null","null","","swim","swim","500.59999990463257","","n","null","88","88","1","swim-dual-task","","n","lowercase","432000","0","5","f9c2263490d8b601ac040df49f409cbe6153a8197c305277a8dd51d08805f1e2","432004.80000019073","500.59999990463257","88","1","swim","","","","",""
"dual-task","null","null","null","","swim","swim","522.5","","d","null","88","88","1","swim-dual-task","","d","lowercase","444000","0","5","f9c2263490d8b601ac040df49f409cbe6153a8197c305277a8dd51d08805f1e2","444014.7000000477","522.5","88","1","swim","","","","",""
"dual-task","null","null","null","","swim","swim","472.7999999523163","","h","null","77","88","0","swim-dual-task","","h","lowercase","450000","0","5","f9c2263490d8b601ac040df49f409cbe6153a8197c305277a8dd51d08805f1e2","450000.2000000477","472.7999999523163","77","0","swim","","","","",""
"dual-task","null","null","null","","swim","swim","497.59999990463257","","G","null","77","77","1","swim-dual-task","","G","uppercase","464000","0","5","f9c2263490d8b601ac040df49f409cbe6153a8197c305277a8dd51d08805f1e2","464015.80000019073","497.59999990463257","77","1","swim","","","","",""
"dual-task","null","null","null","","swim","swim","680.7000000476837","","T","null","77","77","1","swim-dual-task","","T","uppercase","470000","0","5","f9c2263490d8b601ac040df49f409cbe6153a8197c305277a8dd51d08805f1e2","470000.2000000477","680.7000000476837","77","1","swim","","","","",""
"dual-task","null","null","null","","swim","swim","583.2000000476837","","N","null","77","77","1","swim-dual-task","","N","uppercase","482000","0","5","f9c2263490d8b601ac040df49f409cbe6153a8197c305277a8dd51d08805f1e2","482010.40000009537","583.2000000476837","77","1","swim","","","","",""
"dual-task","null","null","null","","swim","swim","800.2000000476837","","E","null","77","77","1","swim-dual-task","","E","uppercase","490000","0","5","f9c2263490d8b601ac040df49f409cbe6153a8197c305277a8dd51d08805f1e2","490008.60000014305","800.2000000476837","77","1","swim","","","","",""
"dual-task","null","null","null","","swim","swim","491.59999990463257","","H","null","77","77","1","swim-dual-task","","H","uppercase","500000","0","5","f9c2263490d8b601ac040df49f409cbe6153a8197c305277a8dd51d08805f1e2","500013.80000019073","491.59999990463257","77","1","swim","","","","",""
"dual-task","null","null","null","","swim","swim","550.1000001430511","","A","null","77","77","1","swim-dual-task","","A","uppercase","506000","0","5","f9c2263490d8b601ac040df49f409cbe6153a8197c305277a8dd51d08805f1e2","506010.7000000477","550.1000001430511","77","1","swim","","","","",""
"dual-task","null","null","null","","swim","swim","565.7999999523163","","n","null","88","88","1","swim-dual-task","","n","lowercase","516000","0","5","f9c2263490d8b601ac040df49f409cbe6153a8197c305277a8dd51d08805f1e2","516003.60000014305","565.7999999523163","88","1","swim","","","","",""
"dual-task","null","null","null","","swim","swim","502.59999990463257","","h","null","88","88","1","swim-dual-task","","h","lowercase","530000","0","5","f9c2263490d8b601ac040df49f409cbe6153a8197c305277a8dd51d08805f1e2","530010.7000000477","502.59999990463257","88","1","swim","","","","",""
"dual-task","null","null","null","","swim","swim","516.7000000476837","","R","null","77","77","1","swim-dual-task","","R","uppercase","542000","0","5","f9c2263490d8b601ac040df49f409cbe6153a8197c305277a8dd51d08805f1e2","542013.100000143","516.7000000476837","77","1","swim","","","","",""
"dual-task","null","null","null","","swim","swim","522.7000000476837","","F","null","77","77","1","swim-dual-task","","F","uppercase","552000","0","5","f9c2263490d8b601ac040df49f409cbe6153a8197c305277a8dd51d08805f1e2","552005.9000000954","522.7000000476837","77","1","swim","","","","",""
"dual-task","null","null","null","","swim","swim","628.3000001907349","","d","null","88","88","1","swim-dual-task","","d","lowercase","564000","0","5","f9c2263490d8b601ac040df49f409cbe6153a8197c305277a8dd51d08805f1e2","564013.5","628.3000001907349","88","1","swim","","","","",""
"dual-task","null","null","null","","swim","swim","563.7999999523163","","B","null","77","77","1","swim-dual-task","","B","uppercase","572000","0","5","f9c2263490d8b601ac040df49f409cbe6153a8197c305277a8dd51d08805f1e2","572013.100000143","563.7999999523163","77","1","swim","","","","",""
"dual-task","null","null","null","","swim","swim","566.2999999523163","","g","null","88","88","1","swim-dual-task","","g","lowercase","586000","0","5","f9c2263490d8b601ac040df49f409cbe6153a8197c305277a8dd51d08805f1e2","586011.100000143","566.2999999523163","88","1","swim","","","","",""
"dual-task","null","null","null","","swim","swim","484.39999985694885","","E","null","88","77","0","swim-dual-task","","E","uppercase","598000","0","5","f9c2263490d8b601ac040df49f409cbe6153a8197c305277a8dd51d08805f1e2","598005","484.39999985694885","88","0","swim","","","","",""
"dual-task","null","null","null","","swim","swim","564.2999999523163","","R","null","77","77","1","swim-dual-task","","R","uppercase","610000","0","5","f9c2263490d8b601ac040df49f409cbe6153a8197c305277a8dd51d08805f1e2","610005.2000000477","564.2999999523163","77","1","swim","","","","",""
"dual-task","null","null","null","","swim","swim","738.0999999046326","","t","null","88","88","1","swim-dual-task","","t","lowercase","616000","0","5","f9c2263490d8b601ac040df49f409cbe6153a8197c305277a8dd51d08805f1e2","616014.8000001907","738.0999999046326","88","1","swim","","","","",""
"dual-task","null","null","null","","swim","swim","511.2000000476837","","N","null","77","77","1","swim-dual-task","","N","uppercase","630000","0","5","f9c2263490d8b601ac040df49f409cbe6153a8197c305277a8dd51d08805f1e2","630010.2000000477","511.2000000476837","77","1","swim","","","","",""
"dual-task","null","null","null","","swim","swim","571.9000000953674","","f","null","88","88","1","swim-dual-task","","f","lowercase","642000","0","5","f9c2263490d8b601ac040df49f409cbe6153a8197c305277a8dd51d08805f1e2","642013.600000143","571.9000000953674","88","1","swim","","","","",""
"dual-task","null","null","null","","swim","swim","655.2999999523163","","E","null","77","77","1","swim-dual-task","","E","uppercase","650000","0","5","f9c2263490d8b601ac040df49f409cbe6153a8197c305277a8dd51d08805f1e2","650001.7000000477","655.2999999523163","77","1","swim","","","","",""
"dual-task","null","null","null","","swim","swim","576.7000000476837","","g","null","77","88","0","swim-dual-task","","g","lowercase","658000","0","5","f9c2263490d8b601ac040df49f409cbe6153a8197c305277a8dd51d08805f1e2","658008.7000000477","576.7000000476837","77","0","swim","","","","",""
"dual-task","null","null","null","","swim","swim","569.5999999046326","","T","null","77","77","1","swim-dual-task","","T","uppercase","666000","0","5","f9c2263490d8b601ac040df49f409cbe6153a8197c305277a8dd51d08805f1e2","666015.3000001907","569.5999999046326","77","1","swim","","","","",""
"dual-task","null","null","null","","swim","swim","497.7999999523163","","Q","null","77","77","1","swim-dual-task","","Q","uppercase","674000","0","5","f9c2263490d8b601ac040df49f409cbe6153a8197c305277a8dd51d08805f1e2","674007.5","497.7999999523163","77","1","swim","","","","",""
"dual-task","null","null","null","","swim","swim","514.6000001430511","","F","null","77","77","1","swim-dual-task","","F","uppercase","684000","0","5","f9c2263490d8b601ac040df49f409cbe6153a8197c305277a8dd51d08805f1e2","684007","514.6000001430511","77","1","swim","","","","",""
"dual-task","null","null","null","","swim","swim","633.7999999523163","","g","null","88","88","1","swim-dual-task","","g","lowercase","696000","0","5","f9c2263490d8b601ac040df49f409cbe6153a8197c305277a8dd51d08805f1e2","696007.600000143","633.7999999523163","88","1","swim","","","","",""
"dual-task","null","null","null","","swim","swim","647.3999998569489","","H","null","77","77","1","swim-dual-task","","H","uppercase","702000","0","5","f9c2263490d8b601ac040df49f409cbe6153a8197c305277a8dd51d08805f1e2","702001.600000143","647.3999998569489","77","1","swim","","","","",""
"dual-task","null","null","null","","swim","swim","616.4000000953674","","t","null","88","88","1","swim-dual-task","","t","lowercase","716000","0","5","f9c2263490d8b601ac040df49f409cbe6153a8197c305277a8dd51d08805f1e2","716008.9000000954","616.4000000953674","88","1","swim","","","","",""
"dual-task","null","null","null","","swim","swim","607.2000000476837","","b","null","88","88","1","swim-dual-task","","b","lowercase","726000","0","5","f9c2263490d8b601ac040df49f409cbe6153a8197c305277a8dd51d08805f1e2","726001.600000143","607.2000000476837","88","1","swim","","","","",""
"dual-task","null","null","null","","swim","swim","514.9000000953674","","F","null","77","77","1","swim-dual-task","","F","uppercase","732000","0","5","f9c2263490d8b601ac040df49f409cbe6153a8197c305277a8dd51d08805f1e2","732006.4000000954","514.9000000953674","77","1","swim","","","","",""
"dual-task","null","null","null","","swim","swim","640.5","","q","null","88","88","1","swim-dual-task","","q","lowercase","740000","0","5","f9c2263490d8b601ac040df49f409cbe6153a8197c305277a8dd51d08805f1e2","740008.5","640.5","88","1","swim","","","","",""
"dual-task","null","null","null","","swim","swim","734.5999999046326","","b","null","88","88","1","swim-dual-task","","b","lowercase","752000","0","5","f9c2263490d8b601ac040df49f409cbe6153a8197c305277a8dd51d08805f1e2","752002.7000000477","734.5999999046326","88","1","swim","","","","",""
"dual-task","null","null","null","","swim","swim","716.9000000953674","","n","null","88","88","1","swim-dual-task","","n","lowercase","764000","0","5","f9c2263490d8b601ac040df49f409cbe6153a8197c305277a8dd51d08805f1e2","764004.5","716.9000000953674","88","1","swim","","","","",""
"dual-task","null","null","null","","swim","swim","559.9000000953674","","h","null","88","88","1","swim-dual-task","","h","lowercase","776000","0","5","f9c2263490d8b601ac040df49f409cbe6153a8197c305277a8dd51d08805f1e2","776001.5","559.9000000953674","88","1","swim","","","","",""
"dual-task","null","null","null","","swim","swim","550.5999999046326","","a","null","88","88","1","swim-dual-task","","a","lowercase","786000","0","5","f9c2263490d8b601ac040df49f409cbe6153a8197c305277a8dd51d08805f1e2","786010.3000001907","550.5999999046326","88","1","swim","","","","",""
"dual-task","null","null","null","","swim","swim","716.7000000476837","","a","null","88","88","1","swim-dual-task","","a","lowercase","798000","0","5","f9c2263490d8b601ac040df49f409cbe6153a8197c305277a8dd51d08805f1e2","798012.7000000477","716.7000000476837","88","1","swim","","","","",""
"audio-keyboard-response","29","1122869","0.0-7.0-0.0-1.0","f9c2263490d8b601ac040df49f409cbe6153a8197c305277a8dd51d08805f1e2","swim","swim","null","","audio/story_swim_scrambled.mp3","","null","","","","","","","","","","","","","","","","","","","",""
"html-button-response","30","1125768","0.0-7.0-0.0-2.0","f9c2263490d8b601ac040df49f409cbe6153a8197c305277a8dd51d08805f1e2","swim","swim","2899","","<p>This concludes the story. Thank you for listening.</p><p>You will now answer some questions about the content of the story.</p>","0","","","","","","","","","","","","","","","","","","","","",""
"survey-multi-choice","31","1137145","0.0-7.0-0.0-3.0-0.0","f9c2263490d8b601ac040df49f409cbe6153a8197c305277a8dd51d08805f1e2","swim","swim","11374","","<b>What were the astronaut candidates trained to do at the naval air station?</b>","","","","1","swim-comprehension","","","","","","","","","","","","","{""Q0"":""Eject out of aircraft and survive in water long enough to be rescued""}","","","",""
"survey-multi-choice","32","1148571","0.0-7.0-0.0-3.0-0.1","f9c2263490d8b601ac040df49f409cbe6153a8197c305277a8dd51d08805f1e2","swim","swim","11173","","<b>How often does the narrator swim, now that he is a good swimmer?</b>","","","","0","swim-comprehension","","","","","","","","","","","","","{""Q0"":""Occasionally at his cottage""}","","","",""
"survey-multi-choice","33","1152898","0.0-7.0-0.0-3.0-0.2","f9c2263490d8b601ac040df49f409cbe6153a8197c305277a8dd51d08805f1e2","swim","swim","4070","","<b>How many astronaut candidates reported for duty at the Johnson Space Center?</b>","","","","1","swim-comprehension","","","","","","","","","","","","","{""Q0"":""Forty-four""}","","","",""
"survey-multi-choice","34","1158575","0.0-7.0-0.0-3.0-0.3","f9c2263490d8b601ac040df49f409cbe6153a8197c305277a8dd51d08805f1e2","swim","swim","5425","","<b>Where is the home of naval aviation?</b>","","","","1","swim-comprehension","","","","","","","","","","","","","{""Q0"":""Pensacola""}","","","",""
"survey-multi-choice","35","1164604","0.0-7.0-0.0-3.0-0.4","f9c2263490d8b601ac040df49f409cbe6153a8197c305277a8dd51d08805f1e2","swim","swim","5776","","<b>What is the narrator afraid of, aside from the water?</b>","","","","0","swim-comprehension","","","","","","","","","","","","","{""Q0"":""Snakes""}","","","",""
"survey-multi-choice","36","1175042","0.0-7.0-0.0-3.0-0.5","f9c2263490d8b601ac040df49f409cbe6153a8197c305277a8dd51d08805f1e2","swim","swim","10174","","<b>How many astronaut candidates passed the first swim test?</b>","","","","1","swim-comprehension","","","","","","","","","","","","","{""Q0"":""All of them""}","","","",""
"survey-multi-choice","37","1180845","0.0-7.0-0.0-3.0-0.6","f9c2263490d8b601ac040df49f409cbe6153a8197c305277a8dd51d08805f1e2","swim","swim","5550","","<b>How many times did the astronaut candidates have to complete the final exercise to pass?</b>","","","","0","swim-comprehension","","","","","","","","","","","","","{""Q0"":""Five""}","","","",""
"survey-multi-choice","38","1189584","0.0-7.0-0.0-3.0-0.7","f9c2263490d8b601ac040df49f409cbe6153a8197c305277a8dd51d08805f1e2","swim","swim","8486","","<b>What gave the narrator his greatest feeling of accomplishment?</b>","","","","1","swim-comprehension","","","","","","","","","","","","","{""Q0"":""Passing the water survival course""}","","","",""
"survey-multi-choice","39","1200405","0.0-7.0-0.0-3.0-0.8","f9c2263490d8b601ac040df49f409cbe6153a8197c305277a8dd51d08805f1e2","swim","swim","10569","","<b>How did the narrator train for his swim test?</b>","","","","0","swim-comprehension","","","","","","","","","","","","","{""Q0"":""Signed up for a swim class""}","","","",""
"survey-multi-choice","40","1206177","0.0-7.0-0.0-3.0-0.9","f9c2263490d8b601ac040df49f409cbe6153a8197c305277a8dd51d08805f1e2","swim","swim","5518","","<b>What was the final step of the first swim test in the pool?</b>","","","","1","swim-comprehension","","","","","","","","","","","","","{""Q0"":""Tread water with hands above the water""}","","","",""
"html-button-response","41","1207893","0.0-7.0-0.0-4.0","f9c2263490d8b601ac040df49f409cbe6153a8197c305277a8dd51d08805f1e2","swim","swim","1465","","<p>Thank you for your responses.</p><p>You will now answer some questions about your impressions of the story.</p>","0","","","","","","","","","","","","","","","","","","","","",""
"html-button-response","42","1209918","0.0-7.0-0.0-5.0-0.0","f9c2263490d8b601ac040df49f409cbe6153a8197c305277a8dd51d08805f1e2","swim","swim","2024","","E6","0","","","","swim-engagement","","","","","","","","","","","","","","1","enjoyment","",""
"html-button-response","43","1211419","0.0-7.0-0.0-5.0-0.1","f9c2263490d8b601ac040df49f409cbe6153a8197c305277a8dd51d08805f1e2","swim","swim","1249","","EE3","0","","","","swim-engagement","","","","","","","","","","","","","","1","emo-engage","",""
"html-button-response","44","1212858","0.0-7.0-0.0-5.0-0.2","f9c2263490d8b601ac040df49f409cbe6153a8197c305277a8dd51d08805f1e2","swim","swim","1188","","E1","0","","","","swim-engagement","","","","","","","","","","","","","","1","enjoyment","",""
"html-button-response","45","1214563","0.0-7.0-0.0-5.0-0.3","f9c2263490d8b601ac040df49f409cbe6153a8197c305277a8dd51d08805f1e2","swim","swim","1454","","EE5","0","","","","swim-engagement","","","","","","","","","","","","","","1","emo-engage","",""
"html-button-response","46","1216315","0.0-7.0-0.0-5.0-0.4","f9c2263490d8b601ac040df49f409cbe6153a8197c305277a8dd51d08805f1e2","swim","swim","1501","","EE4","0","","","","swim-engagement","","","","","","","","","","","","","","1","emo-engage","",""
"html-button-response","47","1219316","0.0-7.0-0.0-5.0-0.5","f9c2263490d8b601ac040df49f409cbe6153a8197c305277a8dd51d08805f1e2","swim","swim","2749","","MS1","3","","","","swim-engagement","","","","","","","","","","","","","","4","mental-sim","",""
"html-button-response","48","1221730","0.0-7.0-0.0-5.0-0.6","f9c2263490d8b601ac040df49f409cbe6153a8197c305277a8dd51d08805f1e2","swim","swim","2162","","A2","6","","","","swim-engagement","","","","","","","","","","","","","","7","absorption","",""
"html-button-response","49","1223420","0.0-7.0-0.0-5.0-0.7","f9c2263490d8b601ac040df49f409cbe6153a8197c305277a8dd51d08805f1e2","swim","swim","1438","","EE2","0","","","","swim-engagement","","","","","","","","","","","","","","1","emo-engage","",""
"html-button-response","50","1226170","0.0-7.0-0.0-5.0-0.8","f9c2263490d8b601ac040df49f409cbe6153a8197c305277a8dd51d08805f1e2","swim","swim","2498","","E7","4","","","","swim-engagement","","","","","","","","","","","","","","5","enjoyment","",""
"html-button-response","51","1229539","0.0-7.0-0.0-5.0-0.9","f9c2263490d8b601ac040df49f409cbe6153a8197c305277a8dd51d08805f1e2","swim","swim","3117","","EE1","1","","","","swim-engagement","","","","","","","","","","","","","","2","emo-engage","",""
"html-button-response","52","1233290","0.0-7.0-0.0-5.0-0.10","f9c2263490d8b601ac040df49f409cbe6153a8197c305277a8dd51d08805f1e2","swim","swim","3500","","A4","1","","","","swim-engagement","","","","","","","","","","","","","","2","absorption","",""
"html-button-response","53","1236985","0.0-7.0-0.0-5.0-0.11","f9c2263490d8b601ac040df49f409cbe6153a8197c305277a8dd51d08805f1e2","swim","swim","3441","","A5","1","","","","swim-engagement","","","","","","","","","","","","","","2","absorption","",""
"html-button-response","54","1238749","0.0-7.0-0.0-5.0-0.12","f9c2263490d8b601ac040df49f409cbe6153a8197c305277a8dd51d08805f1e2","swim","swim","1512","","A3","1","","","","swim-engagement","","","","","","","","","","","","","","2","absorption","",""
"html-button-response","55","1240230","0.0-7.0-0.0-5.0-0.13","f9c2263490d8b601ac040df49f409cbe6153a8197c305277a8dd51d08805f1e2","swim","swim","1228","","E8","0","","","","swim-engagement","","","","","","","","","","","","","","1","enjoyment","",""
"html-button-response","56","1242279","0.0-7.0-0.0-5.0-0.14","f9c2263490d8b601ac040df49f409cbe6153a8197c305277a8dd51d08805f1e2","swim","swim","1797","","E10","0","","","","swim-engagement","","","","","","","","","","","","","","1","enjoyment","",""
"html-button-response","57","1246081","0.0-7.0-0.0-5.0-0.15","f9c2263490d8b601ac040df49f409cbe6153a8197c305277a8dd51d08805f1e2","swim","swim","3551","","MS2","2","","","","swim-engagement","","","","","","","","","","","","","","3","mental-sim","",""
"html-button-response","58","1249998","0.0-7.0-0.0-5.0-0.16","f9c2263490d8b601ac040df49f409cbe6153a8197c305277a8dd51d08805f1e2","swim","swim","3665","","A1","0","","","","swim-engagement","","","","","","","","","","","","","","1","absorption","",""
"html-button-response","59","1252919","0.0-7.0-0.0-5.0-0.17","f9c2263490d8b601ac040df49f409cbe6153a8197c305277a8dd51d08805f1e2","swim","swim","2669","","MS3","3","","","","swim-engagement","","","","","","","","","","","","","","4","mental-sim","",""
"html-keyboard-response","60","1276699","0.0-7.0-1.0","f9c2263490d8b601ac040df49f409cbe6153a8197c305277a8dd51d08805f1e2","swim","swim","23530","","<p>Thank you for your responses. You will now listen to the second story.</p><p>Remember, as you listen to the story you will see letters appear on the screen.</br>As quickly as possible, press <b>&lt;x&gt;</b> if the letter is lowercase and <b>&lt;m&gt;</b> if the letter is uppercase.</p><p>Press <b>&lt;x&gt;</b> or <b>&lt;m&gt;</b> to begin listening!</p>","","88","","","","","","","","","","","","","","","","","","","",""
"html-keyboard-response","61","1277200","0.0-7.0-2.0-0.0","f9c2263490d8b601ac040df49f409cbe6153a8197c305277a8dd51d08805f1e2","swim","swim","null","","<div style=""font-size:60px;"" tabindex=""0"">+</div>","","null","","","","","","","","","","","","","","","","","","","",""
"dual-task","null","null","null","","swim","swim","539.6999998092651","","Q","null","77","77","1","arctic-dual-task","","Q","uppercase","18000","0","5","f9c2263490d8b601ac040df49f409cbe6153a8197c305277a8dd51d08805f1e2","18004.099999904633","539.6999998092651","77","1","arctic","","","","",""
"dual-task","null","null","null","","swim","swim","1017.6000001430511","","Q","null","77","77","1","arctic-dual-task","","Q","uppercase","32000","0","5","f9c2263490d8b601ac040df49f409cbe6153a8197c305277a8dd51d08805f1e2","32014.299999952316","1017.6000001430511","77","1","arctic","","","","",""
"dual-task","null","null","null","","swim","swim","529","","A","null","88","77","0","arctic-dual-task","","A","uppercase","42000","0","5","f9c2263490d8b601ac040df49f409cbe6153a8197c305277a8dd51d08805f1e2","42006.39999985695","529","88","0","arctic","","","","",""
"dual-task","null","null","null","","swim","swim","599","","f","null","88","88","1","arctic-dual-task","","f","lowercase","56000","0","5","f9c2263490d8b601ac040df49f409cbe6153a8197c305277a8dd51d08805f1e2","56000.700000047684","599","88","1","arctic","","","","",""
"dual-task","null","null","null","","swim","swim","581.7999999523163","","t","null","88","88","1","arctic-dual-task","","t","lowercase","68000","0","5","f9c2263490d8b601ac040df49f409cbe6153a8197c305277a8dd51d08805f1e2","68009.89999985695","581.7999999523163","88","1","arctic","","","","",""
"dual-task","null","null","null","","swim","swim","724","","f","null","88","88","1","arctic-dual-task","","f","lowercase","82000","0","5","f9c2263490d8b601ac040df49f409cbe6153a8197c305277a8dd51d08805f1e2","82011.79999995232","724","88","1","arctic","","","","",""
"dual-task","null","null","null","","swim","swim","555","","b","null","88","88","1","arctic-dual-task","","b","lowercase","88000","0","5","f9c2263490d8b601ac040df49f409cbe6153a8197c305277a8dd51d08805f1e2","88004.29999995232","555","88","1","arctic","","","","",""
"dual-task","null","null","null","","swim","swim","663.5","","Q","null","77","77","1","arctic-dual-task","","Q","uppercase","100000","0","5","f9c2263490d8b601ac040df49f409cbe6153a8197c305277a8dd51d08805f1e2","100008","663.5","77","1","arctic","","","","",""
"dual-task","null","null","null","","swim","swim","540.5999999046326","","H","null","77","77","1","arctic-dual-task","","H","uppercase","108000","0","5","f9c2263490d8b601ac040df49f409cbe6153a8197c305277a8dd51d08805f1e2","108010.5","540.5999999046326","77","1","arctic","","","","",""
"dual-task","null","null","null","","swim","swim","572.9000000953674","","d","null","88","88","1","arctic-dual-task","","d","lowercase","116000","0","5","f9c2263490d8b601ac040df49f409cbe6153a8197c305277a8dd51d08805f1e2","116002.70000004768","572.9000000953674","88","1","arctic","","","","",""
"dual-task","null","null","null","","swim","swim","1361.3999998569489","","n","null","88","88","1","arctic-dual-task","","n","lowercase","124000","0","5","f9c2263490d8b601ac040df49f409cbe6153a8197c305277a8dd51d08805f1e2","124013.89999985695","1361.3999998569489","88","1","arctic","","","","",""
"dual-task","null","null","null","","swim","swim","532.5999999046326","","E","null","77","77","1","arctic-dual-task","","E","uppercase","134000","0","5","f9c2263490d8b601ac040df49f409cbe6153a8197c305277a8dd51d08805f1e2","134003.20000004768","532.5999999046326","77","1","arctic","","","","",""
"dual-task","null","null","null","","swim","swim","536.7000000476837","","N","null","77","77","1","arctic-dual-task","","N","uppercase","144000","0","5","f9c2263490d8b601ac040df49f409cbe6153a8197c305277a8dd51d08805f1e2","144007","536.7000000476837","77","1","arctic","","","","",""
"dual-task","null","null","null","","swim","swim","698.3999998569489","","f","null","88","88","1","arctic-dual-task","","f","lowercase","150000","0","5","f9c2263490d8b601ac040df49f409cbe6153a8197c305277a8dd51d08805f1e2","150005","698.3999998569489","88","1","arctic","","","","",""
"dual-task","null","null","null","","swim","swim","483.7999999523163","","h","null","88","88","1","arctic-dual-task","","h","lowercase","160000","0","5","f9c2263490d8b601ac040df49f409cbe6153a8197c305277a8dd51d08805f1e2","160011.89999985695","483.7999999523163","88","1","arctic","","","","",""
"dual-task","null","null","null","","swim","swim","739.7000000476837","","r","null","88","88","1","arctic-dual-task","","r","lowercase","170000","0","5","f9c2263490d8b601ac040df49f409cbe6153a8197c305277a8dd51d08805f1e2","170012","739.7000000476837","88","1","arctic","","","","",""
"dual-task","null","null","null","","swim","swim","666.2999999523163","","N","null","77","77","1","arctic-dual-task","","N","uppercase","176000","0","5","f9c2263490d8b601ac040df49f409cbe6153a8197c305277a8dd51d08805f1e2","176013","666.2999999523163","77","1","arctic","","","","",""
"dual-task","null","null","null","","swim","swim","529.2999999523163","","d","null","88","88","1","arctic-dual-task","","d","lowercase","188000","0","5","f9c2263490d8b601ac040df49f409cbe6153a8197c305277a8dd51d08805f1e2","188006.5","529.2999999523163","88","1","arctic","","","","",""
"dual-task","null","null","null","","swim","swim","450.09999990463257","","B","null","77","77","1","arctic-dual-task","","B","uppercase","194000","0","5","f9c2263490d8b601ac040df49f409cbe6153a8197c305277a8dd51d08805f1e2","194013.20000004768","450.09999990463257","77","1","arctic","","","","",""
"dual-task","null","null","null","","swim","swim","494.59999990463257","","g","null","77","88","0","arctic-dual-task","","g","lowercase","204000","0","5","f9c2263490d8b601ac040df49f409cbe6153a8197c305277a8dd51d08805f1e2","204009.20000004768","494.59999990463257","77","0","arctic","","","","",""
"dual-task","null","null","null","","swim","swim","582.8999998569489","","N","null","77","77","1","arctic-dual-task","","N","uppercase","214000","0","5","f9c2263490d8b601ac040df49f409cbe6153a8197c305277a8dd51d08805f1e2","214000.89999985695","582.8999998569489","77","1","arctic","","","","",""
"dual-task","null","null","null","","swim","swim","414.60000014305115","","b","null","88","88","1","arctic-dual-task","","b","lowercase","224000","0","5","f9c2263490d8b601ac040df49f409cbe6153a8197c305277a8dd51d08805f1e2","224008.59999990463","414.60000014305115","88","1","arctic","","","","",""
"dual-task","null","null","null","","swim","swim","644.2000000476837","","A","null","88","77","0","arctic-dual-task","","A","uppercase","230000","0","5","f9c2263490d8b601ac040df49f409cbe6153a8197c305277a8dd51d08805f1e2","230003.39999985695","644.2000000476837","88","0","arctic","","","","",""
"dual-task","null","null","null","","swim","swim","571.9000000953674","","D","null","77","77","1","arctic-dual-task","","D","uppercase","244000","0","5","f9c2263490d8b601ac040df49f409cbe6153a8197c305277a8dd51d08805f1e2","244011.89999985695","571.9000000953674","77","1","arctic","","","","",""
"dual-task","null","null","null","","swim","swim","562.5","","r","null","88","88","1","arctic-dual-task","","r","lowercase","258000","0","5","f9c2263490d8b601ac040df49f409cbe6153a8197c305277a8dd51d08805f1e2","258013.29999995232","562.5","88","1","arctic","","","","",""
"dual-task","null","null","null","","swim","swim","505.2999999523163","","g","null","88","88","1","arctic-dual-task","","g","lowercase","266000","0","5","f9c2263490d8b601ac040df49f409cbe6153a8197c305277a8dd51d08805f1e2","266014","505.2999999523163","88","1","arctic","","","","",""
"dual-task","null","null","null","","swim","swim","554.5999999046326","","G","null","77","77","1","arctic-dual-task","","G","uppercase","276000","0","5","f9c2263490d8b601ac040df49f409cbe6153a8197c305277a8dd51d08805f1e2","276013.2000000477","554.5999999046326","77","1","arctic","","","","",""
"dual-task","null","null","null","","swim","swim","476.60000014305115","","G","null","77","77","1","arctic-dual-task","","G","uppercase","290000","0","5","f9c2263490d8b601ac040df49f409cbe6153a8197c305277a8dd51d08805f1e2","290011.39999985695","476.60000014305115","77","1","arctic","","","","",""
"dual-task","null","null","null","","swim","swim","716.7999999523163","","R","null","77","77","1","arctic-dual-task","","R","uppercase","298000","0","5","f9c2263490d8b601ac040df49f409cbe6153a8197c305277a8dd51d08805f1e2","298010.59999990463","716.7999999523163","77","1","arctic","","","","",""
"dual-task","null","null","null","","swim","swim","549.9000000953674","","t","null","88","88","1","arctic-dual-task","","t","lowercase","306000","0","5","f9c2263490d8b601ac040df49f409cbe6153a8197c305277a8dd51d08805f1e2","306009.7999999523","549.9000000953674","88","1","arctic","","","","",""
"dual-task","null","null","null","","swim","swim","511","","T","null","77","77","1","arctic-dual-task","","T","uppercase","316000","0","5","f9c2263490d8b601ac040df49f409cbe6153a8197c305277a8dd51d08805f1e2","316000.2999999523","511","77","1","arctic","","","","",""
"dual-task","null","null","null","","swim","swim","496.69999980926514","","n","null","88","88","1","arctic-dual-task","","n","lowercase","328000","0","5","f9c2263490d8b601ac040df49f409cbe6153a8197c305277a8dd51d08805f1e2","328015.2000000477","496.69999980926514","88","1","arctic","","","","",""
"dual-task","null","null","null","","swim","swim","561.2999999523163","","T","null","77","77","1","arctic-dual-task","","T","uppercase","342000","0","5","f9c2263490d8b601ac040df49f409cbe6153a8197c305277a8dd51d08805f1e2","342014.5","561.2999999523163","77","1","arctic","","","","",""
"dual-task","null","null","null","","swim","swim","1595.5999999046326","","n","null","88","88","1","arctic-dual-task","","n","lowercase","354000","0","5","f9c2263490d8b601ac040df49f409cbe6153a8197c305277a8dd51d08805f1e2","354004.2999999523","1595.5999999046326","88","1","arctic","","","","",""
"dual-task","null","null","null","","swim","swim","512.3000001907349","","a","null","88","88","1","arctic-dual-task","","a","lowercase","364000","0","5","f9c2263490d8b601ac040df49f409cbe6153a8197c305277a8dd51d08805f1e2","364014.89999985695","512.3000001907349","88","1","arctic","","","","",""
"dual-task","null","null","null","","swim","swim","582.4000000953674","","g","null","88","88","1","arctic-dual-task","","g","lowercase","372000","0","5","f9c2263490d8b601ac040df49f409cbe6153a8197c305277a8dd51d08805f1e2","372009.2999999523","582.4000000953674","88","1","arctic","","","","",""
"dual-task","null","null","null","","swim","swim","702.7999999523163","","a","null","88","88","1","arctic-dual-task","","a","lowercase","378000","0","5","f9c2263490d8b601ac040df49f409cbe6153a8197c305277a8dd51d08805f1e2","378008.59999990463","702.7999999523163","88","1","arctic","","","","",""
"dual-task","null","null","null","","swim","swim","518.7999999523163","","F","null","77","77","1","arctic-dual-task","","F","uppercase","388000","0","5","f9c2263490d8b601ac040df49f409cbe6153a8197c305277a8dd51d08805f1e2","388001","518.7999999523163","77","1","arctic","","","","",""
"dual-task","null","null","null","","swim","swim","578.2000000476837","","A","null","77","77","1","arctic-dual-task","","A","uppercase","394000","0","5","f9c2263490d8b601ac040df49f409cbe6153a8197c305277a8dd51d08805f1e2","394005","578.2000000476837","77","1","arctic","","","","",""
"dual-task","null","null","null","","swim","swim","527.2999999523163","","q","null","88","88","1","arctic-dual-task","","q","lowercase","406000","0","5","f9c2263490d8b601ac040df49f409cbe6153a8197c305277a8dd51d08805f1e2","406008.59999990463","527.2999999523163","88","1","arctic","","","","",""
"dual-task","null","null","null","","swim","swim","745.1999998092651","","H","null","88","77","0","arctic-dual-task","","H","uppercase","412000","0","5","f9c2263490d8b601ac040df49f409cbe6153a8197c305277a8dd51d08805f1e2","412014.09999990463","745.1999998092651","88","0","arctic","","","","",""
"dual-task","null","null","null","","swim","swim","471","","E","null","77","77","1","arctic-dual-task","","E","uppercase","426000","0","5","f9c2263490d8b601ac040df49f409cbe6153a8197c305277a8dd51d08805f1e2","426001.2000000477","471","77","1","arctic","","","","",""
"dual-task","null","null","null","","swim","swim","561","","e","null","88","88","1","arctic-dual-task","","e","lowercase","438000","0","5","f9c2263490d8b601ac040df49f409cbe6153a8197c305277a8dd51d08805f1e2","438014.89999985695","561","88","1","arctic","","","","",""
"dual-task","null","null","null","","swim","swim","487.09999990463257","","e","null","88","88","1","arctic-dual-task","","e","lowercase","450000","0","5","f9c2263490d8b601ac040df49f409cbe6153a8197c305277a8dd51d08805f1e2","450000.7000000477","487.09999990463257","88","1","arctic","","","","",""
"dual-task","null","null","null","","swim","swim","510.59999990463257","","r","null","88","88","1","arctic-dual-task","","r","lowercase","462000","0","5","f9c2263490d8b601ac040df49f409cbe6153a8197c305277a8dd51d08805f1e2","462009.2999999523","510.59999990463257","88","1","arctic","","","","",""
"dual-task","null","null","null","","swim","swim","731.7999999523163","","F","null","77","77","1","arctic-dual-task","","F","uppercase","474000","0","5","f9c2263490d8b601ac040df49f409cbe6153a8197c305277a8dd51d08805f1e2","474012","731.7999999523163","77","1","arctic","","","","",""
"dual-task","null","null","null","","swim","swim","1098.5999999046326","","H","null","88","77","0","arctic-dual-task","","H","uppercase","482000","0","5","f9c2263490d8b601ac040df49f409cbe6153a8197c305277a8dd51d08805f1e2","482012.7999999523","1098.5999999046326","88","0","arctic","","","","",""
"dual-task","null","null","null","","swim","swim","684.9000000953674","","D","null","77","77","1","arctic-dual-task","","D","uppercase","488000","0","5","f9c2263490d8b601ac040df49f409cbe6153a8197c305277a8dd51d08805f1e2","488010.89999985695","684.9000000953674","77","1","arctic","","","","",""
"dual-task","null","null","null","","swim","swim","1255.5","","r","null","88","88","1","arctic-dual-task","","r","lowercase","494000","0","5","f9c2263490d8b601ac040df49f409cbe6153a8197c305277a8dd51d08805f1e2","494007.89999985695","1255.5","88","1","arctic","","","","",""
"dual-task","null","null","null","","swim","swim","772.9000000953674","","E","null","77","77","1","arctic-dual-task","","E","uppercase","500000","0","5","f9c2263490d8b601ac040df49f409cbe6153a8197c305277a8dd51d08805f1e2","500010.89999985695","772.9000000953674","77","1","arctic","","","","",""
"dual-task","null","null","null","","swim","swim","526.0999999046326","","R","null","77","77","1","arctic-dual-task","","R","uppercase","508000","0","5","f9c2263490d8b601ac040df49f409cbe6153a8197c305277a8dd51d08805f1e2","508009.2999999523","526.0999999046326","77","1","arctic","","","","",""
"dual-task","null","null","null","","swim","swim","483.59999990463257","","R","null","77","77","1","arctic-dual-task","","R","uppercase","522000","0","5","f9c2263490d8b601ac040df49f409cbe6153a8197c305277a8dd51d08805f1e2","522004.09999990463","483.59999990463257","77","1","arctic","","","","",""
"dual-task","null","null","null","","swim","swim","594.5999999046326","","t","null","88","88","1","arctic-dual-task","","t","lowercase","534000","0","5","f9c2263490d8b601ac040df49f409cbe6153a8197c305277a8dd51d08805f1e2","534005.2000000477","594.5999999046326","88","1","arctic","","","","",""
"dual-task","null","null","null","","swim","swim","871.7000000476837","","T","null","77","77","1","arctic-dual-task","","T","uppercase","546000","0","5","f9c2263490d8b601ac040df49f409cbe6153a8197c305277a8dd51d08805f1e2","546008.2000000477","871.7000000476837","77","1","arctic","","","","",""
"dual-task","null","null","null","","swim","swim","633","","n","null","88","88","1","arctic-dual-task","","n","lowercase","560000","0","5","f9c2263490d8b601ac040df49f409cbe6153a8197c305277a8dd51d08805f1e2","560014.899999857","633","88","1","arctic","","","","",""
"dual-task","null","null","null","","swim","swim","647","","H","null","77","77","1","arctic-dual-task","","H","uppercase","574000","0","5","f9c2263490d8b601ac040df49f409cbe6153a8197c305277a8dd51d08805f1e2","574009","647","77","1","arctic","","","","",""
"dual-task","null","null","null","","swim","swim","681.7999999523163","","D","null","77","77","1","arctic-dual-task","","D","uppercase","588000","0","5","f9c2263490d8b601ac040df49f409cbe6153a8197c305277a8dd51d08805f1e2","588006.0999999046","681.7999999523163","77","1","arctic","","","","",""
"dual-task","null","null","null","","swim","swim","617.2999999523163","","q","null","88","88","1","arctic-dual-task","","q","lowercase","602000","0","5","f9c2263490d8b601ac040df49f409cbe6153a8197c305277a8dd51d08805f1e2","602014.5999999046","617.2999999523163","88","1","arctic","","","","",""
"dual-task","null","null","null","","swim","swim","1123.3999998569489","","D","null","77","77","1","arctic-dual-task","","D","uppercase","610000","0","5","f9c2263490d8b601ac040df49f409cbe6153a8197c305277a8dd51d08805f1e2","610012","1123.3999998569489","77","1","arctic","","","","",""
"dual-task","null","null","null","","swim","swim","731.1999998092651","","h","null","88","88","1","arctic-dual-task","","h","lowercase","620000","0","5","f9c2263490d8b601ac040df49f409cbe6153a8197c305277a8dd51d08805f1e2","620004.5999999046","731.1999998092651","88","1","arctic","","","","",""
"dual-task","null","null","null","","swim","swim","634.9000000953674","","a","null","88","88","1","arctic-dual-task","","a","lowercase","634000","0","5","f9c2263490d8b601ac040df49f409cbe6153a8197c305277a8dd51d08805f1e2","634013.0999999046","634.9000000953674","88","1","arctic","","","","",""
"dual-task","null","null","null","","swim","swim","585","","T","null","77","77","1","arctic-dual-task","","T","uppercase","648000","0","5","f9c2263490d8b601ac040df49f409cbe6153a8197c305277a8dd51d08805f1e2","648006.899999857","585","77","1","arctic","","","","",""
"dual-task","null","null","null","","swim","swim","794","","E","null","77","77","1","arctic-dual-task","","E","uppercase","656000","0","5","f9c2263490d8b601ac040df49f409cbe6153a8197c305277a8dd51d08805f1e2","656005.2999999523","794","77","1","arctic","","","","",""
"dual-task","null","null","null","","swim","swim","546.5999999046326","","Q","null","77","77","1","arctic-dual-task","","Q","uppercase","668000","0","5","f9c2263490d8b601ac040df49f409cbe6153a8197c305277a8dd51d08805f1e2","668005.5","546.5999999046326","77","1","arctic","","","","",""
"dual-task","null","null","null","","swim","swim","712.6999998092651","","g","null","88","88","1","arctic-dual-task","","g","lowercase","676000","0","5","f9c2263490d8b601ac040df49f409cbe6153a8197c305277a8dd51d08805f1e2","676006.7000000477","712.6999998092651","88","1","arctic","","","","",""
"dual-task","null","null","null","","swim","swim","741.5999999046326","","F","null","77","77","1","arctic-dual-task","","F","uppercase","690000","0","5","f9c2263490d8b601ac040df49f409cbe6153a8197c305277a8dd51d08805f1e2","690010.2000000477","741.5999999046326","77","1","arctic","","","","",""
"dual-task","null","null","null","","swim","swim","979.5","","h","null","88","88","1","arctic-dual-task","","h","lowercase","700000","0","5","f9c2263490d8b601ac040df49f409cbe6153a8197c305277a8dd51d08805f1e2","700012.0999999046","979.5","88","1","arctic","","","","",""
"dual-task","null","null","null","","swim","swim","917","","B","null","77","77","1","arctic-dual-task","","B","uppercase","708000","0","5","f9c2263490d8b601ac040df49f409cbe6153a8197c305277a8dd51d08805f1e2","708002.2000000477","917","77","1","arctic","","","","",""
"dual-task","null","null","null","","swim","swim","549.6999998092651","","F","null","77","77","1","arctic-dual-task","","F","uppercase","720000","0","5","f9c2263490d8b601ac040df49f409cbe6153a8197c305277a8dd51d08805f1e2","720002.2000000477","549.6999998092651","77","1","arctic","","","","",""
"dual-task","null","null","null","","swim","swim","810.1000001430511","","B","null","77","77","1","arctic-dual-task","","B","uppercase","726000","0","5","f9c2263490d8b601ac040df49f409cbe6153a8197c305277a8dd51d08805f1e2","726005","810.1000001430511","77","1","arctic","","","","",""
"dual-task","null","null","null","","swim","swim","741","","b","null","88","88","1","arctic-dual-task","","b","lowercase","736000","0","5","f9c2263490d8b601ac040df49f409cbe6153a8197c305277a8dd51d08805f1e2","736011","741","88","1","arctic","","","","",""
"dual-task","null","null","null","","swim","swim","613.2000000476837","","N","null","77","77","1","arctic-dual-task","","N","uppercase","746000","0","5","f9c2263490d8b601ac040df49f409cbe6153a8197c305277a8dd51d08805f1e2","746002.2000000477","613.2000000476837","77","1","arctic","","","","",""
"dual-task","null","null","null","","swim","swim","532.8999998569489","","e","null","88","88","1","arctic-dual-task","","e","lowercase","758000","0","5","f9c2263490d8b601ac040df49f409cbe6153a8197c305277a8dd51d08805f1e2","758011","532.8999998569489","88","1","arctic","","","","",""
"dual-task","null","null","null","","swim","swim","1436.6000001430511","","f","null","88","88","1","arctic-dual-task","","f","lowercase","764000","0","5","f9c2263490d8b601ac040df49f409cbe6153a8197c305277a8dd51d08805f1e2","764002.899999857","1436.6000001430511","88","1","arctic","","","","",""
"dual-task","null","null","null","","swim","swim","569.7999999523163","","q","null","88","88","1","arctic-dual-task","","q","lowercase","774000","0","5","f9c2263490d8b601ac040df49f409cbe6153a8197c305277a8dd51d08805f1e2","774013.899999857","569.7999999523163","88","1","arctic","","","","",""
"dual-task","null","null","null","","swim","swim","868.7000000476837","","h","null","88","88","1","arctic-dual-task","","h","lowercase","786000","0","5","f9c2263490d8b601ac040df49f409cbe6153a8197c305277a8dd51d08805f1e2","786011","868.7000000476837","88","1","arctic","","","","",""
"audio-keyboard-response","62","2075264","0.0-7.0-2.0-1.0","f9c2263490d8b601ac040df49f409cbe6153a8197c305277a8dd51d08805f1e2","swim","swim","null","","audio/story_arctic.mp3","","null","","","","","","","","","","","","","","","","","","","",""
"html-button-response","63","2080075","0.0-7.0-2.0-2.0","f9c2263490d8b601ac040df49f409cbe6153a8197c305277a8dd51d08805f1e2","swim","swim","4811","","<p>This concludes the story. Thank you for listening.</p><p>You will now answer some questions about the content of the story.</p>","0","","","","","","","","","","","","","","","","","","","","",""
"survey-multi-choice","64","2086368","0.0-7.0-2.0-3.0-0.0","f9c2263490d8b601ac040df49f409cbe6153a8197c305277a8dd51d08805f1e2","swim","swim","6292","","<b>How did the narrator&#39;s encounter with the polar bears end?</b>","","","","1","arctic-comprehension","","","","","","","","","","","","","{""Q0"":""The bears walked back to their den.""}","","","",""
"survey-multi-choice","65","2093604","0.0-7.0-2.0-3.0-0.1","f9c2263490d8b601ac040df49f409cbe6153a8197c305277a8dd51d08805f1e2","swim","swim","6983","","<b>What did the narrator do for leisure while in her tent?</b>","","","","1","arctic-comprehension","","","","","","","","","","","","","{""Q0"":""Read""}","","","",""
"survey-multi-choice","66","2098066","0.0-7.0-2.0-3.0-0.2","f9c2263490d8b601ac040df49f409cbe6153a8197c305277a8dd51d08805f1e2","swim","swim","4208","","<b>How did the dogs respond when they saw the bears?</b>","","","","1","arctic-comprehension","","","","","","","","","","","","","{""Q0"":""Approached them""}","","","",""
"survey-multi-choice","67","2103098","0.0-7.0-2.0-3.0-0.3","f9c2263490d8b601ac040df49f409cbe6153a8197c305277a8dd51d08805f1e2","swim","swim","4765","","<b>What was the objective of the narrator&#39;s expedition?</b>","","","","1","arctic-comprehension","","","","","","","","","","","","","{""Q0"":""Dogsled across Arctic America""}","","","",""
"survey-multi-choice","68","2108696","0.0-7.0-2.0-3.0-0.4","f9c2263490d8b601ac040df49f409cbe6153a8197c305277a8dd51d08805f1e2","swim","swim","5343","","<b>What were the weather conditions in the Arctic like the winter of the narrator&#39;s expedition?</b>","","","","1","arctic-comprehension","","","","","","","","","","","","","{""Q0"":""There were more storms than any other winter in recorded history.""}","","","",""
"survey-multi-choice","69","2113838","0.0-7.0-2.0-3.0-0.5","f9c2263490d8b601ac040df49f409cbe6153a8197c305277a8dd51d08805f1e2","swim","swim","4889","","<b>How did the narrator prepare for her expedition?</b>","","","","1","arctic-comprehension","","","","","","","","","","","","","{""Q0"":""Trained in Alaska learning how to dogsled""}","","","",""
"survey-multi-choice","70","2117521","0.0-7.0-2.0-3.0-0.6","f9c2263490d8b601ac040df49f409cbe6153a8197c305277a8dd51d08805f1e2","swim","swim","3430","","<b>How many sponsorships did the narrator receive to support her expedition?</b>","","","","1","arctic-comprehension","","","","","","","","","","","","","{""Q0"":""None""}","","","",""
"survey-multi-choice","71","2120894","0.0-7.0-2.0-3.0-0.7","f9c2263490d8b601ac040df49f409cbe6153a8197c305277a8dd51d08805f1e2","swim","swim","3122","","<b>Which dog on the narrator&#39;s dog team never followed instructions?</b>","","","","1","arctic-comprehension","","","","","","","","","","","","","{""Q0"":""Robert""}","","","",""
"survey-multi-choice","72","2123895","0.0-7.0-2.0-3.0-0.8","f9c2263490d8b601ac040df49f409cbe6153a8197c305277a8dd51d08805f1e2","swim","swim","2750","","<b>What is the name of the narrator&#39;s neighbour?</b>","","","","1","arctic-comprehension","","","","","","","","","","","","","{""Q0"":""Dave""}","","","",""
"survey-multi-choice","73","2128314","0.0-7.0-2.0-3.0-0.9","f9c2263490d8b601ac040df49f409cbe6153a8197c305277a8dd51d08805f1e2","swim","swim","4167","","<b>How did the narrator&#39;s neighbour respond when she told him about her expedition?</b>","","","","1","arctic-comprehension","","","","","","","","","","","","","{""Q0"":""He said she was going to fail.""}","","","",""
"html-button-response","74","2129400","0.0-7.0-2.0-4.0","f9c2263490d8b601ac040df49f409cbe6153a8197c305277a8dd51d08805f1e2","swim","swim","835","","<p>Thank you for your responses.</p><p>You will now answer some questions about your impressions of the story.</p>","0","","","","","","","","","","","","","","","","","","","","",""
"html-button-response","75","2131556","0.0-7.0-2.0-5.0-0.0","f9c2263490d8b601ac040df49f409cbe6153a8197c305277a8dd51d08805f1e2","swim","swim","2156","","A5","6","","","","arctic-engagement","","","","","","","","","","","","","","7","absorption","",""
"html-button-response","76","2132931","0.0-7.0-2.0-5.0-0.1","f9c2263490d8b601ac040df49f409cbe6153a8197c305277a8dd51d08805f1e2","swim","swim","1123","","E10","6","","","","arctic-engagement","","","","","","","","","","","","","","7","enjoyment","",""
"html-button-response","77","2134611","0.0-7.0-2.0-5.0-0.2","f9c2263490d8b601ac040df49f409cbe6153a8197c305277a8dd51d08805f1e2","swim","swim","1429","","MS3","6","","","","arctic-engagement","","","","","","","","","","","","","","7","mental-sim","",""
"html-button-response","78","2137332","0.0-7.0-2.0-5.0-0.3","f9c2263490d8b601ac040df49f409cbe6153a8197c305277a8dd51d08805f1e2","swim","swim","2470","","EE1","5","","","","arctic-engagement","","","","","","","","","","","","","","6","emo-engage","",""
"html-button-response","79","2138720","0.0-7.0-2.0-5.0-0.4","f9c2263490d8b601ac040df49f409cbe6153a8197c305277a8dd51d08805f1e2","swim","swim","1135","","E1","5","","","","arctic-engagement","","","","","","","","","","","","","","6","enjoyment","",""
"html-button-response","80","2139838","0.0-7.0-2.0-5.0-0.5","f9c2263490d8b601ac040df49f409cbe6153a8197c305277a8dd51d08805f1e2","swim","swim","867","","E6","5","","","","arctic-engagement","","","","","","","","","","","","","","6","enjoyment","",""
"html-button-response","81","2141136","0.0-7.0-2.0-5.0-0.6","f9c2263490d8b601ac040df49f409cbe6153a8197c305277a8dd51d08805f1e2","swim","swim","1046","","A3","5","","","","arctic-engagement","","","","","","","","","","","","","","6","absorption","",""
"html-button-response","82","2143192","0.0-7.0-2.0-5.0-0.7","f9c2263490d8b601ac040df49f409cbe6153a8197c305277a8dd51d08805f1e2","swim","swim","1805","","EE4","5","","","","arctic-engagement","","","","","","","","","","","","","","6","emo-engage","",""
"html-button-response","83","2144532","0.0-7.0-2.0-5.0-0.8","f9c2263490d8b601ac040df49f409cbe6153a8197c305277a8dd51d08805f1e2","swim","swim","1088","","EE3","5","","","","arctic-engagement","","","","","","","","","","","","","","6","emo-engage","",""
"html-button-response","84","2146762","0.0-7.0-2.0-5.0-0.9","f9c2263490d8b601ac040df49f409cbe6153a8197c305277a8dd51d08805f1e2","swim","swim","1979","","MS1","6","","","","arctic-engagement","","","","","","","","","","","","","","7","mental-sim","",""
"html-button-response","85","2149318","0.0-7.0-2.0-5.0-0.10","f9c2263490d8b601ac040df49f409cbe6153a8197c305277a8dd51d08805f1e2","swim","swim","2304","","A1","6","","","","arctic-engagement","","","","","","","","","","","","","","7","absorption","",""
"html-button-response","86","2151265","0.0-7.0-2.0-5.0-0.11","f9c2263490d8b601ac040df49f409cbe6153a8197c305277a8dd51d08805f1e2","swim","swim","1696","","EE5","6","","","","arctic-engagement","","","","","","","","","","","","","","7","emo-engage","",""
"html-button-response","87","2152930","0.0-7.0-2.0-5.0-0.12","f9c2263490d8b601ac040df49f409cbe6153a8197c305277a8dd51d08805f1e2","swim","swim","1414","","E8","5","","","","arctic-engagement","","","","","","","","","","","","","","6","enjoyment","",""
"html-button-response","88","2154574","0.0-7.0-2.0-5.0-0.13","f9c2263490d8b601ac040df49f409cbe6153a8197c305277a8dd51d08805f1e2","swim","swim","1393","","A2","6","","","","arctic-engagement","","","","","","","","","","","","","","7","absorption","",""
"html-button-response","89","2157603","0.0-7.0-2.0-5.0-0.14","f9c2263490d8b601ac040df49f409cbe6153a8197c305277a8dd51d08805f1e2","swim","swim","2777","","A4","5","","","","arctic-engagement","","","","","","","","","","","","","","6","absorption","",""
"html-button-response","90","2158889","0.0-7.0-2.0-5.0-0.15","f9c2263490d8b601ac040df49f409cbe6153a8197c305277a8dd51d08805f1e2","swim","swim","1035","","EE2","6","","","","arctic-engagement","","","","","","","","","","","","","","7","emo-engage","",""
"html-button-response","91","2161663","0.0-7.0-2.0-5.0-0.16","f9c2263490d8b601ac040df49f409cbe6153a8197c305277a8dd51d08805f1e2","swim","swim","2522","","MS2","5","","","","arctic-engagement","","","","","","","","","","","","","","6","mental-sim","",""
"html-button-response","92","2163357","0.0-7.0-2.0-5.0-0.17","f9c2263490d8b601ac040df49f409cbe6153a8197c305277a8dd51d08805f1e2","swim","swim","1443","","E7","6","","","","arctic-engagement","","","","","","","","","","","","","","7","enjoyment","",""
"html-button-response","93","2164707","0.0-8.0","f9c2263490d8b601ac040df49f409cbe6153a8197c305277a8dd51d08805f1e2","swim","swim","1099","","<p>Thank you for your responses.</p><p>You will now answer some demographic, hearing, and general health questions.</p>","0","","","","","","","","","","","","","","","","","","","","",""
"survey-multi-choice","94","2166783","0.0-9.0-0.0","f9c2263490d8b601ac040df49f409cbe6153a8197c305277a8dd51d08805f1e2","swim","swim","2075","","","","","","","survey","","","","","","","","","","","","","{""Q0"":""Chrome""}","","","browser",""
"survey-text","95","2169299","0.0-9.0-1.0","f9c2263490d8b601ac040df49f409cbe6153a8197c305277a8dd51d08805f1e2","swim","swim","2262.9000000953674","","","","","","","survey","","","","","","","","","","","","","{""AGE"":""30""}","","","age","30"
"survey-multi-choice","96","2171115","0.0-9.0-2.0","f9c2263490d8b601ac040df49f409cbe6153a8197c305277a8dd51d08805f1e2","swim","swim","1564","","","","","","","survey","","","","","","","","","","","","","{""Q0"":""Male""}","","","gender","Male"
"survey-multi-choice","97","2172816","0.0-9.0-4.0","f9c2263490d8b601ac040df49f409cbe6153a8197c305277a8dd51d08805f1e2","swim","swim","1447","","","","","","","survey","","","","","","","","","","","","","{""Q0"":""Left""}","","","handedness","Left"
"survey-multi-choice","98","2175134","0.0-9.0-5.0","f9c2263490d8b601ac040df49f409cbe6153a8197c305277a8dd51d08805f1e2","swim","swim","2066","","","","","","","survey","","","","","","","","","","","","","{""Q0"":""Some university undergraduate schooling""}","","","education","Some university undergraduate schooling"
"survey-text","99","2179715","0.0-10.0-0.0","f9c2263490d8b601ac040df49f409cbe6153a8197c305277a8dd51d08805f1e2","swim","swim","4327.900000095367","","","","","","","survey","","","","","","","","","","","","","{""L1"":""English""}","","","first-language","English"
"survey-text","100","2182513","0.0-10.0-1.0","f9c2263490d8b601ac040df49f409cbe6153a8197c305277a8dd51d08805f1e2","swim","swim","2542.800000190735","","","","","","","survey","","","","","","","","","","","","","{""L2name"":"""",""L2fluency"":"""",""L3name"":"""",""L3fluency"":"""",""L4name"":"""",""L4fluency"":""""}","","","additional-languages","{""L2name"":"""",""L2fluency"":"""",""L3name"":"""",""L3fluency"":"""",""L4name"":"""",""L4fluency"":""""}"
"survey-multi-choice","101","2184353","0.0-10.0-2.0","f9c2263490d8b601ac040df49f409cbe6153a8197c305277a8dd51d08805f1e2","swim","swim","1588","","","","","","","survey","","","","","","","","","","","","","{""Q0"":""No""}","","","hearing-aid","No"
"survey-multi-choice","102","2185955","0.0-10.0-3.0","f9c2263490d8b601ac040df49f409cbe6153a8197c305277a8dd51d08805f1e2","swim","swim","1350","","","","","","","survey","","","","","","","","","","","","","{""Q0"":""Never""}","","","ringing-ears","Never"
"survey-multi-choice","103","2187555","0.0-10.0-5.0","f9c2263490d8b601ac040df49f409cbe6153a8197c305277a8dd51d08805f1e2","swim","swim","1348","","","","","","","survey","","","","","","","","","","","","","{""Q0"":""No""}","","","neuro-disease","No"
"survey-multi-choice","104","2189842","0.0-10.0-7.0","f9c2263490d8b601ac040df49f409cbe6153a8197c305277a8dd51d08805f1e2","swim","swim","2035","","","","","","","survey","","","","","","","","","","","","","{""Q0"":""No""}","","","take-meds","No"
"survey-text","105","2191586","0.0-10.0-9.0","f9c2263490d8b601ac040df49f409cbe6153a8197c305277a8dd51d08805f1e2","swim","swim","1487.8999998569489","","","","","","","survey","","","","","","","","","","","","","{""HC"":""""}","","","health-concerns",""
"html-button-response","106","2193898","0.0-11.0-0.0","f9c2263490d8b601ac040df49f409cbe6153a8197c305277a8dd51d08805f1e2","swim","swim","2061","","<p>How would you describe your musical skills/experiences?</p>","0","","","","survey","","","","","","","","","","","","","","","","music-skill","1"
"survey-multi-choice","107","2195576","0.0-11.0-1.0","f9c2263490d8b601ac040df49f409cbe6153a8197c305277a8dd51d08805f1e2","swim","swim","1426","","","","","","","survey","","","","","","","","","","","","","{""Q0"":""No""}","","","music-instrument","No"
"html-button-response","108","2197738","0.0-12.0-0.0","f9c2263490d8b601ac040df49f409cbe6153a8197c305277a8dd51d08805f1e2","swim","swim","1911","","<p>How would you describe your general hearing abilities?</p>","5","","","","survey","","","","","","","","","","","","","","","","ssq-01","6"
"html-button-response","109","2206862","0.0-12.0-1.0","f9c2263490d8b601ac040df49f409cbe6153a8197c305277a8dd51d08805f1e2","swim","swim","8872","","<p>When you talk with someone at a place that strongly reverberates/echoes (e.g., in a church or train station),</br>can you understand what the person says?</p>","9","","","","survey","","","","","","","","","","","","","","","","ssq-02","9"
"html-button-response","110","2210573","0.0-12.0-2.0","f9c2263490d8b601ac040df49f409cbe6153a8197c305277a8dd51d08805f1e2","swim","swim","3460","","<p>When you are with a group (~5 people) in a lively restaurant, can you follow the group's conversation?</p>","10","","","","survey","","","","","","","","","","","","","","","","ssq-03","10"
"html-button-response","111","2213367","0.0-12.0-3.0","f9c2263490d8b601ac040df49f409cbe6153a8197c305277a8dd51d08805f1e2","swim","swim","2542","","<p>Based on the sound of a bus or truck, can you tell whether it is moving towards or away from you?</p>","10","","","","survey","","","","","","","","","","","","","","","","ssq-04","10"
"html-button-response","112","2216438","0.0-12.0-4.0","f9c2263490d8b601ac040df49f409cbe6153a8197c305277a8dd51d08805f1e2","swim","swim","2808","","<p>When you are in an unknown environment, can you tell from which direction a brief sound originates?</p>","9","","","","survey","","","","","","","","","","","","","","","","ssq-05","9"
"html-button-response","113","2220948","0.0-12.0-5.0","f9c2263490d8b601ac040df49f409cbe6153a8197c305277a8dd51d08805f1e2","swim","swim","4259","","<p>Are you able to ignore distracting sounds when you concentrate on a specific aspect of your acoustic surrounding?</p>","5","","","","survey","","","","","","","","","","","","","","","","ssq-06","5"
"fullscreen","114","2222201","0.0-13.0","f9c2263490d8b601ac040df49f409cbe6153a8197c305277a8dd51d08805f1e2","swim","swim","","","","","","","","","true","","","","","","","","","","","","","","","",""
