"trial_type","trial_index","time_elapsed","internal_node_id","ParticipantID","firstStory","scramStory","rt","url","stimulus","button_pressed","key_press","correctRESP","correct","designation","success","letterStim","letterType","ONSET","TIMEOUT","CONDITION","Participant","ONSET_ACTUAL","RT","RESP","ACC","STORY","responses","response","type","surveyQuestion","QRESP"
"pavlovia","0","3","0.0-0.0","be9141c41509de4894941d5dbe479820a6fa372c3e85c30106fa7ae96ddf1c3c","arctic","arctic","","","","","","","","","","","","","","","","","","","","","","","","",""
"external-html","1","135513","0.0-1.0","be9141c41509de4894941d5dbe479820a6fa372c3e85c30106fa7ae96ddf1c3c","arctic","arctic","135299","consent/consent_updated.html","","","","","","","","","","","","","","","","","","","","","","",""
"html-button-response","2","199322","0.0-2.0-0.0","be9141c41509de4894941d5dbe479820a6fa372c3e85c30106fa7ae96ddf1c3c","arctic","arctic","63809","","<p>Before we begin the main task, you will complete a short volume calibration and headphone check.</p><p>Please make sure you are in a quiet listening environment, that you are wearing headphones, and that your computer's volume is turned on.<p></p>","0","","","","","","","","","","","","","","","","","","","","",""
"html-button-response","3","205878","0.0-2.0-1.0","be9141c41509de4894941d5dbe479820a6fa372c3e85c30106fa7ae96ddf1c3c","arctic","arctic","6304","","<p>The volume calibration will be first.</p><p>You will hear a thirty-second noise. Please adjust your computer's volume so that this noise is being presented at a comfortable level.<p></p>","0","","","","","","","","","","","","","","","","","","","","",""
"audio-button-response","4","215683","0.0-2.0-2.0","be9141c41509de4894941d5dbe479820a6fa372c3e85c30106fa7ae96ddf1c3c","arctic","arctic","9553","","audio/volumetest.mp3","0","","","","","","","","","","","","","","","","","","","","",""
"html-keyboard-response","5","226170","0.0-3.0-0.0","be9141c41509de4894941d5dbe479820a6fa372c3e85c30106fa7ae96ddf1c3c","arctic","arctic","10487","","<p>You will now complete a short headphone check.</p><p>On each trial, you will hear three tones. One of these tones will be quieter than the others. Your task is to identify whether the quiet tone occurred first, second, or third.</p><p>There are six trials in total.<p></p><p></p>(Press SPACEBAR to begin)","","32","","","","","","","","","","","","","","","","","","","",""
"html-keyboard-response","6","226922","0.0-3.0-1.0-0.0","be9141c41509de4894941d5dbe479820a6fa372c3e85c30106fa7ae96ddf1c3c","arctic","arctic","null","","<div style=""font-size:60px;"">+</div>","","null","","","","","","","","","","","","","","","","","","","",""
"audio-button-response","7","231549","0.0-3.0-1.0-1.0","be9141c41509de4894941d5dbe479820a6fa372c3e85c30106fa7ae96ddf1c3c","arctic","arctic","4626","","audio/t2_2.mp3","1","","1","1","headphone-test","","","","","","","","","","","","","","","","",""
"html-keyboard-response","8","232050","0.0-3.0-1.0-2.0","be9141c41509de4894941d5dbe479820a6fa372c3e85c30106fa7ae96ddf1c3c","arctic","arctic","null","","<p>Correct</p>","","null","","","","","","","","","","","","","","","","","","","",""
"html-keyboard-response","9","232551","0.0-3.0-1.0-0.1","be9141c41509de4894941d5dbe479820a6fa372c3e85c30106fa7ae96ddf1c3c","arctic","arctic","null","","<div style=""font-size:60px;"">+</div>","","null","","","","","","","","","","","","","","","","","","","",""
"audio-button-response","10","237005","0.0-3.0-1.0-1.1","be9141c41509de4894941d5dbe479820a6fa372c3e85c30106fa7ae96ddf1c3c","arctic","arctic","4453","","audio/t3_1.mp3","2","","2","1","headphone-test","","","","","","","","","","","","","","","","",""
"html-keyboard-response","11","237506","0.0-3.0-1.0-2.1","be9141c41509de4894941d5dbe479820a6fa372c3e85c30106fa7ae96ddf1c3c","arctic","arctic","null","","<p>Correct</p>","","null","","","","","","","","","","","","","","","","","","","",""
"html-keyboard-response","12","238007","0.0-3.0-1.0-0.2","be9141c41509de4894941d5dbe479820a6fa372c3e85c30106fa7ae96ddf1c3c","arctic","arctic","null","","<div style=""font-size:60px;"">+</div>","","null","","","","","","","","","","","","","","","","","","","",""
"audio-button-response","13","242470","0.0-3.0-1.0-1.2","be9141c41509de4894941d5dbe479820a6fa372c3e85c30106fa7ae96ddf1c3c","arctic","arctic","4463","","audio/t2_1.mp3","1","","1","1","headphone-test","","","","","","","","","","","","","","","","",""
"html-keyboard-response","14","242971","0.0-3.0-1.0-2.2","be9141c41509de4894941d5dbe479820a6fa372c3e85c30106fa7ae96ddf1c3c","arctic","arctic","null","","<p>Correct</p>","","null","","","","","","","","","","","","","","","","","","","",""
"html-keyboard-response","15","243472","0.0-3.0-1.0-0.3","be9141c41509de4894941d5dbe479820a6fa372c3e85c30106fa7ae96ddf1c3c","arctic","arctic","null","","<div style=""font-size:60px;"">+</div>","","null","","","","","","","","","","","","","","","","","","","",""
"audio-button-response","16","247868","0.0-3.0-1.0-1.3","be9141c41509de4894941d5dbe479820a6fa372c3e85c30106fa7ae96ddf1c3c","arctic","arctic","4395","","audio/t3_2.mp3","2","","2","1","headphone-test","","","","","","","","","","","","","","","","",""
"html-keyboard-response","17","248369","0.0-3.0-1.0-2.3","be9141c41509de4894941d5dbe479820a6fa372c3e85c30106fa7ae96ddf1c3c","arctic","arctic","null","","<p>Correct</p>","","null","","","","","","","","","","","","","","","","","","","",""
"html-keyboard-response","18","248871","0.0-3.0-1.0-0.4","be9141c41509de4894941d5dbe479820a6fa372c3e85c30106fa7ae96ddf1c3c","arctic","arctic","null","","<div style=""font-size:60px;"">+</div>","","null","","","","","","","","","","","","","","","","","","","",""
"audio-button-response","19","253407","0.0-3.0-1.0-1.4","be9141c41509de4894941d5dbe479820a6fa372c3e85c30106fa7ae96ddf1c3c","arctic","arctic","4535","","audio/t1_1.mp3","0","","0","1","headphone-test","","","","","","","","","","","","","","","","",""
"html-keyboard-response","20","253907","0.0-3.0-1.0-2.4","be9141c41509de4894941d5dbe479820a6fa372c3e85c30106fa7ae96ddf1c3c","arctic","arctic","null","","<p>Correct</p>","","null","","","","","","","","","","","","","","","","","","","",""
"html-keyboard-response","21","254408","0.0-3.0-1.0-0.5","be9141c41509de4894941d5dbe479820a6fa372c3e85c30106fa7ae96ddf1c3c","arctic","arctic","null","","<div style=""font-size:60px;"">+</div>","","null","","","","","","","","","","","","","","","","","","","",""
"audio-button-response","22","258936","0.0-3.0-1.0-1.5","be9141c41509de4894941d5dbe479820a6fa372c3e85c30106fa7ae96ddf1c3c","arctic","arctic","4527","","audio/t1_2.mp3","0","","0","1","headphone-test","","","","","","","","","","","","","","","","",""
"html-keyboard-response","23","259437","0.0-3.0-1.0-2.5","be9141c41509de4894941d5dbe479820a6fa372c3e85c30106fa7ae96ddf1c3c","arctic","arctic","null","","<p>Correct</p>","","null","","","","","","","","","","","","","","","","","","","",""
"fullscreen","24","293581","0.0-4.0","be9141c41509de4894941d5dbe479820a6fa372c3e85c30106fa7ae96ddf1c3c","arctic","arctic","","","","","","","","","true","","","","","","","","","","","","","","","",""
"html-button-response","25","314862","0.0-5.0-0.0","be9141c41509de4894941d5dbe479820a6fa372c3e85c30106fa7ae96ddf1c3c","arctic","arctic","21281","","<p>There are two blocks to this experiment.</p><p>In each block, you will hear a ~13.5 minute story. One of the stories will be scrambled. Please listen carefully to both stories and understand them as best you can.</p><p>After each story, you will be asked some questions to assess your comprehension.</p>","0","","","","","","","","","","","","","","","","","","","","",""
"html-button-response","26","429471","0.0-5.0-1.0","be9141c41509de4894941d5dbe479820a6fa372c3e85c30106fa7ae96ddf1c3c","arctic","arctic","114609","","<p>During each story, there will be an additional task.</p><p>A letter will occasionally appear on the screen.</br>Your job is to - as quickly as you can - decide whether the letter is lowercase or uppercase and press one of two keys on the keyboard:</p><p>If the letter is <b>lowercase</b>, press key &lt;<b>x</b>&gt;.</p><p>If the letter is <b>uppercase</b>, press key &lt;<b>m</b>&gt;.</p>","0","","","","","","","","","","","","","","","","","","","","",""
"html-keyboard-response","27","459897","0.0-5.0-2.0","be9141c41509de4894941d5dbe479820a6fa372c3e85c30106fa7ae96ddf1c3c","arctic","arctic","30426","","<p>Because we want your responses to be as quick as possible, please keep your index fingers over the keys while listening.</p><p>Each block lasts about 20 minutes.</p><p><b>Press &lt;x&gt; or &lt;m&gt; to start the first block!</b></p>","","88","","","","","","","","","","","","","","","","","","","",""
"html-keyboard-response","28","460399","0.0-6.0-0.0-0.0","be9141c41509de4894941d5dbe479820a6fa372c3e85c30106fa7ae96ddf1c3c","arctic","arctic","null","","<div style=""font-size:60px;"" tabindex=""0"">+</div>","","null","","","","","","","","","","","","","","","","","","","",""
"dual-task","null","null","null","","arctic","arctic","927.2999999523163","","a","null","88","88","1","arctic-dual-task","","a","lowercase","12000","0","2","be9141c41509de4894941d5dbe479820a6fa372c3e85c30106fa7ae96ddf1c3c","12000.5","927.2999999523163","88","1","arctic","","","","",""
"dual-task","null","null","null","","arctic","arctic","774.2000000476837","","E","null","77","77","1","arctic-dual-task","","E","uppercase","20000","0","2","be9141c41509de4894941d5dbe479820a6fa372c3e85c30106fa7ae96ddf1c3c","19999.60000014305","774.2000000476837","77","1","arctic","","","","",""
"dual-task","null","null","null","","arctic","arctic","800.7000000476837","","R","null","77","77","1","arctic-dual-task","","R","uppercase","26000","0","2","be9141c41509de4894941d5dbe479820a6fa372c3e85c30106fa7ae96ddf1c3c","25999.800000190735","800.7000000476837","77","1","arctic","","","","",""
"dual-task","null","null","null","","arctic","arctic","777.2000000476837","","b","null","88","88","1","arctic-dual-task","","b","lowercase","36000","0","2","be9141c41509de4894941d5dbe479820a6fa372c3e85c30106fa7ae96ddf1c3c","36000.300000190735","777.2000000476837","88","1","arctic","","","","",""
"dual-task","null","null","null","","arctic","arctic","793.4000000953674","","N","null","77","77","1","arctic-dual-task","","N","uppercase","48000","0","2","be9141c41509de4894941d5dbe479820a6fa372c3e85c30106fa7ae96ddf1c3c","48000.90000009537","793.4000000953674","77","1","arctic","","","","",""
"dual-task","null","null","null","","arctic","arctic","734.2999999523163","","t","null","88","88","1","arctic-dual-task","","t","lowercase","54000","0","2","be9141c41509de4894941d5dbe479820a6fa372c3e85c30106fa7ae96ddf1c3c","54000","734.2999999523163","88","1","arctic","","","","",""
"dual-task","null","null","null","","arctic","arctic","795.5","","E","null","77","77","1","arctic-dual-task","","E","uppercase","62000","0","2","be9141c41509de4894941d5dbe479820a6fa372c3e85c30106fa7ae96ddf1c3c","61999.40000009537","795.5","77","1","arctic","","","","",""
"dual-task","null","null","null","","arctic","arctic","660.7000000476837","","D","null","77","77","1","arctic-dual-task","","D","uppercase","72000","0","2","be9141c41509de4894941d5dbe479820a6fa372c3e85c30106fa7ae96ddf1c3c","71999.90000009537","660.7000000476837","77","1","arctic","","","","",""
"dual-task","null","null","null","","arctic","arctic","670.5","","T","null","77","77","1","arctic-dual-task","","T","uppercase","78000","0","2","be9141c41509de4894941d5dbe479820a6fa372c3e85c30106fa7ae96ddf1c3c","78000.20000004768","670.5","77","1","arctic","","","","",""
"dual-task","null","null","null","","arctic","arctic","594.9000000953674","","H","null","77","77","1","arctic-dual-task","","H","uppercase","90000","0","2","be9141c41509de4894941d5dbe479820a6fa372c3e85c30106fa7ae96ddf1c3c","89999.70000004768","594.9000000953674","77","1","arctic","","","","",""
"dual-task","null","null","null","","arctic","arctic","668.2999999523163","","t","null","88","88","1","arctic-dual-task","","t","lowercase","96000","0","2","be9141c41509de4894941d5dbe479820a6fa372c3e85c30106fa7ae96ddf1c3c","96000.10000014305","668.2999999523163","88","1","arctic","","","","",""
"dual-task","null","null","null","","arctic","arctic","661","","T","null","77","77","1","arctic-dual-task","","T","uppercase","102000","0","2","be9141c41509de4894941d5dbe479820a6fa372c3e85c30106fa7ae96ddf1c3c","102000.30000019073","661","77","1","arctic","","","","",""
"dual-task","null","null","null","","arctic","arctic","894.4000000953674","","q","null","88","88","1","arctic-dual-task","","q","lowercase","114000","0","2","be9141c41509de4894941d5dbe479820a6fa372c3e85c30106fa7ae96ddf1c3c","113999.80000019073","894.4000000953674","88","1","arctic","","","","",""
"dual-task","null","null","null","","arctic","arctic","934.0999999046326","","H","null","77","77","1","arctic-dual-task","","H","uppercase","126000","0","2","be9141c41509de4894941d5dbe479820a6fa372c3e85c30106fa7ae96ddf1c3c","126000.30000019073","934.0999999046326","77","1","arctic","","","","",""
"dual-task","null","null","null","","arctic","arctic","727.7999999523163","","R","null","77","77","1","arctic-dual-task","","R","uppercase","138000","0","2","be9141c41509de4894941d5dbe479820a6fa372c3e85c30106fa7ae96ddf1c3c","137999.90000009537","727.7999999523163","77","1","arctic","","","","",""
"dual-task","null","null","null","","arctic","arctic","560","","A","null","77","77","1","arctic-dual-task","","A","uppercase","148000","0","2","be9141c41509de4894941d5dbe479820a6fa372c3e85c30106fa7ae96ddf1c3c","148000.30000019073","560","77","1","arctic","","","","",""
"dual-task","null","null","null","","arctic","arctic","649","","t","null","88","88","1","arctic-dual-task","","t","lowercase","158000","0","2","be9141c41509de4894941d5dbe479820a6fa372c3e85c30106fa7ae96ddf1c3c","157999.80000019073","649","88","1","arctic","","","","",""
"dual-task","null","null","null","","arctic","arctic","763.9000000953674","","r","null","88","88","1","arctic-dual-task","","r","lowercase","166000","0","2","be9141c41509de4894941d5dbe479820a6fa372c3e85c30106fa7ae96ddf1c3c","166000.10000014305","763.9000000953674","88","1","arctic","","","","",""
"dual-task","null","null","null","","arctic","arctic","553.1000001430511","","Q","null","77","77","1","arctic-dual-task","","Q","uppercase","174000","0","2","be9141c41509de4894941d5dbe479820a6fa372c3e85c30106fa7ae96ddf1c3c","174000.5","553.1000001430511","77","1","arctic","","","","",""
"dual-task","null","null","null","","arctic","arctic","778.7999999523163","","r","null","88","88","1","arctic-dual-task","","r","lowercase","182000","0","2","be9141c41509de4894941d5dbe479820a6fa372c3e85c30106fa7ae96ddf1c3c","181999.90000009537","778.7999999523163","88","1","arctic","","","","",""
"dual-task","null","null","null","","arctic","arctic","627.9000000953674","","A","null","77","77","1","arctic-dual-task","","A","uppercase","190000","0","2","be9141c41509de4894941d5dbe479820a6fa372c3e85c30106fa7ae96ddf1c3c","190000.20000004768","627.9000000953674","77","1","arctic","","","","",""
"dual-task","null","null","null","","arctic","arctic","646","","n","null","88","88","1","arctic-dual-task","","n","lowercase","198000","0","2","be9141c41509de4894941d5dbe479820a6fa372c3e85c30106fa7ae96ddf1c3c","198000.60000014305","646","88","1","arctic","","","","",""
"dual-task","null","null","null","","arctic","arctic","727.6000001430511","","r","null","88","88","1","arctic-dual-task","","r","lowercase","210000","0","2","be9141c41509de4894941d5dbe479820a6fa372c3e85c30106fa7ae96ddf1c3c","210000.10000014305","727.6000001430511","88","1","arctic","","","","",""
"dual-task","null","null","null","","arctic","arctic","645.9000000953674","","r","null","88","88","1","arctic-dual-task","","r","lowercase","222000","0","2","be9141c41509de4894941d5dbe479820a6fa372c3e85c30106fa7ae96ddf1c3c","221999.60000014305","645.9000000953674","88","1","arctic","","","","",""
"dual-task","null","null","null","","arctic","arctic","716.8999998569489","","f","null","88","88","1","arctic-dual-task","","f","lowercase","236000","0","2","be9141c41509de4894941d5dbe479820a6fa372c3e85c30106fa7ae96ddf1c3c","236000.20000004768","716.8999998569489","88","1","arctic","","","","",""
"dual-task","null","null","null","","arctic","arctic","686.2000000476837","","N","null","77","77","1","arctic-dual-task","","N","uppercase","250000","0","2","be9141c41509de4894941d5dbe479820a6fa372c3e85c30106fa7ae96ddf1c3c","249999.90000009537","686.2000000476837","77","1","arctic","","","","",""
"dual-task","null","null","null","","arctic","arctic","797.0999999046326","","b","null","88","88","1","arctic-dual-task","","b","lowercase","258000","0","2","be9141c41509de4894941d5dbe479820a6fa372c3e85c30106fa7ae96ddf1c3c","258000.30000019073","797.0999999046326","88","1","arctic","","","","",""
"dual-task","null","null","null","","arctic","arctic","640.7999999523163","","F","null","77","77","1","arctic-dual-task","","F","uppercase","268000","0","2","be9141c41509de4894941d5dbe479820a6fa372c3e85c30106fa7ae96ddf1c3c","267999.7000000477","640.7999999523163","77","1","arctic","","","","",""
"dual-task","null","null","null","","arctic","arctic","834.2000000476837","","F","null","77","77","1","arctic-dual-task","","F","uppercase","278000","0","2","be9141c41509de4894941d5dbe479820a6fa372c3e85c30106fa7ae96ddf1c3c","278000.10000014305","834.2000000476837","77","1","arctic","","","","",""
"dual-task","null","null","null","","arctic","arctic","768.2999999523163","","G","null","77","77","1","arctic-dual-task","","G","uppercase","284000","0","2","be9141c41509de4894941d5dbe479820a6fa372c3e85c30106fa7ae96ddf1c3c","284000.40000009537","768.2999999523163","77","1","arctic","","","","",""
"dual-task","null","null","null","","arctic","arctic","784.3999998569489","","f","null","88","88","1","arctic-dual-task","","f","lowercase","292000","0","2","be9141c41509de4894941d5dbe479820a6fa372c3e85c30106fa7ae96ddf1c3c","291999.7000000477","784.3999998569489","88","1","arctic","","","","",""
"dual-task","null","null","null","","arctic","arctic","685.9000000953674","","G","null","77","77","1","arctic-dual-task","","G","uppercase","304000","0","2","be9141c41509de4894941d5dbe479820a6fa372c3e85c30106fa7ae96ddf1c3c","304000.30000019073","685.9000000953674","77","1","arctic","","","","",""
"dual-task","null","null","null","","arctic","arctic","661.7000000476837","","N","null","77","77","1","arctic-dual-task","","N","uppercase","310000","0","2","be9141c41509de4894941d5dbe479820a6fa372c3e85c30106fa7ae96ddf1c3c","310000.60000014305","661.7000000476837","77","1","arctic","","","","",""
"dual-task","null","null","null","","arctic","arctic","718.7999999523163","","n","null","88","88","1","arctic-dual-task","","n","lowercase","322000","0","2","be9141c41509de4894941d5dbe479820a6fa372c3e85c30106fa7ae96ddf1c3c","322000.10000014305","718.7999999523163","88","1","arctic","","","","",""
"dual-task","null","null","null","","arctic","arctic","661.6999998092651","","T","null","77","77","1","arctic-dual-task","","T","uppercase","336000","0","2","be9141c41509de4894941d5dbe479820a6fa372c3e85c30106fa7ae96ddf1c3c","335999.7000000477","661.6999998092651","77","1","arctic","","","","",""
"dual-task","null","null","null","","arctic","arctic","705.5","","B","null","77","77","1","arctic-dual-task","","B","uppercase","344000","0","2","be9141c41509de4894941d5dbe479820a6fa372c3e85c30106fa7ae96ddf1c3c","344000.10000014305","705.5","77","1","arctic","","","","",""
"dual-task","null","null","null","","arctic","arctic","631","","B","null","77","77","1","arctic-dual-task","","B","uppercase","358000","0","2","be9141c41509de4894941d5dbe479820a6fa372c3e85c30106fa7ae96ddf1c3c","357999.80000019073","631","77","1","arctic","","","","",""
"dual-task","null","null","null","","arctic","arctic","693.6000001430511","","T","null","77","77","1","arctic-dual-task","","T","uppercase","370000","0","2","be9141c41509de4894941d5dbe479820a6fa372c3e85c30106fa7ae96ddf1c3c","370005.10000014305","693.6000001430511","77","1","arctic","","","","",""
"dual-task","null","null","null","","arctic","arctic","640.5999999046326","","E","null","77","77","1","arctic-dual-task","","E","uppercase","380000","0","2","be9141c41509de4894941d5dbe479820a6fa372c3e85c30106fa7ae96ddf1c3c","380000.7000000477","640.5999999046326","77","1","arctic","","","","",""
"dual-task","null","null","null","","arctic","arctic","679","","E","null","77","77","1","arctic-dual-task","","E","uppercase","392000","0","2","be9141c41509de4894941d5dbe479820a6fa372c3e85c30106fa7ae96ddf1c3c","392000.2000000477","679","77","1","arctic","","","","",""
"dual-task","null","null","null","","arctic","arctic","1161","","q","null","88","88","1","arctic-dual-task","","q","lowercase","400000","0","2","be9141c41509de4894941d5dbe479820a6fa372c3e85c30106fa7ae96ddf1c3c","400000.60000014305","1161","88","1","arctic","","","","",""
"dual-task","null","null","null","","arctic","arctic","794.2999999523163","","b","null","88","88","1","arctic-dual-task","","b","lowercase","408000","0","2","be9141c41509de4894941d5dbe479820a6fa372c3e85c30106fa7ae96ddf1c3c","408000","794.2999999523163","88","1","arctic","","","","",""
"dual-task","null","null","null","","arctic","arctic","650.7000000476837","","D","null","77","77","1","arctic-dual-task","","D","uppercase","420000","0","2","be9141c41509de4894941d5dbe479820a6fa372c3e85c30106fa7ae96ddf1c3c","420000.40000009537","650.7000000476837","77","1","arctic","","","","",""
"dual-task","null","null","null","","arctic","arctic","661.6000001430511","","H","null","77","77","1","arctic-dual-task","","H","uppercase","430000","0","2","be9141c41509de4894941d5dbe479820a6fa372c3e85c30106fa7ae96ddf1c3c","430000","661.6000001430511","77","1","arctic","","","","",""
"dual-task","null","null","null","","arctic","arctic","693.3999998569489","","n","null","88","88","1","arctic-dual-task","","n","lowercase","442000","0","2","be9141c41509de4894941d5dbe479820a6fa372c3e85c30106fa7ae96ddf1c3c","442000.5","693.3999998569489","88","1","arctic","","","","",""
"dual-task","null","null","null","","arctic","arctic","708.7000000476837","","g","null","88","88","1","arctic-dual-task","","g","lowercase","456000","0","2","be9141c41509de4894941d5dbe479820a6fa372c3e85c30106fa7ae96ddf1c3c","456000.10000014305","708.7000000476837","88","1","arctic","","","","",""
"dual-task","null","null","null","","arctic","arctic","760.1000001430511","","Q","null","77","77","1","arctic-dual-task","","Q","uppercase","464000","0","2","be9141c41509de4894941d5dbe479820a6fa372c3e85c30106fa7ae96ddf1c3c","464000.40000009537","760.1000001430511","77","1","arctic","","","","",""
"dual-task","null","null","null","","arctic","arctic","701.7999999523163","","n","null","88","88","1","arctic-dual-task","","n","lowercase","470000","0","2","be9141c41509de4894941d5dbe479820a6fa372c3e85c30106fa7ae96ddf1c3c","470000.7000000477","701.7999999523163","88","1","arctic","","","","",""
"dual-task","null","null","null","","arctic","arctic","662.7999999523163","","R","null","77","77","1","arctic-dual-task","","R","uppercase","476000","0","2","be9141c41509de4894941d5dbe479820a6fa372c3e85c30106fa7ae96ddf1c3c","476000.10000014305","662.7999999523163","77","1","arctic","","","","",""
"dual-task","null","null","null","","arctic","arctic","629","","N","null","77","77","1","arctic-dual-task","","N","uppercase","490000","0","2","be9141c41509de4894941d5dbe479820a6fa372c3e85c30106fa7ae96ddf1c3c","490000.60000014305","629","77","1","arctic","","","","",""
"dual-task","null","null","null","","arctic","arctic","568.7999999523163","","H","null","77","77","1","arctic-dual-task","","H","uppercase","502000","0","2","be9141c41509de4894941d5dbe479820a6fa372c3e85c30106fa7ae96ddf1c3c","502000.10000014305","568.7999999523163","77","1","arctic","","","","",""
"dual-task","null","null","null","","arctic","arctic","760","","d","null","88","88","1","arctic-dual-task","","d","lowercase","510000","0","2","be9141c41509de4894941d5dbe479820a6fa372c3e85c30106fa7ae96ddf1c3c","510000.5","760","88","1","arctic","","","","",""
"dual-task","null","null","null","","arctic","arctic","615.7999999523163","","h","null","88","88","1","arctic-dual-task","","h","lowercase","516000","0","2","be9141c41509de4894941d5dbe479820a6fa372c3e85c30106fa7ae96ddf1c3c","516000.80000019073","615.7999999523163","88","1","arctic","","","","",""
"dual-task","null","null","null","","arctic","arctic","638.1999998092651","","D","null","77","77","1","arctic-dual-task","","D","uppercase","526000","0","2","be9141c41509de4894941d5dbe479820a6fa372c3e85c30106fa7ae96ddf1c3c","526000.2000000477","638.1999998092651","77","1","arctic","","","","",""
"dual-task","null","null","null","","arctic","arctic","699.6999998092651","","e","null","88","88","1","arctic-dual-task","","e","lowercase","538000","0","2","be9141c41509de4894941d5dbe479820a6fa372c3e85c30106fa7ae96ddf1c3c","538000.8000001907","699.6999998092651","88","1","arctic","","","","",""
"dual-task","null","null","null","","arctic","arctic","729.1000001430511","","h","null","88","88","1","arctic-dual-task","","h","lowercase","552000","0","2","be9141c41509de4894941d5dbe479820a6fa372c3e85c30106fa7ae96ddf1c3c","552000.3000001907","729.1000001430511","88","1","arctic","","","","",""
"dual-task","null","null","null","","arctic","arctic","696.7999999523163","","D","null","77","77","1","arctic-dual-task","","D","uppercase","564000","0","2","be9141c41509de4894941d5dbe479820a6fa372c3e85c30106fa7ae96ddf1c3c","564000","696.7999999523163","77","1","arctic","","","","",""
"dual-task","null","null","null","","arctic","arctic","728.5999999046326","","F","null","77","77","1","arctic-dual-task","","F","uppercase","572000","0","2","be9141c41509de4894941d5dbe479820a6fa372c3e85c30106fa7ae96ddf1c3c","572000.3000001907","728.5999999046326","77","1","arctic","","","","",""
"dual-task","null","null","null","","arctic","arctic","602.5999999046326","","e","null","88","88","1","arctic-dual-task","","e","lowercase","582000","0","2","be9141c41509de4894941d5dbe479820a6fa372c3e85c30106fa7ae96ddf1c3c","582000.7000000477","602.5999999046326","88","1","arctic","","","","",""
"dual-task","null","null","null","","arctic","arctic","602.6000001430511","","a","null","88","88","1","arctic-dual-task","","a","lowercase","590000","0","2","be9141c41509de4894941d5dbe479820a6fa372c3e85c30106fa7ae96ddf1c3c","590000.100000143","602.6000001430511","88","1","arctic","","","","",""
"dual-task","null","null","null","","arctic","arctic","1039.7999999523163","","f","null","88","88","1","arctic-dual-task","","f","lowercase","596000","0","2","be9141c41509de4894941d5dbe479820a6fa372c3e85c30106fa7ae96ddf1c3c","596000.3000001907","1039.7999999523163","88","1","arctic","","","","",""
"dual-task","null","null","null","","arctic","arctic","878.6999998092651","","G","null","77","77","1","arctic-dual-task","","G","uppercase","604000","0","2","be9141c41509de4894941d5dbe479820a6fa372c3e85c30106fa7ae96ddf1c3c","604000.8000001907","878.6999998092651","77","1","arctic","","","","",""
"dual-task","null","null","null","","arctic","arctic","571.5","","e","null","88","88","1","arctic-dual-task","","e","lowercase","612000","0","2","be9141c41509de4894941d5dbe479820a6fa372c3e85c30106fa7ae96ddf1c3c","612000.100000143","571.5","88","1","arctic","","","","",""
"dual-task","null","null","null","","arctic","arctic","631","","d","null","88","88","1","arctic-dual-task","","d","lowercase","624000","0","2","be9141c41509de4894941d5dbe479820a6fa372c3e85c30106fa7ae96ddf1c3c","624000.600000143","631","88","1","arctic","","","","",""
"dual-task","null","null","null","","arctic","arctic","677.8999998569489","","h","null","88","88","1","arctic-dual-task","","h","lowercase","632000","0","2","be9141c41509de4894941d5dbe479820a6fa372c3e85c30106fa7ae96ddf1c3c","632000","677.8999998569489","88","1","arctic","","","","",""
"dual-task","null","null","null","","arctic","arctic","646.7999999523163","","b","null","88","88","1","arctic-dual-task","","b","lowercase","644000","0","2","be9141c41509de4894941d5dbe479820a6fa372c3e85c30106fa7ae96ddf1c3c","644000.5","646.7999999523163","88","1","arctic","","","","",""
"dual-task","null","null","null","","arctic","arctic","687","","B","null","77","77","1","arctic-dual-task","","B","uppercase","654000","0","2","be9141c41509de4894941d5dbe479820a6fa372c3e85c30106fa7ae96ddf1c3c","653999.9000000954","687","77","1","arctic","","","","",""
"dual-task","null","null","null","","arctic","arctic","760.7999999523163","","B","null","77","77","1","arctic-dual-task","","B","uppercase","664000","0","2","be9141c41509de4894941d5dbe479820a6fa372c3e85c30106fa7ae96ddf1c3c","664000.4000000954","760.7999999523163","77","1","arctic","","","","",""
"dual-task","null","null","null","","arctic","arctic","841.4000000953674","","a","null","88","88","1","arctic-dual-task","","a","lowercase","672000","0","2","be9141c41509de4894941d5dbe479820a6fa372c3e85c30106fa7ae96ddf1c3c","672000.8000001907","841.4000000953674","88","1","arctic","","","","",""
"dual-task","null","null","null","","arctic","arctic","667.7000000476837","","F","null","77","77","1","arctic-dual-task","","F","uppercase","678000","0","2","be9141c41509de4894941d5dbe479820a6fa372c3e85c30106fa7ae96ddf1c3c","678000.100000143","667.7000000476837","77","1","arctic","","","","",""
"dual-task","null","null","null","","arctic","arctic","627.2000000476837","","R","null","77","77","1","arctic-dual-task","","R","uppercase","686000","0","2","be9141c41509de4894941d5dbe479820a6fa372c3e85c30106fa7ae96ddf1c3c","686000.4000000954","627.2000000476837","77","1","arctic","","","","",""
"dual-task","null","null","null","","arctic","arctic","636.1000001430511","","A","null","77","77","1","arctic-dual-task","","A","uppercase","698000","0","2","be9141c41509de4894941d5dbe479820a6fa372c3e85c30106fa7ae96ddf1c3c","698000.9000000954","636.1000001430511","77","1","arctic","","","","",""
"dual-task","null","null","null","","arctic","arctic","720.6000001430511","","f","null","88","88","1","arctic-dual-task","","f","lowercase","712000","0","2","be9141c41509de4894941d5dbe479820a6fa372c3e85c30106fa7ae96ddf1c3c","712000.5","720.6000001430511","88","1","arctic","","","","",""
"dual-task","null","null","null","","arctic","arctic","859.9000000953674","","A","null","77","77","1","arctic-dual-task","","A","uppercase","718000","0","2","be9141c41509de4894941d5dbe479820a6fa372c3e85c30106fa7ae96ddf1c3c","718000.9000000954","859.9000000953674","77","1","arctic","","","","",""
"dual-task","null","null","null","","arctic","arctic","719.2000000476837","","d","null","88","88","1","arctic-dual-task","","d","lowercase","732000","0","2","be9141c41509de4894941d5dbe479820a6fa372c3e85c30106fa7ae96ddf1c3c","732000.600000143","719.2000000476837","88","1","arctic","","","","",""
"dual-task","null","null","null","","arctic","arctic","685.1999998092651","","q","null","88","88","1","arctic-dual-task","","q","lowercase","738000","0","2","be9141c41509de4894941d5dbe479820a6fa372c3e85c30106fa7ae96ddf1c3c","738000.8000001907","685.1999998092651","88","1","arctic","","","","",""
"dual-task","null","null","null","","arctic","arctic","849.5999999046326","","g","null","88","88","1","arctic-dual-task","","g","lowercase","752000","0","2","be9141c41509de4894941d5dbe479820a6fa372c3e85c30106fa7ae96ddf1c3c","752000.3000001907","849.5999999046326","88","1","arctic","","","","",""
"dual-task","null","null","null","","arctic","arctic","851.2000000476837","","q","null","88","88","1","arctic-dual-task","","q","lowercase","760000","0","2","be9141c41509de4894941d5dbe479820a6fa372c3e85c30106fa7ae96ddf1c3c","760000.8000001907","851.2000000476837","88","1","arctic","","","","",""
"dual-task","null","null","null","","arctic","arctic","671.5","","e","null","88","88","1","arctic-dual-task","","e","lowercase","768000","0","2","be9141c41509de4894941d5dbe479820a6fa372c3e85c30106fa7ae96ddf1c3c","768000.100000143","671.5","88","1","arctic","","","","",""
"dual-task","null","null","null","","arctic","arctic","1134","","d","null","88","88","1","arctic-dual-task","","d","lowercase","780000","0","2","be9141c41509de4894941d5dbe479820a6fa372c3e85c30106fa7ae96ddf1c3c","780000.600000143","1134","88","1","arctic","","","","",""
"audio-keyboard-response","29","1258404","0.0-6.0-0.0-1.0","be9141c41509de4894941d5dbe479820a6fa372c3e85c30106fa7ae96ddf1c3c","arctic","arctic","null","","audio/story_arctic_scrambled.mp3","","null","","","","","","","","","","","","","","","","","","","",""
"html-button-response","30","1262312","0.0-6.0-0.0-2.0","be9141c41509de4894941d5dbe479820a6fa372c3e85c30106fa7ae96ddf1c3c","arctic","arctic","3908","","<p>This concludes the story. Thank you for listening.</p><p>You will now answer some questions about the content of the story.</p>","0","","","","","","","","","","","","","","","","","","","","",""
"survey-multi-choice","31","1282126","0.0-6.0-0.0-3.0-0.0","be9141c41509de4894941d5dbe479820a6fa372c3e85c30106fa7ae96ddf1c3c","arctic","arctic","19812","","<b>What did the narrator do for leisure while in her tent?</b>","","","","1","arctic-comprehension","","","","","","","","","","","","","{""Q0"":""Read""}","","","",""
"survey-multi-choice","32","1298866","0.0-6.0-0.0-3.0-0.1","be9141c41509de4894941d5dbe479820a6fa372c3e85c30106fa7ae96ddf1c3c","arctic","arctic","16486","","<b>How did the narrator&#39;s encounter with the polar bears end?</b>","","","","1","arctic-comprehension","","","","","","","","","","","","","{""Q0"":""The bears walked back to their den.""}","","","",""
"survey-multi-choice","33","1322066","0.0-6.0-0.0-3.0-0.2","be9141c41509de4894941d5dbe479820a6fa372c3e85c30106fa7ae96ddf1c3c","arctic","arctic","22948","","<b>Which dog on the narrator&#39;s dog team never followed instructions?</b>","","","","1","arctic-comprehension","","","","","","","","","","","","","{""Q0"":""Robert""}","","","",""
"survey-multi-choice","34","1342292","0.0-6.0-0.0-3.0-0.3","be9141c41509de4894941d5dbe479820a6fa372c3e85c30106fa7ae96ddf1c3c","arctic","arctic","19972","","<b>How many sponsorships did the narrator receive to support her expedition?</b>","","","","1","arctic-comprehension","","","","","","","","","","","","","{""Q0"":""None""}","","","",""
"survey-multi-choice","35","1352569","0.0-6.0-0.0-3.0-0.4","be9141c41509de4894941d5dbe479820a6fa372c3e85c30106fa7ae96ddf1c3c","arctic","arctic","10025","","<b>How did the narrator&#39;s neighbour respond when she told him about her expedition?</b>","","","","1","arctic-comprehension","","","","","","","","","","","","","{""Q0"":""He said she was going to fail.""}","","","",""
"survey-multi-choice","36","1366501","0.0-6.0-0.0-3.0-0.5","be9141c41509de4894941d5dbe479820a6fa372c3e85c30106fa7ae96ddf1c3c","arctic","arctic","13678","","<b>What was the objective of the narrator&#39;s expedition?</b>","","","","1","arctic-comprehension","","","","","","","","","","","","","{""Q0"":""Dogsled across Arctic America""}","","","",""
"survey-multi-choice","37","1371715","0.0-6.0-0.0-3.0-0.6","be9141c41509de4894941d5dbe479820a6fa372c3e85c30106fa7ae96ddf1c3c","arctic","arctic","4962","","<b>What is the name of the narrator&#39;s neighbour?</b>","","","","1","arctic-comprehension","","","","","","","","","","","","","{""Q0"":""Dave""}","","","",""
"survey-multi-choice","38","1384835","0.0-6.0-0.0-3.0-0.7","be9141c41509de4894941d5dbe479820a6fa372c3e85c30106fa7ae96ddf1c3c","arctic","arctic","12868","","<b>How did the narrator prepare for her expedition?</b>","","","","1","arctic-comprehension","","","","","","","","","","","","","{""Q0"":""Trained in Alaska learning how to dogsled""}","","","",""
"survey-multi-choice","39","1409702","0.0-6.0-0.0-3.0-0.8","be9141c41509de4894941d5dbe479820a6fa372c3e85c30106fa7ae96ddf1c3c","arctic","arctic","24614","","<b>What were the weather conditions in the Arctic like the winter of the narrator&#39;s expedition?</b>","","","","1","arctic-comprehension","","","","","","","","","","","","","{""Q0"":""There were more storms than any other winter in recorded history.""}","","","",""
"survey-multi-choice","40","1421322","0.0-6.0-0.0-3.0-0.9","be9141c41509de4894941d5dbe479820a6fa372c3e85c30106fa7ae96ddf1c3c","arctic","arctic","11366","","<b>How did the dogs respond when they saw the bears?</b>","","","","0","arctic-comprehension","","","","","","","","","","","","","{""Q0"":""Barked aggressively""}","","","",""
"html-button-response","41","1426488","0.0-6.0-0.0-4.0","be9141c41509de4894941d5dbe479820a6fa372c3e85c30106fa7ae96ddf1c3c","arctic","arctic","4914","","<p>Thank you for your responses.</p><p>You will now answer some questions about your impressions of the story.</p>","0","","","","","","","","","","","","","","","","","","","","",""
"html-button-response","42","1433183","0.0-6.0-0.0-5.0-0.0","be9141c41509de4894941d5dbe479820a6fa372c3e85c30106fa7ae96ddf1c3c","arctic","arctic","6695","","EE3","1","","","","arctic-engagement","","","","","","","","","","","","","","2","emo-engage","",""
"html-button-response","43","1443968","0.0-6.0-0.0-5.0-0.1","be9141c41509de4894941d5dbe479820a6fa372c3e85c30106fa7ae96ddf1c3c","arctic","arctic","10533","","A4","0","","","","arctic-engagement","","","","","","","","","","","","","","1","absorption","",""
"html-button-response","44","1455861","0.0-6.0-0.0-5.0-0.2","be9141c41509de4894941d5dbe479820a6fa372c3e85c30106fa7ae96ddf1c3c","arctic","arctic","11642","","MS1","2","","","","arctic-engagement","","","","","","","","","","","","","","3","mental-sim","",""
"html-button-response","45","1463481","0.0-6.0-0.0-5.0-0.3","be9141c41509de4894941d5dbe479820a6fa372c3e85c30106fa7ae96ddf1c3c","arctic","arctic","7368","","MS3","5","","","","arctic-engagement","","","","","","","","","","","","","","6","mental-sim","",""
"html-button-response","46","1471643","0.0-6.0-0.0-5.0-0.4","be9141c41509de4894941d5dbe479820a6fa372c3e85c30106fa7ae96ddf1c3c","arctic","arctic","7909","","A5","0","","","","arctic-engagement","","","","","","","","","","","","","","1","absorption","",""
"html-button-response","47","1478416","0.0-6.0-0.0-5.0-0.5","be9141c41509de4894941d5dbe479820a6fa372c3e85c30106fa7ae96ddf1c3c","arctic","arctic","6522","","A1","1","","","","arctic-engagement","","","","","","","","","","","","","","2","absorption","",""
"html-button-response","48","1488816","0.0-6.0-0.0-5.0-0.6","be9141c41509de4894941d5dbe479820a6fa372c3e85c30106fa7ae96ddf1c3c","arctic","arctic","10148","","E1","4","","","","arctic-engagement","","","","","","","","","","","","","","5","enjoyment","",""
"html-button-response","49","1492166","0.0-6.0-0.0-5.0-0.7","be9141c41509de4894941d5dbe479820a6fa372c3e85c30106fa7ae96ddf1c3c","arctic","arctic","3098","","E10","0","","","","arctic-engagement","","","","","","","","","","","","","","1","enjoyment","",""
"html-button-response","50","1496909","0.0-6.0-0.0-5.0-0.8","be9141c41509de4894941d5dbe479820a6fa372c3e85c30106fa7ae96ddf1c3c","arctic","arctic","4491","","E7","3","","","","arctic-engagement","","","","","","","","","","","","","","4","enjoyment","",""
"html-button-response","51","1504061","0.0-6.0-0.0-5.0-0.9","be9141c41509de4894941d5dbe479820a6fa372c3e85c30106fa7ae96ddf1c3c","arctic","arctic","6899","","EE1","2","","","","arctic-engagement","","","","","","","","","","","","","","3","emo-engage","",""
"html-button-response","52","1513037","0.0-6.0-0.0-5.0-0.10","be9141c41509de4894941d5dbe479820a6fa372c3e85c30106fa7ae96ddf1c3c","arctic","arctic","8725","","E6","4","","","","arctic-engagement","","","","","","","","","","","","","","5","enjoyment","",""
"html-button-response","53","1517813","0.0-6.0-0.0-5.0-0.11","be9141c41509de4894941d5dbe479820a6fa372c3e85c30106fa7ae96ddf1c3c","arctic","arctic","4525","","EE4","0","","","","arctic-engagement","","","","","","","","","","","","","","1","emo-engage","",""
"html-button-response","54","1522734","0.0-6.0-0.0-5.0-0.12","be9141c41509de4894941d5dbe479820a6fa372c3e85c30106fa7ae96ddf1c3c","arctic","arctic","4670","","EE5","0","","","","arctic-engagement","","","","","","","","","","","","","","1","emo-engage","",""
"html-button-response","55","1531142","0.0-6.0-0.0-5.0-0.13","be9141c41509de4894941d5dbe479820a6fa372c3e85c30106fa7ae96ddf1c3c","arctic","arctic","8155","","MS2","1","","","","arctic-engagement","","","","","","","","","","","","","","2","mental-sim","",""
"html-button-response","56","1535171","0.0-6.0-0.0-5.0-0.14","be9141c41509de4894941d5dbe479820a6fa372c3e85c30106fa7ae96ddf1c3c","arctic","arctic","3777","","E8","0","","","","arctic-engagement","","","","","","","","","","","","","","1","enjoyment","",""
"html-button-response","57","1539856","0.0-6.0-0.0-5.0-0.15","be9141c41509de4894941d5dbe479820a6fa372c3e85c30106fa7ae96ddf1c3c","arctic","arctic","4433","","A2","6","","","","arctic-engagement","","","","","","","","","","","","","","7","absorption","",""
"html-button-response","58","1547716","0.0-6.0-0.0-5.0-0.16","be9141c41509de4894941d5dbe479820a6fa372c3e85c30106fa7ae96ddf1c3c","arctic","arctic","7609","","A3","1","","","","arctic-engagement","","","","","","","","","","","","","","2","absorption","",""
"html-button-response","59","1550762","0.0-6.0-0.0-5.0-0.17","be9141c41509de4894941d5dbe479820a6fa372c3e85c30106fa7ae96ddf1c3c","arctic","arctic","2795","","EE2","0","","","","arctic-engagement","","","","","","","","","","","","","","1","emo-engage","",""
"html-keyboard-response","60","1607139","0.0-6.0-1.0","be9141c41509de4894941d5dbe479820a6fa372c3e85c30106fa7ae96ddf1c3c","arctic","arctic","56124","","<p>Thank you for your responses. You will now listen to the second story.</p><p>Remember, as you listen to the story you will see letters appear on the screen.</br>As quickly as possible, press <b>&lt;x&gt;</b> if the letter is lowercase and <b>&lt;m&gt;</b> if the letter is uppercase.</p><p>Press <b>&lt;x&gt;</b> or <b>&lt;m&gt;</b> to begin listening!</p>","","88","","","","","","","","","","","","","","","","","","","",""
"html-keyboard-response","61","1607639","0.0-6.0-2.0-0.0","be9141c41509de4894941d5dbe479820a6fa372c3e85c30106fa7ae96ddf1c3c","arctic","arctic","null","","<div style=""font-size:60px;"" tabindex=""0"">+</div>","","null","","","","","","","","","","","","","","","","","","","",""
"dual-task","null","null","null","","arctic","arctic","745","","t","null","88","88","1","swim-dual-task","","t","lowercase","12000","0","2","be9141c41509de4894941d5dbe479820a6fa372c3e85c30106fa7ae96ddf1c3c","12000.699999809265","745","88","1","swim","","","","",""
"dual-task","null","null","null","","arctic","arctic","641.0999999046326","","G","null","77","77","1","swim-dual-task","","G","uppercase","24000","0","2","be9141c41509de4894941d5dbe479820a6fa372c3e85c30106fa7ae96ddf1c3c","24000","641.0999999046326","77","1","swim","","","","",""
"dual-task","null","null","null","","arctic","arctic","536","","G","null","77","77","1","swim-dual-task","","G","uppercase","34000","0","2","be9141c41509de4894941d5dbe479820a6fa372c3e85c30106fa7ae96ddf1c3c","34000.39999985695","536","77","1","swim","","","","",""
"dual-task","null","null","null","","arctic","arctic","746.9000000953674","","r","null","88","88","1","swim-dual-task","","r","lowercase","42000","0","2","be9141c41509de4894941d5dbe479820a6fa372c3e85c30106fa7ae96ddf1c3c","42000.799999952316","746.9000000953674","88","1","swim","","","","",""
"dual-task","null","null","null","","arctic","arctic","696.6000001430511","","a","null","88","88","1","swim-dual-task","","a","lowercase","50000","0","2","be9141c41509de4894941d5dbe479820a6fa372c3e85c30106fa7ae96ddf1c3c","50000.09999990463","696.6000001430511","88","1","swim","","","","",""
"dual-task","null","null","null","","arctic","arctic","630.5999999046326","","Q","null","77","77","1","swim-dual-task","","Q","uppercase","58000","0","2","be9141c41509de4894941d5dbe479820a6fa372c3e85c30106fa7ae96ddf1c3c","58000.59999990463","630.5999999046326","77","1","swim","","","","",""
"dual-task","null","null","null","","arctic","arctic","572.4000000953674","","e","null","88","88","1","swim-dual-task","","e","lowercase","68000","0","2","be9141c41509de4894941d5dbe479820a6fa372c3e85c30106fa7ae96ddf1c3c","67999.89999985695","572.4000000953674","88","1","swim","","","","",""
"dual-task","null","null","null","","arctic","arctic","702.2999999523163","","f","null","88","88","1","swim-dual-task","","f","lowercase","78000","0","2","be9141c41509de4894941d5dbe479820a6fa372c3e85c30106fa7ae96ddf1c3c","78000.29999995232","702.2999999523163","88","1","swim","","","","",""
"dual-task","null","null","null","","arctic","arctic","686.7999999523163","","H","null","77","77","1","swim-dual-task","","H","uppercase","86000","0","2","be9141c41509de4894941d5dbe479820a6fa372c3e85c30106fa7ae96ddf1c3c","86000.69999980927","686.7999999523163","77","1","swim","","","","",""
"dual-task","null","null","null","","arctic","arctic","608","","D","null","77","77","1","swim-dual-task","","D","uppercase","98000","0","2","be9141c41509de4894941d5dbe479820a6fa372c3e85c30106fa7ae96ddf1c3c","98000.29999995232","608","77","1","swim","","","","",""
"dual-task","null","null","null","","arctic","arctic","544.4000000953674","","H","null","77","77","1","swim-dual-task","","H","uppercase","110000","0","2","be9141c41509de4894941d5dbe479820a6fa372c3e85c30106fa7ae96ddf1c3c","110000.89999985695","544.4000000953674","77","1","swim","","","","",""
"dual-task","null","null","null","","arctic","arctic","696.5999999046326","","h","null","88","88","1","swim-dual-task","","h","lowercase","118000","0","2","be9141c41509de4894941d5dbe479820a6fa372c3e85c30106fa7ae96ddf1c3c","118000.19999980927","696.5999999046326","88","1","swim","","","","",""
"dual-task","null","null","null","","arctic","arctic","555.4000000953674","","A","null","77","77","1","swim-dual-task","","A","uppercase","132000","0","2","be9141c41509de4894941d5dbe479820a6fa372c3e85c30106fa7ae96ddf1c3c","132000.79999995232","555.4000000953674","77","1","swim","","","","",""
"dual-task","null","null","null","","arctic","arctic","612","","q","null","88","88","1","swim-dual-task","","q","lowercase","146000","0","2","be9141c41509de4894941d5dbe479820a6fa372c3e85c30106fa7ae96ddf1c3c","146000.39999985695","612","88","1","swim","","","","",""
"dual-task","null","null","null","","arctic","arctic","637.2000000476837","","H","null","77","77","1","swim-dual-task","","H","uppercase","154000","0","2","be9141c41509de4894941d5dbe479820a6fa372c3e85c30106fa7ae96ddf1c3c","154000.79999995232","637.2000000476837","77","1","swim","","","","",""
"dual-task","null","null","null","","arctic","arctic","531.5","","B","null","77","77","1","swim-dual-task","","B","uppercase","160000","0","2","be9141c41509de4894941d5dbe479820a6fa372c3e85c30106fa7ae96ddf1c3c","160000.09999990463","531.5","77","1","swim","","","","",""
"dual-task","null","null","null","","arctic","arctic","597.5999999046326","","N","null","77","77","1","swim-dual-task","","N","uppercase","170000","0","2","be9141c41509de4894941d5dbe479820a6fa372c3e85c30106fa7ae96ddf1c3c","170000.5","597.5999999046326","77","1","swim","","","","",""
"dual-task","null","null","null","","arctic","arctic","767","","f","null","88","88","1","swim-dual-task","","f","lowercase","182000","0","2","be9141c41509de4894941d5dbe479820a6fa372c3e85c30106fa7ae96ddf1c3c","182000","767","88","1","swim","","","","",""
"dual-task","null","null","null","","arctic","arctic","666","","r","null","88","88","1","swim-dual-task","","r","lowercase","190000","0","2","be9141c41509de4894941d5dbe479820a6fa372c3e85c30106fa7ae96ddf1c3c","190000.39999985695","666","88","1","swim","","","","",""
"dual-task","null","null","null","","arctic","arctic","601.3999998569489","","N","null","77","77","1","swim-dual-task","","N","uppercase","202000","0","2","be9141c41509de4894941d5dbe479820a6fa372c3e85c30106fa7ae96ddf1c3c","201999.89999985695","601.3999998569489","77","1","swim","","","","",""
"dual-task","null","null","null","","arctic","arctic","673.3999998569489","","r","null","88","88","1","swim-dual-task","","r","lowercase","214000","0","2","be9141c41509de4894941d5dbe479820a6fa372c3e85c30106fa7ae96ddf1c3c","214000.5","673.3999998569489","88","1","swim","","","","",""
"dual-task","null","null","null","","arctic","arctic","649.5999999046326","","n","null","88","88","1","swim-dual-task","","n","lowercase","226000","0","2","be9141c41509de4894941d5dbe479820a6fa372c3e85c30106fa7ae96ddf1c3c","226000","649.5999999046326","88","1","swim","","","","",""
"dual-task","null","null","null","","arctic","arctic","696.5","","N","null","77","77","1","swim-dual-task","","N","uppercase","234000","0","2","be9141c41509de4894941d5dbe479820a6fa372c3e85c30106fa7ae96ddf1c3c","234000.39999985695","696.5","77","1","swim","","","","",""
"dual-task","null","null","null","","arctic","arctic","600.5999999046326","","Q","null","77","77","1","swim-dual-task","","Q","uppercase","242000","0","2","be9141c41509de4894941d5dbe479820a6fa372c3e85c30106fa7ae96ddf1c3c","242000.69999980927","600.5999999046326","77","1","swim","","","","",""
"dual-task","null","null","null","","arctic","arctic","674.6999998092651","","t","null","88","88","1","swim-dual-task","","t","lowercase","248000","0","2","be9141c41509de4894941d5dbe479820a6fa372c3e85c30106fa7ae96ddf1c3c","248000","674.6999998092651","88","1","swim","","","","",""
"dual-task","null","null","null","","arctic","arctic","607.8999998569489","","e","null","88","88","1","swim-dual-task","","e","lowercase","256000","0","2","be9141c41509de4894941d5dbe479820a6fa372c3e85c30106fa7ae96ddf1c3c","256000.29999995232","607.8999998569489","88","1","swim","","","","",""
"dual-task","null","null","null","","arctic","arctic","681.8999998569489","","G","null","77","77","1","swim-dual-task","","G","uppercase","264000","0","2","be9141c41509de4894941d5dbe479820a6fa372c3e85c30106fa7ae96ddf1c3c","264000.7999999523","681.8999998569489","77","1","swim","","","","",""
"dual-task","null","null","null","","arctic","arctic","670.0999999046326","","d","null","88","88","1","swim-dual-task","","d","lowercase","270000","0","2","be9141c41509de4894941d5dbe479820a6fa372c3e85c30106fa7ae96ddf1c3c","269999.89999985695","670.0999999046326","88","1","swim","","","","",""
"dual-task","null","null","null","","arctic","arctic","703","","q","null","88","88","1","swim-dual-task","","q","lowercase","280000","0","2","be9141c41509de4894941d5dbe479820a6fa372c3e85c30106fa7ae96ddf1c3c","280000.39999985695","703","88","1","swim","","","","",""
"dual-task","null","null","null","","arctic","arctic","630.7999999523163","","T","null","77","77","1","swim-dual-task","","T","uppercase","286000","0","2","be9141c41509de4894941d5dbe479820a6fa372c3e85c30106fa7ae96ddf1c3c","286000.7999999523","630.7999999523163","77","1","swim","","","","",""
"dual-task","null","null","null","","arctic","arctic","597.6000001430511","","H","null","77","77","1","swim-dual-task","","H","uppercase","294000","0","2","be9141c41509de4894941d5dbe479820a6fa372c3e85c30106fa7ae96ddf1c3c","294000.09999990463","597.6000001430511","77","1","swim","","","","",""
"dual-task","null","null","null","","arctic","arctic","586","","t","null","88","88","1","swim-dual-task","","t","lowercase","306000","0","2","be9141c41509de4894941d5dbe479820a6fa372c3e85c30106fa7ae96ddf1c3c","306000.5","586","88","1","swim","","","","",""
"dual-task","null","null","null","","arctic","arctic","703.3999998569489","","f","null","88","88","1","swim-dual-task","","f","lowercase","314000","0","2","be9141c41509de4894941d5dbe479820a6fa372c3e85c30106fa7ae96ddf1c3c","314001","703.3999998569489","88","1","swim","","","","",""
"dual-task","null","null","null","","arctic","arctic","741.0999999046326","","h","null","88","88","1","swim-dual-task","","h","lowercase","326000","0","2","be9141c41509de4894941d5dbe479820a6fa372c3e85c30106fa7ae96ddf1c3c","326000.5","741.0999999046326","88","1","swim","","","","",""
"dual-task","null","null","null","","arctic","arctic","581","","b","null","88","88","1","swim-dual-task","","b","lowercase","338000","0","2","be9141c41509de4894941d5dbe479820a6fa372c3e85c30106fa7ae96ddf1c3c","338001.09999990463","581","88","1","swim","","","","",""
"dual-task","null","null","null","","arctic","arctic","565","","d","null","88","88","1","swim-dual-task","","d","lowercase","348000","0","2","be9141c41509de4894941d5dbe479820a6fa372c3e85c30106fa7ae96ddf1c3c","348000.5","565","88","1","swim","","","","",""
"dual-task","null","null","null","","arctic","arctic","706.6000001430511","","a","null","88","88","1","swim-dual-task","","a","lowercase","356000","0","2","be9141c41509de4894941d5dbe479820a6fa372c3e85c30106fa7ae96ddf1c3c","356000.89999985695","706.6000001430511","88","1","swim","","","","",""
"dual-task","null","null","null","","arctic","arctic","599.4000000953674","","R","null","77","77","1","swim-dual-task","","R","uppercase","364000","0","2","be9141c41509de4894941d5dbe479820a6fa372c3e85c30106fa7ae96ddf1c3c","364000.19999980927","599.4000000953674","77","1","swim","","","","",""
"dual-task","null","null","null","","arctic","arctic","670.2999999523163","","n","null","88","88","1","swim-dual-task","","n","lowercase","376000","0","2","be9141c41509de4894941d5dbe479820a6fa372c3e85c30106fa7ae96ddf1c3c","376000.69999980927","670.2999999523163","88","1","swim","","","","",""
"dual-task","null","null","null","","arctic","arctic","665.2000000476837","","a","null","88","88","1","swim-dual-task","","a","lowercase","384000","0","2","be9141c41509de4894941d5dbe479820a6fa372c3e85c30106fa7ae96ddf1c3c","384000.09999990463","665.2000000476837","88","1","swim","","","","",""
"dual-task","null","null","null","","arctic","arctic","698.2000000476837","","q","null","88","88","1","swim-dual-task","","q","lowercase","394000","0","2","be9141c41509de4894941d5dbe479820a6fa372c3e85c30106fa7ae96ddf1c3c","394000.59999990463","698.2000000476837","88","1","swim","","","","",""
"dual-task","null","null","null","","arctic","arctic","866.3999998569489","","G","null","77","77","1","swim-dual-task","","G","uppercase","404000","0","2","be9141c41509de4894941d5dbe479820a6fa372c3e85c30106fa7ae96ddf1c3c","404001","866.3999998569489","77","1","swim","","","","",""
"dual-task","null","null","null","","arctic","arctic","618.5","","e","null","88","88","1","swim-dual-task","","e","lowercase","410000","0","2","be9141c41509de4894941d5dbe479820a6fa372c3e85c30106fa7ae96ddf1c3c","410000.39999985695","618.5","88","1","swim","","","","",""
"dual-task","null","null","null","","arctic","arctic","642.1000001430511","","N","null","77","77","1","swim-dual-task","","N","uppercase","420000","0","2","be9141c41509de4894941d5dbe479820a6fa372c3e85c30106fa7ae96ddf1c3c","420000.7999999523","642.1000001430511","77","1","swim","","","","",""
"dual-task","null","null","null","","arctic","arctic","665.3000001907349","","T","null","77","77","1","swim-dual-task","","T","uppercase","430000","0","2","be9141c41509de4894941d5dbe479820a6fa372c3e85c30106fa7ae96ddf1c3c","430000.19999980927","665.3000001907349","77","1","swim","","","","",""
"dual-task","null","null","null","","arctic","arctic","764.0999999046326","","h","null","88","88","1","swim-dual-task","","h","lowercase","436000","0","2","be9141c41509de4894941d5dbe479820a6fa372c3e85c30106fa7ae96ddf1c3c","436000.5","764.0999999046326","88","1","swim","","","","",""
"dual-task","null","null","null","","arctic","arctic","664.2000000476837","","B","null","77","77","1","swim-dual-task","","B","uppercase","442000","0","2","be9141c41509de4894941d5dbe479820a6fa372c3e85c30106fa7ae96ddf1c3c","442000.69999980927","664.2000000476837","77","1","swim","","","","",""
"dual-task","null","null","null","","arctic","arctic","714.1999998092651","","B","null","77","77","1","swim-dual-task","","B","uppercase","454000","0","2","be9141c41509de4894941d5dbe479820a6fa372c3e85c30106fa7ae96ddf1c3c","454000.2999999523","714.1999998092651","77","1","swim","","","","",""
"dual-task","null","null","null","","arctic","arctic","797.5","","d","null","88","88","1","swim-dual-task","","d","lowercase","462000","0","2","be9141c41509de4894941d5dbe479820a6fa372c3e85c30106fa7ae96ddf1c3c","462000.59999990463","797.5","88","1","swim","","","","",""
"dual-task","null","null","null","","arctic","arctic","722","","g","null","88","88","1","swim-dual-task","","g","lowercase","476000","0","2","be9141c41509de4894941d5dbe479820a6fa372c3e85c30106fa7ae96ddf1c3c","476000.19999980927","722","88","1","swim","","","","",""
"dual-task","null","null","null","","arctic","arctic","669.2000000476837","","E","null","77","77","1","swim-dual-task","","E","uppercase","490000","0","2","be9141c41509de4894941d5dbe479820a6fa372c3e85c30106fa7ae96ddf1c3c","490000.7999999523","669.2000000476837","77","1","swim","","","","",""
"dual-task","null","null","null","","arctic","arctic","731.3000001907349","","b","null","88","88","1","swim-dual-task","","b","lowercase","496000","0","2","be9141c41509de4894941d5dbe479820a6fa372c3e85c30106fa7ae96ddf1c3c","496001","731.3000001907349","88","1","swim","","","","",""
"dual-task","null","null","null","","arctic","arctic","731","","f","null","88","88","1","swim-dual-task","","f","lowercase","510000","0","2","be9141c41509de4894941d5dbe479820a6fa372c3e85c30106fa7ae96ddf1c3c","510000.59999990463","731","88","1","swim","","","","",""
"dual-task","null","null","null","","arctic","arctic","788.7999999523163","","F","null","77","77","1","swim-dual-task","","F","uppercase","520000","0","2","be9141c41509de4894941d5dbe479820a6fa372c3e85c30106fa7ae96ddf1c3c","519999.89999985695","788.7999999523163","77","1","swim","","","","",""
"dual-task","null","null","null","","arctic","arctic","664.7999999523163","","r","null","88","88","1","swim-dual-task","","r","lowercase","528000","0","2","be9141c41509de4894941d5dbe479820a6fa372c3e85c30106fa7ae96ddf1c3c","528000.2999999523","664.7999999523163","88","1","swim","","","","",""
"dual-task","null","null","null","","arctic","arctic","648.6999998092651","","h","null","88","88","1","swim-dual-task","","h","lowercase","540000","0","2","be9141c41509de4894941d5dbe479820a6fa372c3e85c30106fa7ae96ddf1c3c","540000.899999857","648.6999998092651","88","1","swim","","","","",""
"dual-task","null","null","null","","arctic","arctic","688.2000000476837","","F","null","77","77","1","swim-dual-task","","F","uppercase","546000","0","2","be9141c41509de4894941d5dbe479820a6fa372c3e85c30106fa7ae96ddf1c3c","546000.0999999046","688.2000000476837","77","1","swim","","","","",""
"dual-task","null","null","null","","arctic","arctic","602.0999999046326","","R","null","77","77","1","swim-dual-task","","R","uppercase","554000","0","2","be9141c41509de4894941d5dbe479820a6fa372c3e85c30106fa7ae96ddf1c3c","554000.5999999046","602.0999999046326","77","1","swim","","","","",""
"dual-task","null","null","null","","arctic","arctic","619.6000001430511","","Q","null","77","77","1","swim-dual-task","","Q","uppercase","566000","0","2","be9141c41509de4894941d5dbe479820a6fa372c3e85c30106fa7ae96ddf1c3c","566000.0999999046","619.6000001430511","77","1","swim","","","","",""
"dual-task","null","null","null","","arctic","arctic","687.5","","n","null","88","88","1","swim-dual-task","","n","lowercase","578000","0","2","be9141c41509de4894941d5dbe479820a6fa372c3e85c30106fa7ae96ddf1c3c","578000.5999999046","687.5","88","1","swim","","","","",""
"dual-task","null","null","null","","arctic","arctic","597.2999999523163","","a","null","88","88","1","swim-dual-task","","a","lowercase","588000","0","2","be9141c41509de4894941d5dbe479820a6fa372c3e85c30106fa7ae96ddf1c3c","588000","597.2999999523163","88","1","swim","","","","",""
"dual-task","null","null","null","","arctic","arctic","796.7999999523163","","B","null","77","77","1","swim-dual-task","","B","uppercase","600000","0","2","be9141c41509de4894941d5dbe479820a6fa372c3e85c30106fa7ae96ddf1c3c","600000.5999999046","796.7999999523163","77","1","swim","","","","",""
"dual-task","null","null","null","","arctic","arctic","608.5999999046326","","D","null","77","77","1","swim-dual-task","","D","uppercase","610000","0","2","be9141c41509de4894941d5dbe479820a6fa372c3e85c30106fa7ae96ddf1c3c","610000","608.5999999046326","77","1","swim","","","","",""
"dual-task","null","null","null","","arctic","arctic","597.4000000953674","","F","null","77","77","1","swim-dual-task","","F","uppercase","622000","0","2","be9141c41509de4894941d5dbe479820a6fa372c3e85c30106fa7ae96ddf1c3c","622000.5999999046","597.4000000953674","77","1","swim","","","","",""
"dual-task","null","null","null","","arctic","arctic","716.5","","d","null","88","88","1","swim-dual-task","","d","lowercase","634000","0","2","be9141c41509de4894941d5dbe479820a6fa372c3e85c30106fa7ae96ddf1c3c","634000.1999998093","716.5","88","1","swim","","","","",""
"dual-task","null","null","null","","arctic","arctic","655.7999999523163","","A","null","77","77","1","swim-dual-task","","A","uppercase","640000","0","2","be9141c41509de4894941d5dbe479820a6fa372c3e85c30106fa7ae96ddf1c3c","640000.399999857","655.7999999523163","77","1","swim","","","","",""
"dual-task","null","null","null","","arctic","arctic","765.5999999046326","","t","null","88","88","1","swim-dual-task","","t","lowercase","652000","0","2","be9141c41509de4894941d5dbe479820a6fa372c3e85c30106fa7ae96ddf1c3c","652000.899999857","765.5999999046326","88","1","swim","","","","",""
"dual-task","null","null","null","","arctic","arctic","830.6000001430511","","n","null","88","88","1","swim-dual-task","","n","lowercase","662000","0","2","be9141c41509de4894941d5dbe479820a6fa372c3e85c30106fa7ae96ddf1c3c","662000.2999999523","830.6000001430511","88","1","swim","","","","",""
"dual-task","null","null","null","","arctic","arctic","720.6000001430511","","T","null","77","77","1","swim-dual-task","","T","uppercase","672000","0","2","be9141c41509de4894941d5dbe479820a6fa372c3e85c30106fa7ae96ddf1c3c","672000.7999999523","720.6000001430511","77","1","swim","","","","",""
"dual-task","null","null","null","","arctic","arctic","771.6000001430511","","F","null","77","77","1","swim-dual-task","","F","uppercase","682000","0","2","be9141c41509de4894941d5dbe479820a6fa372c3e85c30106fa7ae96ddf1c3c","682000.1999998093","771.6000001430511","77","1","swim","","","","",""
"dual-task","null","null","null","","arctic","arctic","644.3000001907349","","b","null","88","88","1","swim-dual-task","","b","lowercase","690000","0","2","be9141c41509de4894941d5dbe479820a6fa372c3e85c30106fa7ae96ddf1c3c","690000.6999998093","644.3000001907349","88","1","swim","","","","",""
"dual-task","null","null","null","","arctic","arctic","700","","g","null","88","88","1","swim-dual-task","","g","lowercase","700000","0","2","be9141c41509de4894941d5dbe479820a6fa372c3e85c30106fa7ae96ddf1c3c","700001.0999999046","700","88","1","swim","","","","",""
"dual-task","null","null","null","","arctic","arctic","922.5","","b","null","88","88","1","swim-dual-task","","b","lowercase","708000","0","2","be9141c41509de4894941d5dbe479820a6fa372c3e85c30106fa7ae96ddf1c3c","708000.399999857","922.5","88","1","swim","","","","",""
"dual-task","null","null","null","","arctic","arctic","716.1000001430511","","R","null","77","77","1","swim-dual-task","","R","uppercase","716000","0","2","be9141c41509de4894941d5dbe479820a6fa372c3e85c30106fa7ae96ddf1c3c","716000.7999999523","716.1000001430511","77","1","swim","","","","",""
"dual-task","null","null","null","","arctic","arctic","617.2999999523163","","g","null","88","88","1","swim-dual-task","","g","lowercase","724000","0","2","be9141c41509de4894941d5dbe479820a6fa372c3e85c30106fa7ae96ddf1c3c","724000.0999999046","617.2999999523163","88","1","swim","","","","",""
"dual-task","null","null","null","","arctic","arctic","599.2000000476837","","g","null","88","88","1","swim-dual-task","","g","lowercase","736000","0","2","be9141c41509de4894941d5dbe479820a6fa372c3e85c30106fa7ae96ddf1c3c","736000.6999998093","599.2000000476837","88","1","swim","","","","",""
"dual-task","null","null","null","","arctic","arctic","799","","A","null","77","77","1","swim-dual-task","","A","uppercase","744000","0","2","be9141c41509de4894941d5dbe479820a6fa372c3e85c30106fa7ae96ddf1c3c","744001.0999999046","799","77","1","swim","","","","",""
"dual-task","null","null","null","","arctic","arctic","670.2999999523163","","Q","null","77","77","1","swim-dual-task","","Q","uppercase","756000","0","2","be9141c41509de4894941d5dbe479820a6fa372c3e85c30106fa7ae96ddf1c3c","756000.5","670.2999999523163","77","1","swim","","","","",""
"dual-task","null","null","null","","arctic","arctic","821.0999999046326","","D","null","77","77","1","swim-dual-task","","D","uppercase","768000","0","2","be9141c41509de4894941d5dbe479820a6fa372c3e85c30106fa7ae96ddf1c3c","768001.0999999046","821.0999999046326","77","1","swim","","","","",""
"dual-task","null","null","null","","arctic","arctic","620.7999999523163","","E","null","77","77","1","swim-dual-task","","E","uppercase","782000","0","2","be9141c41509de4894941d5dbe479820a6fa372c3e85c30106fa7ae96ddf1c3c","782000.6999998093","620.7999999523163","77","1","swim","","","","",""
"dual-task","null","null","null","","arctic","arctic","609.0999999046326","","R","null","77","77","1","swim-dual-task","","R","uppercase","790000","0","2","be9141c41509de4894941d5dbe479820a6fa372c3e85c30106fa7ae96ddf1c3c","790001.0999999046","609.0999999046326","77","1","swim","","","","",""
"audio-keyboard-response","62","2417688","0.0-6.0-2.0-1.0","be9141c41509de4894941d5dbe479820a6fa372c3e85c30106fa7ae96ddf1c3c","arctic","arctic","null","","audio/story_swim.mp3","","null","","","","","","","","","","","","","","","","","","","",""
"html-button-response","63","2424430","0.0-6.0-2.0-2.0","be9141c41509de4894941d5dbe479820a6fa372c3e85c30106fa7ae96ddf1c3c","arctic","arctic","6741","","<p>This concludes the story. Thank you for listening.</p><p>You will now answer some questions about the content of the story.</p>","0","","","","","","","","","","","","","","","","","","","","",""
"survey-multi-choice","64","2433719","0.0-6.0-2.0-3.0-0.0","be9141c41509de4894941d5dbe479820a6fa372c3e85c30106fa7ae96ddf1c3c","arctic","arctic","9287","","<b>How many astronaut candidates passed the first swim test?</b>","","","","1","swim-comprehension","","","","","","","","","","","","","{""Q0"":""All of them""}","","","",""
"survey-multi-choice","65","2445058","0.0-6.0-2.0-3.0-0.1","be9141c41509de4894941d5dbe479820a6fa372c3e85c30106fa7ae96ddf1c3c","arctic","arctic","11086","","<b>How often does the narrator swim, now that he is a good swimmer?</b>","","","","1","swim-comprehension","","","","","","","","","","","","","{""Q0"":""Never swam again in his life""}","","","",""
"survey-multi-choice","66","2464098","0.0-6.0-2.0-3.0-0.2","be9141c41509de4894941d5dbe479820a6fa372c3e85c30106fa7ae96ddf1c3c","arctic","arctic","18786","","<b>What were the astronaut candidates trained to do at the naval air station?</b>","","","","1","swim-comprehension","","","","","","","","","","","","","{""Q0"":""Eject out of aircraft and survive in water long enough to be rescued""}","","","",""
"survey-multi-choice","67","2472945","0.0-6.0-2.0-3.0-0.3","be9141c41509de4894941d5dbe479820a6fa372c3e85c30106fa7ae96ddf1c3c","arctic","arctic","8595","","<b>How many astronaut candidates reported for duty at the Johnson Space Center?</b>","","","","1","swim-comprehension","","","","","","","","","","","","","{""Q0"":""Forty-four""}","","","",""
"survey-multi-choice","68","2477761","0.0-6.0-2.0-3.0-0.4","be9141c41509de4894941d5dbe479820a6fa372c3e85c30106fa7ae96ddf1c3c","arctic","arctic","4563","","<b>What is the narrator afraid of, aside from the water?</b>","","","","1","swim-comprehension","","","","","","","","","","","","","{""Q0"":""Heights""}","","","",""
"survey-multi-choice","69","2489806","0.0-6.0-2.0-3.0-0.5","be9141c41509de4894941d5dbe479820a6fa372c3e85c30106fa7ae96ddf1c3c","arctic","arctic","11792","","<b>How many times did the astronaut candidates have to complete the final exercise to pass?</b>","","","","1","swim-comprehension","","","","","","","","","","","","","{""Q0"":""Two""}","","","",""
"survey-multi-choice","70","2499197","0.0-6.0-2.0-3.0-0.6","be9141c41509de4894941d5dbe479820a6fa372c3e85c30106fa7ae96ddf1c3c","arctic","arctic","9136","","<b>Where is the home of naval aviation?</b>","","","","1","swim-comprehension","","","","","","","","","","","","","{""Q0"":""Pensacola""}","","","",""
"survey-multi-choice","71","2516492","0.0-6.0-2.0-3.0-0.7","be9141c41509de4894941d5dbe479820a6fa372c3e85c30106fa7ae96ddf1c3c","arctic","arctic","17042","","<b>What gave the narrator his greatest feeling of accomplishment?</b>","","","","1","swim-comprehension","","","","","","","","","","","","","{""Q0"":""Passing the water survival course""}","","","",""
"survey-multi-choice","72","2544613","0.0-6.0-2.0-3.0-0.8","be9141c41509de4894941d5dbe479820a6fa372c3e85c30106fa7ae96ddf1c3c","arctic","arctic","27869","","<b>What was the final step of the first swim test in the pool?</b>","","","","1","swim-comprehension","","","","","","","","","","","","","{""Q0"":""Tread water with hands above the water""}","","","",""
"survey-multi-choice","73","2557484","0.0-6.0-2.0-3.0-0.9","be9141c41509de4894941d5dbe479820a6fa372c3e85c30106fa7ae96ddf1c3c","arctic","arctic","12618","","<b>How did the narrator train for his swim test?</b>","","","","1","swim-comprehension","","","","","","","","","","","","","{""Q0"":""Took his kids to the pool every day""}","","","",""
"html-button-response","74","2559909","0.0-6.0-2.0-4.0","be9141c41509de4894941d5dbe479820a6fa372c3e85c30106fa7ae96ddf1c3c","arctic","arctic","2174","","<p>Thank you for your responses.</p><p>You will now answer some questions about your impressions of the story.</p>","0","","","","","","","","","","","","","","","","","","","","",""
"html-button-response","75","2568528","0.0-6.0-2.0-5.0-0.0","be9141c41509de4894941d5dbe479820a6fa372c3e85c30106fa7ae96ddf1c3c","arctic","arctic","8618","","EE2","1","","","","swim-engagement","","","","","","","","","","","","","","2","emo-engage","",""
"html-button-response","76","2582073","0.0-6.0-2.0-5.0-0.1","be9141c41509de4894941d5dbe479820a6fa372c3e85c30106fa7ae96ddf1c3c","arctic","arctic","13293","","EE4","3","","","","swim-engagement","","","","","","","","","","","","","","4","emo-engage","",""
"html-button-response","77","2596770","0.0-6.0-2.0-5.0-0.2","be9141c41509de4894941d5dbe479820a6fa372c3e85c30106fa7ae96ddf1c3c","arctic","arctic","14445","","MS2","4","","","","swim-engagement","","","","","","","","","","","","","","5","mental-sim","",""
"html-button-response","78","2600588","0.0-6.0-2.0-5.0-0.3","be9141c41509de4894941d5dbe479820a6fa372c3e85c30106fa7ae96ddf1c3c","arctic","arctic","3566","","E10","6","","","","swim-engagement","","","","","","","","","","","","","","7","enjoyment","",""
"html-button-response","79","2603984","0.0-6.0-2.0-5.0-0.4","be9141c41509de4894941d5dbe479820a6fa372c3e85c30106fa7ae96ddf1c3c","arctic","arctic","3145","","E7","6","","","","swim-engagement","","","","","","","","","","","","","","7","enjoyment","",""
"html-button-response","80","2618867","0.0-6.0-2.0-5.0-0.5","be9141c41509de4894941d5dbe479820a6fa372c3e85c30106fa7ae96ddf1c3c","arctic","arctic","14631","","E6","6","","","","swim-engagement","","","","","","","","","","","","","","7","enjoyment","",""
"html-button-response","81","2624460","0.0-6.0-2.0-5.0-0.6","be9141c41509de4894941d5dbe479820a6fa372c3e85c30106fa7ae96ddf1c3c","arctic","arctic","5340","","A3","5","","","","swim-engagement","","","","","","","","","","","","","","6","absorption","",""
"html-button-response","82","2631460","0.0-6.0-2.0-5.0-0.7","be9141c41509de4894941d5dbe479820a6fa372c3e85c30106fa7ae96ddf1c3c","arctic","arctic","6748","","MS3","4","","","","swim-engagement","","","","","","","","","","","","","","5","mental-sim","",""
"html-button-response","83","2645619","0.0-6.0-2.0-5.0-0.8","be9141c41509de4894941d5dbe479820a6fa372c3e85c30106fa7ae96ddf1c3c","arctic","arctic","13907","","A5","4","","","","swim-engagement","","","","","","","","","","","","","","5","absorption","",""
"html-button-response","84","2658988","0.0-6.0-2.0-5.0-0.9","be9141c41509de4894941d5dbe479820a6fa372c3e85c30106fa7ae96ddf1c3c","arctic","arctic","13119","","EE3","1","","","","swim-engagement","","","","","","","","","","","","","","2","emo-engage","",""
"html-button-response","85","2670911","0.0-6.0-2.0-5.0-0.10","be9141c41509de4894941d5dbe479820a6fa372c3e85c30106fa7ae96ddf1c3c","arctic","arctic","11671","","A1","2","","","","swim-engagement","","","","","","","","","","","","","","3","absorption","",""
"html-button-response","86","2679373","0.0-6.0-2.0-5.0-0.11","be9141c41509de4894941d5dbe479820a6fa372c3e85c30106fa7ae96ddf1c3c","arctic","arctic","8211","","MS1","4","","","","swim-engagement","","","","","","","","","","","","","","5","mental-sim","",""
"html-button-response","87","2693709","0.0-6.0-2.0-5.0-0.12","be9141c41509de4894941d5dbe479820a6fa372c3e85c30106fa7ae96ddf1c3c","arctic","arctic","14083","","A4","2","","","","swim-engagement","","","","","","","","","","","","","","3","absorption","",""
"html-button-response","88","2698958","0.0-6.0-2.0-5.0-0.13","be9141c41509de4894941d5dbe479820a6fa372c3e85c30106fa7ae96ddf1c3c","arctic","arctic","4997","","A2","6","","","","swim-engagement","","","","","","","","","","","","","","7","absorption","",""
"html-button-response","89","2704761","0.0-6.0-2.0-5.0-0.14","be9141c41509de4894941d5dbe479820a6fa372c3e85c30106fa7ae96ddf1c3c","arctic","arctic","5552","","E8","1","","","","swim-engagement","","","","","","","","","","","","","","2","enjoyment","",""
"html-button-response","90","2708247","0.0-6.0-2.0-5.0-0.15","be9141c41509de4894941d5dbe479820a6fa372c3e85c30106fa7ae96ddf1c3c","arctic","arctic","3235","","E1","6","","","","swim-engagement","","","","","","","","","","","","","","7","enjoyment","",""
"html-button-response","91","2719287","0.0-6.0-2.0-5.0-0.16","be9141c41509de4894941d5dbe479820a6fa372c3e85c30106fa7ae96ddf1c3c","arctic","arctic","10787","","EE5","3","","","","swim-engagement","","","","","","","","","","","","","","4","emo-engage","",""
"html-button-response","92","2728039","0.0-6.0-2.0-5.0-0.17","be9141c41509de4894941d5dbe479820a6fa372c3e85c30106fa7ae96ddf1c3c","arctic","arctic","8501","","EE1","4","","","","swim-engagement","","","","","","","","","","","","","","5","emo-engage","",""
"html-button-response","93","2731214","0.0-8.0","be9141c41509de4894941d5dbe479820a6fa372c3e85c30106fa7ae96ddf1c3c","arctic","arctic","2924","","<p>Thank you for your responses.</p><p>You will now answer some demographic, hearing, and general health questions.</p>","0","","","","","","","","","","","","","","","","","","","","",""
"survey-multi-choice","94","2736202","0.0-9.0-0.0","be9141c41509de4894941d5dbe479820a6fa372c3e85c30106fa7ae96ddf1c3c","arctic","arctic","4986","","","","","","","survey","","","","","","","","","","","","","{""Q0"":""Chrome""}","","","browser",""
"survey-text","95","2742616","0.0-9.0-1.0","be9141c41509de4894941d5dbe479820a6fa372c3e85c30106fa7ae96ddf1c3c","arctic","arctic","6161.200000047684","","","","","","","survey","","","","","","","","","","","","","{""AGE"":""35""}","","","age","35"
"survey-multi-choice","96","2745542","0.0-9.0-2.0","be9141c41509de4894941d5dbe479820a6fa372c3e85c30106fa7ae96ddf1c3c","arctic","arctic","2673","","","","","","","survey","","","","","","","","","","","","","{""Q0"":""Male""}","","","gender","Male"
"survey-multi-choice","97","2763471","0.0-9.0-4.0","be9141c41509de4894941d5dbe479820a6fa372c3e85c30106fa7ae96ddf1c3c","arctic","arctic","17676","","","","","","","survey","","","","","","","","","","","","","{""Q0"":""Right""}","","","handedness","Right"
"survey-multi-choice","98","2768653","0.0-9.0-5.0","be9141c41509de4894941d5dbe479820a6fa372c3e85c30106fa7ae96ddf1c3c","arctic","arctic","4929","","","","","","","survey","","","","","","","","","","","","","{""Q0"":""Bachelor's Degree""}","","","education","Bachelor's Degree"
"survey-text","99","2776695","0.0-10.0-0.0","be9141c41509de4894941d5dbe479820a6fa372c3e85c30106fa7ae96ddf1c3c","arctic","arctic","7790.400000095367","","","","","","","survey","","","","","","","","","","","","","{""L1"":""English""}","","","first-language","English"
"survey-text","100","2803778","0.0-10.0-1.0","be9141c41509de4894941d5dbe479820a6fa372c3e85c30106fa7ae96ddf1c3c","arctic","arctic","26828.10000014305","","","","","","","survey","","","","","","","","","","","","","{""L2name"":"""",""L2fluency"":"""",""L3name"":"""",""L3fluency"":"""",""L4name"":"""",""L4fluency"":""""}","","","additional-languages","{""L2name"":"""",""L2fluency"":"""",""L3name"":"""",""L3fluency"":"""",""L4name"":"""",""L4fluency"":""""}"
"survey-multi-choice","101","2808015","0.0-10.0-2.0","be9141c41509de4894941d5dbe479820a6fa372c3e85c30106fa7ae96ddf1c3c","arctic","arctic","3985","","","","","","","survey","","","","","","","","","","","","","{""Q0"":""No""}","","","hearing-aid","No"
"survey-multi-choice","102","2813671","0.0-10.0-3.0","be9141c41509de4894941d5dbe479820a6fa372c3e85c30106fa7ae96ddf1c3c","arctic","arctic","5404","","","","","","","survey","","","","","","","","","","","","","{""Q0"":""Never""}","","","ringing-ears","Never"
"survey-multi-choice","103","2818914","0.0-10.0-5.0","be9141c41509de4894941d5dbe479820a6fa372c3e85c30106fa7ae96ddf1c3c","arctic","arctic","4990","","","","","","","survey","","","","","","","","","","","","","{""Q0"":""No""}","","","neuro-disease","No"
"survey-multi-choice","104","2830485","0.0-10.0-7.0","be9141c41509de4894941d5dbe479820a6fa372c3e85c30106fa7ae96ddf1c3c","arctic","arctic","11319","","","","","","","survey","","","","","","","","","","","","","{""Q0"":""No""}","","","take-meds","No"
"survey-text","105","2850967","0.0-10.0-9.0","be9141c41509de4894941d5dbe479820a6fa372c3e85c30106fa7ae96ddf1c3c","arctic","arctic","20225.900000095367","","","","","","","survey","","","","","","","","","","","","","{""HC"":""""}","","","health-concerns",""
"html-button-response","106","2869325","0.0-11.0-0.0","be9141c41509de4894941d5dbe479820a6fa372c3e85c30106fa7ae96ddf1c3c","arctic","arctic","18105","","<p>How would you describe your musical skills/experiences?</p>","1","","","","survey","","","","","","","","","","","","","","","","music-skill","2"
"survey-multi-choice","107","2873695","0.0-11.0-1.0","be9141c41509de4894941d5dbe479820a6fa372c3e85c30106fa7ae96ddf1c3c","arctic","arctic","4117","","","","","","","survey","","","","","","","","","","","","","{""Q0"":""Yes""}","","","music-instrument","Yes"
"survey-text","108","2886742","0.0-11.0-2.0-0.0","be9141c41509de4894941d5dbe479820a6fa372c3e85c30106fa7ae96ddf1c3c","arctic","arctic","12794.700000047684","","","","","","","survey","","","","","","","","","","","","","{""MEXP"":""2""}","","","music-training-yrs","2"
"html-button-response","109","2892621","0.0-12.0-0.0","be9141c41509de4894941d5dbe479820a6fa372c3e85c30106fa7ae96ddf1c3c","arctic","arctic","5628","","<p>How would you describe your general hearing abilities?</p>","5","","","","survey","","","","","","","","","","","","","","","","ssq-01","6"
"html-button-response","110","2905516","0.0-12.0-1.0","be9141c41509de4894941d5dbe479820a6fa372c3e85c30106fa7ae96ddf1c3c","arctic","arctic","12643","","<p>When you talk with someone at a place that strongly reverberates/echoes (e.g., in a church or train station),</br>can you understand what the person says?</p>","10","","","","survey","","","","","","","","","","","","","","","","ssq-02","10"
"html-button-response","111","2912484","0.0-12.0-2.0","be9141c41509de4894941d5dbe479820a6fa372c3e85c30106fa7ae96ddf1c3c","arctic","arctic","6716","","<p>When you are with a group (~5 people) in a lively restaurant, can you follow the group's conversation?</p>","10","","","","survey","","","","","","","","","","","","","","","","ssq-03","10"
"html-button-response","112","2928756","0.0-12.0-3.0","be9141c41509de4894941d5dbe479820a6fa372c3e85c30106fa7ae96ddf1c3c","arctic","arctic","16021","","<p>Based on the sound of a bus or truck, can you tell whether it is moving towards or away from you?</p>","9","","","","survey","","","","","","","","","","","","","","","","ssq-04","9"
"html-button-response","113","2943288","0.0-12.0-4.0","be9141c41509de4894941d5dbe479820a6fa372c3e85c30106fa7ae96ddf1c3c","arctic","arctic","14281","","<p>When you are in an unknown environment, can you tell from which direction a brief sound originates?</p>","8","","","","survey","","","","","","","","","","","","","","","","ssq-05","8"
"html-button-response","114","2962886","0.0-12.0-5.0","be9141c41509de4894941d5dbe479820a6fa372c3e85c30106fa7ae96ddf1c3c","arctic","arctic","19345","","<p>Are you able to ignore distracting sounds when you concentrate on a specific aspect of your acoustic surrounding?</p>","8","","","","survey","","","","","","","","","","","","","","","","ssq-06","8"
"fullscreen","115","2964137","0.0-13.0","be9141c41509de4894941d5dbe479820a6fa372c3e85c30106fa7ae96ddf1c3c","arctic","arctic","","","","","","","","","true","","","","","","","","","","","","","","","",""
