"trial_type","trial_index","time_elapsed","internal_node_id","ParticipantID","firstStory","scramStory","rt","url","stimulus","button_pressed","key_press","correctRESP","correct","designation","success","letterStim","letterType","ONSET","TIMEOUT","CONDITION","Participant","ONSET_ACTUAL","RT","RESP","ACC","STORY","responses","response","type","surveyQuestion","QRESP"
"pavlovia","0","2","0.0-0.0","f5ab96767ae1714fe3a7ddae37601378d532d44bc021dd2356583c7798d65eaf","swim","swim","","","","","","","","","","","","","","","","","","","","","","","","",""
"external-html","1","3361","0.0-1.0","f5ab96767ae1714fe3a7ddae37601378d532d44bc021dd2356583c7798d65eaf","swim","swim","3256","consent/consent_updated.html","","","","","","","","","","","","","","","","","","","","","","",""
"html-button-response","2","7741","0.0-2.0-0.0","f5ab96767ae1714fe3a7ddae37601378d532d44bc021dd2356583c7798d65eaf","swim","swim","4379","","<p>Before we begin the main task, you will complete a short volume calibration and headphone check.</p><p>Please make sure you are in a quiet listening environment, that you are wearing headphones, and that your computer's volume is turned on.<p></p>","0","","","","","","","","","","","","","","","","","","","","",""
"html-button-response","3","11807","0.0-2.0-1.0","f5ab96767ae1714fe3a7ddae37601378d532d44bc021dd2356583c7798d65eaf","swim","swim","3804","","<p>The volume calibration will be first.</p><p>You will hear a thirty-second noise. Please adjust your computer's volume so that this noise is being presented at a comfortable level.<p></p>","0","","","","","","","","","","","","","","","","","","","","",""
"audio-button-response","4","14925","0.0-2.0-2.0","f5ab96767ae1714fe3a7ddae37601378d532d44bc021dd2356583c7798d65eaf","swim","swim","2865","","audio/volumetest.mp3","0","","","","","","","","","","","","","","","","","","","","",""
"html-keyboard-response","5","23044","0.0-3.0-0.0","f5ab96767ae1714fe3a7ddae37601378d532d44bc021dd2356583c7798d65eaf","swim","swim","8119","","<p>You will now complete a short headphone check.</p><p>On each trial, you will hear three tones. One of these tones will be quieter than the others. Your task is to identify whether the quiet tone occurred first, second, or third.</p><p>There are six trials in total.<p></p><p></p>(Press SPACEBAR to begin)","","32","","","","","","","","","","","","","","","","","","","",""
"html-keyboard-response","6","23811","0.0-3.0-1.0-0.0","f5ab96767ae1714fe3a7ddae37601378d532d44bc021dd2356583c7798d65eaf","swim","swim","null","","<div style=""font-size:60px;"">+</div>","","null","","","","","","","","","","","","","","","","","","","",""
"audio-button-response","7","29526","0.0-3.0-1.0-1.0","f5ab96767ae1714fe3a7ddae37601378d532d44bc021dd2356583c7798d65eaf","swim","swim","5715","","audio/t3_1.mp3","2","","2","1","headphone-test","","","","","","","","","","","","","","","","",""
"html-keyboard-response","8","30027","0.0-3.0-1.0-2.0","f5ab96767ae1714fe3a7ddae37601378d532d44bc021dd2356583c7798d65eaf","swim","swim","null","","<p>Correct</p>","","null","","","","","","","","","","","","","","","","","","","",""
"html-keyboard-response","9","30527","0.0-3.0-1.0-0.1","f5ab96767ae1714fe3a7ddae37601378d532d44bc021dd2356583c7798d65eaf","swim","swim","null","","<div style=""font-size:60px;"">+</div>","","null","","","","","","","","","","","","","","","","","","","",""
"audio-button-response","10","35314","0.0-3.0-1.0-1.1","f5ab96767ae1714fe3a7ddae37601378d532d44bc021dd2356583c7798d65eaf","swim","swim","4786","","audio/t2_2.mp3","1","","1","1","headphone-test","","","","","","","","","","","","","","","","",""
"html-keyboard-response","11","35819","0.0-3.0-1.0-2.1","f5ab96767ae1714fe3a7ddae37601378d532d44bc021dd2356583c7798d65eaf","swim","swim","null","","<p>Correct</p>","","null","","","","","","","","","","","","","","","","","","","",""
"html-keyboard-response","12","36320","0.0-3.0-1.0-0.2","f5ab96767ae1714fe3a7ddae37601378d532d44bc021dd2356583c7798d65eaf","swim","swim","null","","<div style=""font-size:60px;"">+</div>","","null","","","","","","","","","","","","","","","","","","","",""
"audio-button-response","13","41042","0.0-3.0-1.0-1.2","f5ab96767ae1714fe3a7ddae37601378d532d44bc021dd2356583c7798d65eaf","swim","swim","4721","","audio/t2_1.mp3","1","","1","1","headphone-test","","","","","","","","","","","","","","","","",""
"html-keyboard-response","14","41543","0.0-3.0-1.0-2.2","f5ab96767ae1714fe3a7ddae37601378d532d44bc021dd2356583c7798d65eaf","swim","swim","null","","<p>Correct</p>","","null","","","","","","","","","","","","","","","","","","","",""
"html-keyboard-response","15","42052","0.0-3.0-1.0-0.3","f5ab96767ae1714fe3a7ddae37601378d532d44bc021dd2356583c7798d65eaf","swim","swim","null","","<div style=""font-size:60px;"">+</div>","","null","","","","","","","","","","","","","","","","","","","",""
"audio-button-response","16","46635","0.0-3.0-1.0-1.3","f5ab96767ae1714fe3a7ddae37601378d532d44bc021dd2356583c7798d65eaf","swim","swim","4582","","audio/t3_2.mp3","2","","2","1","headphone-test","","","","","","","","","","","","","","","","",""
"html-keyboard-response","17","47143","0.0-3.0-1.0-2.3","f5ab96767ae1714fe3a7ddae37601378d532d44bc021dd2356583c7798d65eaf","swim","swim","null","","<p>Correct</p>","","null","","","","","","","","","","","","","","","","","","","",""
"html-keyboard-response","18","47653","0.0-3.0-1.0-0.4","f5ab96767ae1714fe3a7ddae37601378d532d44bc021dd2356583c7798d65eaf","swim","swim","null","","<div style=""font-size:60px;"">+</div>","","null","","","","","","","","","","","","","","","","","","","",""
"audio-button-response","19","52177","0.0-3.0-1.0-1.4","f5ab96767ae1714fe3a7ddae37601378d532d44bc021dd2356583c7798d65eaf","swim","swim","4522","","audio/t1_2.mp3","0","","0","1","headphone-test","","","","","","","","","","","","","","","","",""
"html-keyboard-response","20","52678","0.0-3.0-1.0-2.4","f5ab96767ae1714fe3a7ddae37601378d532d44bc021dd2356583c7798d65eaf","swim","swim","null","","<p>Correct</p>","","null","","","","","","","","","","","","","","","","","","","",""
"html-keyboard-response","21","53183","0.0-3.0-1.0-0.5","f5ab96767ae1714fe3a7ddae37601378d532d44bc021dd2356583c7798d65eaf","swim","swim","null","","<div style=""font-size:60px;"">+</div>","","null","","","","","","","","","","","","","","","","","","","",""
"audio-button-response","22","57779","0.0-3.0-1.0-1.5","f5ab96767ae1714fe3a7ddae37601378d532d44bc021dd2356583c7798d65eaf","swim","swim","4595","","audio/t1_1.mp3","0","","0","1","headphone-test","","","","","","","","","","","","","","","","",""
"html-keyboard-response","23","58280","0.0-3.0-1.0-2.5","f5ab96767ae1714fe3a7ddae37601378d532d44bc021dd2356583c7798d65eaf","swim","swim","null","","<p>Correct</p>","","null","","","","","","","","","","","","","","","","","","","",""
"fullscreen","24","60729","0.0-4.0","f5ab96767ae1714fe3a7ddae37601378d532d44bc021dd2356583c7798d65eaf","swim","swim","","","","","","","","","true","","","","","","","","","","","","","","","",""
"html-button-response","25","82766","0.0-5.0-0.0","f5ab96767ae1714fe3a7ddae37601378d532d44bc021dd2356583c7798d65eaf","swim","swim","22036","","<p>There are two blocks to this experiment.</p><p>In each block, you will hear a ~13.5 minute story. One of the stories will be scrambled. Please listen carefully to both stories and understand them as best you can.</p><p>After each story, you will be asked some questions to assess your comprehension.</p>","0","","","","","","","","","","","","","","","","","","","","",""
"html-button-response","26","122578","0.0-5.0-1.0","f5ab96767ae1714fe3a7ddae37601378d532d44bc021dd2356583c7798d65eaf","swim","swim","39812","","<p>During each story, there will be an additional task.</p><p>A letter will occasionally appear on the screen.</br>Your job is to - as quickly as you can - decide whether the letter is lowercase or uppercase and press one of two keys on the keyboard:</p><p>If the letter is <b>lowercase</b>, press key &lt;<b>x</b>&gt;.</p><p>If the letter is <b>uppercase</b>, press key &lt;<b>m</b>&gt;.</p>","0","","","","","","","","","","","","","","","","","","","","",""
"html-keyboard-response","27","133042","0.0-5.0-2.0","f5ab96767ae1714fe3a7ddae37601378d532d44bc021dd2356583c7798d65eaf","swim","swim","10464","","<p>Because we want your responses to be as quick as possible, please keep your index fingers over the keys while listening.</p><p>Each block lasts about 20 minutes.</p><p><b>Press &lt;x&gt; or &lt;m&gt; to start the first block!</b></p>","","88","","","","","","","","","","","","","","","","","","","",""
"html-keyboard-response","28","133543","0.0-7.0-0.0-0.0","f5ab96767ae1714fe3a7ddae37601378d532d44bc021dd2356583c7798d65eaf","swim","swim","null","","<div style=""font-size:60px;"" tabindex=""0"">+</div>","","null","","","","","","","","","","","","","","","","","","","",""
"dual-task","null","null","null","","swim","swim","776","","E","null","88","77","0","swim-dual-task","","E","uppercase","16000","0","5","f5ab96767ae1714fe3a7ddae37601378d532d44bc021dd2356583c7798d65eaf","16008.099999964237","776","88","0","swim","","","","",""
"dual-task","null","null","null","","swim","swim","786.8999999761581","","b","null","88","88","1","swim-dual-task","","b","lowercase","26000","0","5","f5ab96767ae1714fe3a7ddae37601378d532d44bc021dd2356583c7798d65eaf","26008.69999998808","786.8999999761581","88","1","swim","","","","",""
"dual-task","null","null","null","","swim","swim","787.1999999880791","","H","null","77","77","1","swim-dual-task","","H","uppercase","38000","0","5","f5ab96767ae1714fe3a7ddae37601378d532d44bc021dd2356583c7798d65eaf","38014.19999998808","787.1999999880791","77","1","swim","","","","",""
"dual-task","null","null","null","","swim","swim","608.5","","H","null","77","77","1","swim-dual-task","","H","uppercase","48000","0","5","f5ab96767ae1714fe3a7ddae37601378d532d44bc021dd2356583c7798d65eaf","48012.299999952316","608.5","77","1","swim","","","","",""
"dual-task","null","null","null","","swim","swim","731.8999999761581","","F","null","77","77","1","swim-dual-task","","F","uppercase","54000","0","5","f5ab96767ae1714fe3a7ddae37601378d532d44bc021dd2356583c7798d65eaf","54008.799999952316","731.8999999761581","77","1","swim","","","","",""
"dual-task","null","null","null","","swim","swim","598.2999999523163","","A","null","77","77","1","swim-dual-task","","A","uppercase","64000","0","5","f5ab96767ae1714fe3a7ddae37601378d532d44bc021dd2356583c7798d65eaf","64012.89999997616","598.2999999523163","77","1","swim","","","","",""
"dual-task","null","null","null","","swim","swim","540.6999999880791","","G","null","77","77","1","swim-dual-task","","G","uppercase","74000","0","5","f5ab96767ae1714fe3a7ddae37601378d532d44bc021dd2356583c7798d65eaf","74006.5","540.6999999880791","77","1","swim","","","","",""
"dual-task","null","null","null","","swim","swim","847","","B","null","77","77","1","swim-dual-task","","B","uppercase","80000","0","5","f5ab96767ae1714fe3a7ddae37601378d532d44bc021dd2356583c7798d65eaf","80013.79999995232","847","77","1","swim","","","","",""
"dual-task","null","null","null","","swim","swim","728.5","","f","null","88","88","1","swim-dual-task","","f","lowercase","92000","0","5","f5ab96767ae1714fe3a7ddae37601378d532d44bc021dd2356583c7798d65eaf","92002","728.5","88","1","swim","","","","",""
"dual-task","null","null","null","","swim","swim","754.6000000238419","","E","null","77","77","1","swim-dual-task","","E","uppercase","104000","0","5","f5ab96767ae1714fe3a7ddae37601378d532d44bc021dd2356583c7798d65eaf","104009.59999996424","754.6000000238419","77","1","swim","","","","",""
"dual-task","null","null","null","","swim","swim","1027.699999988079","","e","null","88","88","1","swim-dual-task","","e","lowercase","112000","0","5","f5ab96767ae1714fe3a7ddae37601378d532d44bc021dd2356583c7798d65eaf","112007","1027.699999988079","88","1","swim","","","","",""
"dual-task","null","null","null","","swim","swim","696.9000000357628","","H","null","77","77","1","swim-dual-task","","H","uppercase","126000","0","5","f5ab96767ae1714fe3a7ddae37601378d532d44bc021dd2356583c7798d65eaf","126009.59999996424","696.9000000357628","77","1","swim","","","","",""
"dual-task","null","null","null","","swim","swim","813.5","","G","null","77","77","1","swim-dual-task","","G","uppercase","138000","0","5","f5ab96767ae1714fe3a7ddae37601378d532d44bc021dd2356583c7798d65eaf","138012.69999998808","813.5","77","1","swim","","","","",""
"dual-task","null","null","null","","swim","swim","657.5","","T","null","77","77","1","swim-dual-task","","T","uppercase","144000","0","5","f5ab96767ae1714fe3a7ddae37601378d532d44bc021dd2356583c7798d65eaf","144003.19999998808","657.5","77","1","swim","","","","",""
"dual-task","null","null","null","","swim","swim","1176.9000000357628","","t","null","88","88","1","swim-dual-task","","t","lowercase","156000","0","5","f5ab96767ae1714fe3a7ddae37601378d532d44bc021dd2356583c7798d65eaf","156002.59999996424","1176.9000000357628","88","1","swim","","","","",""
"dual-task","null","null","null","","swim","swim","730","","d","null","88","88","1","swim-dual-task","","d","lowercase","168000","0","5","f5ab96767ae1714fe3a7ddae37601378d532d44bc021dd2356583c7798d65eaf","168016.19999998808","730","88","1","swim","","","","",""
"dual-task","null","null","null","","swim","swim","826.3999999761581","","q","null","88","88","1","swim-dual-task","","q","lowercase","178000","0","5","f5ab96767ae1714fe3a7ddae37601378d532d44bc021dd2356583c7798d65eaf","178005.39999997616","826.3999999761581","88","1","swim","","","","",""
"dual-task","null","null","null","","swim","swim","690.0999999642372","","a","null","88","88","1","swim-dual-task","","a","lowercase","186000","0","5","f5ab96767ae1714fe3a7ddae37601378d532d44bc021dd2356583c7798d65eaf","186013.19999998808","690.0999999642372","88","1","swim","","","","",""
"dual-task","null","null","null","","swim","swim","689.8999999761581","","G","null","77","77","1","swim-dual-task","","G","uppercase","194000","0","5","f5ab96767ae1714fe3a7ddae37601378d532d44bc021dd2356583c7798d65eaf","194004.5","689.8999999761581","77","1","swim","","","","",""
"dual-task","null","null","null","","swim","swim","548.5","","h","null","88","88","1","swim-dual-task","","h","lowercase","204000","0","5","f5ab96767ae1714fe3a7ddae37601378d532d44bc021dd2356583c7798d65eaf","204010.29999995232","548.5","88","1","swim","","","","",""
"dual-task","null","null","null","","swim","swim","643.3000000119209","","r","null","88","88","1","swim-dual-task","","r","lowercase","212000","0","5","f5ab96767ae1714fe3a7ddae37601378d532d44bc021dd2356583c7798d65eaf","212001.29999995232","643.3000000119209","88","1","swim","","","","",""
"dual-task","null","null","null","","swim","swim","501","","f","null","88","88","1","swim-dual-task","","f","lowercase","224000","0","5","f5ab96767ae1714fe3a7ddae37601378d532d44bc021dd2356583c7798d65eaf","224011.19999998808","501","88","1","swim","","","","",""
"dual-task","null","null","null","","swim","swim","850.6000000238419","","f","null","88","88","1","swim-dual-task","","f","lowercase","236000","0","5","f5ab96767ae1714fe3a7ddae37601378d532d44bc021dd2356583c7798d65eaf","236014.19999998808","850.6000000238419","88","1","swim","","","","",""
"dual-task","null","null","null","","swim","swim","697.5999999642372","","a","null","88","88","1","swim-dual-task","","a","lowercase","248000","0","5","f5ab96767ae1714fe3a7ddae37601378d532d44bc021dd2356583c7798d65eaf","248003","697.5999999642372","88","1","swim","","","","",""
"dual-task","null","null","null","","swim","swim","1049.5999999642372","","N","null","77","77","1","swim-dual-task","","N","uppercase","254000","0","5","f5ab96767ae1714fe3a7ddae37601378d532d44bc021dd2356583c7798d65eaf","254003.5","1049.5999999642372","77","1","swim","","","","",""
"dual-task","null","null","null","","swim","swim","612.3000000119209","","n","null","88","88","1","swim-dual-task","","n","lowercase","266000","0","5","f5ab96767ae1714fe3a7ddae37601378d532d44bc021dd2356583c7798d65eaf","266010.59999996424","612.3000000119209","88","1","swim","","","","",""
"dual-task","null","null","null","","swim","swim","733.3999999761581","","E","null","77","77","1","swim-dual-task","","E","uppercase","276000","0","5","f5ab96767ae1714fe3a7ddae37601378d532d44bc021dd2356583c7798d65eaf","276001.09999996424","733.3999999761581","77","1","swim","","","","",""
"dual-task","null","null","null","","swim","swim","751.6000000238419","","g","null","88","88","1","swim-dual-task","","g","lowercase","290000","0","5","f5ab96767ae1714fe3a7ddae37601378d532d44bc021dd2356583c7798d65eaf","290001.59999996424","751.6000000238419","88","1","swim","","","","",""
"dual-task","null","null","null","","swim","swim","547.3000000119209","","h","null","88","88","1","swim-dual-task","","h","lowercase","298000","0","5","f5ab96767ae1714fe3a7ddae37601378d532d44bc021dd2356583c7798d65eaf","298014.5","547.3000000119209","88","1","swim","","","","",""
"dual-task","null","null","null","","swim","swim","589.5999999642372","","b","null","88","88","1","swim-dual-task","","b","lowercase","308000","0","5","f5ab96767ae1714fe3a7ddae37601378d532d44bc021dd2356583c7798d65eaf","308006.89999997616","589.5999999642372","88","1","swim","","","","",""
"dual-task","null","null","null","","swim","swim","634.5","","F","null","77","77","1","swim-dual-task","","F","uppercase","320000","0","5","f5ab96767ae1714fe3a7ddae37601378d532d44bc021dd2356583c7798d65eaf","320015.6999999881","634.5","77","1","swim","","","","",""
"dual-task","null","null","null","","swim","swim","669","","B","null","77","77","1","swim-dual-task","","B","uppercase","332000","0","5","f5ab96767ae1714fe3a7ddae37601378d532d44bc021dd2356583c7798d65eaf","332003.6999999881","669","77","1","swim","","","","",""
"dual-task","null","null","null","","swim","swim","570.8000000119209","","n","null","88","88","1","swim-dual-task","","n","lowercase","342000","0","5","f5ab96767ae1714fe3a7ddae37601378d532d44bc021dd2356583c7798d65eaf","342013.39999997616","570.8000000119209","88","1","swim","","","","",""
"dual-task","null","null","null","","swim","swim","801.6999999880791","","t","null","88","88","1","swim-dual-task","","t","lowercase","354000","0","5","f5ab96767ae1714fe3a7ddae37601378d532d44bc021dd2356583c7798d65eaf","354005.39999997616","801.6999999880791","88","1","swim","","","","",""
"dual-task","null","null","null","","swim","swim","676.3999999761581","","N","null","77","77","1","swim-dual-task","","N","uppercase","362000","0","5","f5ab96767ae1714fe3a7ddae37601378d532d44bc021dd2356583c7798d65eaf","362009.1999999881","676.3999999761581","77","1","swim","","","","",""
"dual-task","null","null","null","","swim","swim","642.3999999761581","","Q","null","77","77","1","swim-dual-task","","Q","uppercase","370000","0","5","f5ab96767ae1714fe3a7ddae37601378d532d44bc021dd2356583c7798d65eaf","370002.1999999881","642.3999999761581","77","1","swim","","","","",""
"dual-task","null","null","null","","swim","swim","652.3000000119209","","d","null","88","88","1","swim-dual-task","","d","lowercase","380000","0","5","f5ab96767ae1714fe3a7ddae37601378d532d44bc021dd2356583c7798d65eaf","380002.6999999881","652.3000000119209","88","1","swim","","","","",""
"dual-task","null","null","null","","swim","swim","617.9000000357628","","Q","null","77","77","1","swim-dual-task","","Q","uppercase","388000","0","5","f5ab96767ae1714fe3a7ddae37601378d532d44bc021dd2356583c7798d65eaf","388011.09999996424","617.9000000357628","77","1","swim","","","","",""
"dual-task","null","null","null","","swim","swim","656","","r","null","88","88","1","swim-dual-task","","r","lowercase","402000","0","5","f5ab96767ae1714fe3a7ddae37601378d532d44bc021dd2356583c7798d65eaf","402008.5","656","88","1","swim","","","","",""
"dual-task","null","null","null","","swim","swim","653.8000000119209","","N","null","77","77","1","swim-dual-task","","N","uppercase","412000","0","5","f5ab96767ae1714fe3a7ddae37601378d532d44bc021dd2356583c7798d65eaf","412010","653.8000000119209","77","1","swim","","","","",""
"dual-task","null","null","null","","swim","swim","758.1999999880791","","b","null","88","88","1","swim-dual-task","","b","lowercase","422000","0","5","f5ab96767ae1714fe3a7ddae37601378d532d44bc021dd2356583c7798d65eaf","422002.59999996424","758.1999999880791","88","1","swim","","","","",""
"dual-task","null","null","null","","swim","swim","629.5","","e","null","88","88","1","swim-dual-task","","e","lowercase","432000","0","5","f5ab96767ae1714fe3a7ddae37601378d532d44bc021dd2356583c7798d65eaf","432014.89999997616","629.5","88","1","swim","","","","",""
"dual-task","null","null","null","","swim","swim","573.8000000119209","","A","null","77","77","1","swim-dual-task","","A","uppercase","444000","0","5","f5ab96767ae1714fe3a7ddae37601378d532d44bc021dd2356583c7798d65eaf","444015.39999997616","573.8000000119209","77","1","swim","","","","",""
"dual-task","null","null","null","","swim","swim","605.5","","a","null","88","88","1","swim-dual-task","","a","lowercase","450000","0","5","f5ab96767ae1714fe3a7ddae37601378d532d44bc021dd2356583c7798d65eaf","450002.1999999881","605.5","88","1","swim","","","","",""
"dual-task","null","null","null","","swim","swim","679.1999999880791","","G","null","77","77","1","swim-dual-task","","G","uppercase","464000","0","5","f5ab96767ae1714fe3a7ddae37601378d532d44bc021dd2356583c7798d65eaf","464002.1999999881","679.1999999880791","77","1","swim","","","","",""
"dual-task","null","null","null","","swim","swim","897.0999999642372","","R","null","77","77","1","swim-dual-task","","R","uppercase","470000","0","5","f5ab96767ae1714fe3a7ddae37601378d532d44bc021dd2356583c7798d65eaf","470013","897.0999999642372","77","1","swim","","","","",""
"dual-task","null","null","null","","swim","swim","686.8000000119209","","T","null","77","77","1","swim-dual-task","","T","uppercase","482000","0","5","f5ab96767ae1714fe3a7ddae37601378d532d44bc021dd2356583c7798d65eaf","482013.09999996424","686.8000000119209","77","1","swim","","","","",""
"dual-task","null","null","null","","swim","swim","731.1999999880791","","t","null","88","88","1","swim-dual-task","","t","lowercase","490000","0","5","f5ab96767ae1714fe3a7ddae37601378d532d44bc021dd2356583c7798d65eaf","490008.09999996424","731.1999999880791","88","1","swim","","","","",""
"dual-task","null","null","null","","swim","swim","951.3000000119209","","q","null","88","88","1","swim-dual-task","","q","lowercase","500000","0","5","f5ab96767ae1714fe3a7ddae37601378d532d44bc021dd2356583c7798d65eaf","500007.09999996424","951.3000000119209","88","1","swim","","","","",""
"dual-task","null","null","null","","swim","swim","642.5999999642372","","Q","null","77","77","1","swim-dual-task","","Q","uppercase","506000","0","5","f5ab96767ae1714fe3a7ddae37601378d532d44bc021dd2356583c7798d65eaf","506004.39999997616","642.5999999642372","77","1","swim","","","","",""
"dual-task","null","null","null","","swim","swim","648.2999999523163","","n","null","88","88","1","swim-dual-task","","n","lowercase","516000","0","5","f5ab96767ae1714fe3a7ddae37601378d532d44bc021dd2356583c7798d65eaf","516015.5","648.2999999523163","88","1","swim","","","","",""
"dual-task","null","null","null","","swim","swim","634.5999999642372","","D","null","77","77","1","swim-dual-task","","D","uppercase","530000","0","5","f5ab96767ae1714fe3a7ddae37601378d532d44bc021dd2356583c7798d65eaf","530011.6999999881","634.5999999642372","77","1","swim","","","","",""
"dual-task","null","null","null","","swim","swim","746.6000000238419","","r","null","88","88","1","swim-dual-task","","r","lowercase","542000","0","5","f5ab96767ae1714fe3a7ddae37601378d532d44bc021dd2356583c7798d65eaf","542012.2999999523","746.6000000238419","88","1","swim","","","","",""
"dual-task","null","null","null","","swim","swim","537.5","","g","null","88","88","1","swim-dual-task","","g","lowercase","552000","0","5","f5ab96767ae1714fe3a7ddae37601378d532d44bc021dd2356583c7798d65eaf","552011.8999999762","537.5","88","1","swim","","","","",""
"dual-task","null","null","null","","swim","swim","702.4000000357628","","g","null","88","88","1","swim-dual-task","","g","lowercase","564000","0","5","f5ab96767ae1714fe3a7ddae37601378d532d44bc021dd2356583c7798d65eaf","564006.7999999523","702.4000000357628","88","1","swim","","","","",""
"dual-task","null","null","null","","swim","swim","602.6000000238419","","F","null","77","77","1","swim-dual-task","","F","uppercase","572000","0","5","f5ab96767ae1714fe3a7ddae37601378d532d44bc021dd2356583c7798d65eaf","572002","602.6000000238419","77","1","swim","","","","",""
"dual-task","null","null","null","","swim","swim","595.9000000357628","","A","null","77","77","1","swim-dual-task","","A","uppercase","586000","0","5","f5ab96767ae1714fe3a7ddae37601378d532d44bc021dd2356583c7798d65eaf","586009.5999999642","595.9000000357628","77","1","swim","","","","",""
"dual-task","null","null","null","","swim","swim","569.6000000238419","","R","null","77","77","1","swim-dual-task","","R","uppercase","598000","0","5","f5ab96767ae1714fe3a7ddae37601378d532d44bc021dd2356583c7798d65eaf","598001.5999999642","569.6000000238419","77","1","swim","","","","",""
"dual-task","null","null","null","","swim","swim","600.3000000119209","","N","null","77","77","1","swim-dual-task","","N","uppercase","610000","0","5","f5ab96767ae1714fe3a7ddae37601378d532d44bc021dd2356583c7798d65eaf","610014.2999999523","600.3000000119209","77","1","swim","","","","",""
"dual-task","null","null","null","","swim","swim","759.5","","A","null","77","77","1","swim-dual-task","","A","uppercase","616000","0","5","f5ab96767ae1714fe3a7ddae37601378d532d44bc021dd2356583c7798d65eaf","616015.7999999523","759.5","77","1","swim","","","","",""
"dual-task","null","null","null","","swim","swim","747.8000000119209","","n","null","88","88","1","swim-dual-task","","n","lowercase","630000","0","5","f5ab96767ae1714fe3a7ddae37601378d532d44bc021dd2356583c7798d65eaf","630009.1999999881","747.8000000119209","88","1","swim","","","","",""
"dual-task","null","null","null","","swim","swim","647.4000000357628","","F","null","77","77","1","swim-dual-task","","F","uppercase","642000","0","5","f5ab96767ae1714fe3a7ddae37601378d532d44bc021dd2356583c7798d65eaf","642004.2999999523","647.4000000357628","77","1","swim","","","","",""
"dual-task","null","null","null","","swim","swim","666.1000000238419","","g","null","88","88","1","swim-dual-task","","g","lowercase","650000","0","5","f5ab96767ae1714fe3a7ddae37601378d532d44bc021dd2356583c7798d65eaf","650016.0999999642","666.1000000238419","88","1","swim","","","","",""
"dual-task","null","null","null","","swim","swim","630.8000000119209","","T","null","77","77","1","swim-dual-task","","T","uppercase","658000","0","5","f5ab96767ae1714fe3a7ddae37601378d532d44bc021dd2356583c7798d65eaf","658003.3999999762","630.8000000119209","77","1","swim","","","","",""
"dual-task","null","null","null","","swim","swim","635.5","","D","null","77","77","1","swim-dual-task","","D","uppercase","666000","0","5","f5ab96767ae1714fe3a7ddae37601378d532d44bc021dd2356583c7798d65eaf","666014.1999999881","635.5","77","1","swim","","","","",""
"dual-task","null","null","null","","swim","swim","827.1999999880791","","B","null","77","77","1","swim-dual-task","","B","uppercase","674000","0","5","f5ab96767ae1714fe3a7ddae37601378d532d44bc021dd2356583c7798d65eaf","674001.3999999762","827.1999999880791","77","1","swim","","","","",""
"dual-task","null","null","null","","swim","swim","634.3000000119209","","h","null","88","88","1","swim-dual-task","","h","lowercase","684000","0","5","f5ab96767ae1714fe3a7ddae37601378d532d44bc021dd2356583c7798d65eaf","684001.7999999523","634.3000000119209","88","1","swim","","","","",""
"dual-task","null","null","null","","swim","swim","629.7999999523163","","R","null","77","77","1","swim-dual-task","","R","uppercase","696000","0","5","f5ab96767ae1714fe3a7ddae37601378d532d44bc021dd2356583c7798d65eaf","696002","629.7999999523163","77","1","swim","","","","",""
"dual-task","null","null","null","","swim","swim","839.1999999880791","","e","null","88","88","1","swim-dual-task","","e","lowercase","702000","0","5","f5ab96767ae1714fe3a7ddae37601378d532d44bc021dd2356583c7798d65eaf","702000.3999999762","839.1999999880791","88","1","swim","","","","",""
"dual-task","null","null","null","","swim","swim","648.8000000119209","","Q","null","77","77","1","swim-dual-task","","Q","uppercase","716000","0","5","f5ab96767ae1714fe3a7ddae37601378d532d44bc021dd2356583c7798d65eaf","716015.3999999762","648.8000000119209","77","1","swim","","","","",""
"dual-task","null","null","null","","swim","swim","561.0999999642372","","B","null","77","77","1","swim-dual-task","","B","uppercase","726000","0","5","f5ab96767ae1714fe3a7ddae37601378d532d44bc021dd2356583c7798d65eaf","726015.6999999881","561.0999999642372","77","1","swim","","","","",""
"dual-task","null","null","null","","swim","swim","590.0999999642372","","t","null","88","88","1","swim-dual-task","","t","lowercase","732000","0","5","f5ab96767ae1714fe3a7ddae37601378d532d44bc021dd2356583c7798d65eaf","732000.5999999642","590.0999999642372","88","1","swim","","","","",""
"dual-task","null","null","null","","swim","swim","573.8000000119209","","r","null","88","88","1","swim-dual-task","","r","lowercase","740000","0","5","f5ab96767ae1714fe3a7ddae37601378d532d44bc021dd2356583c7798d65eaf","740001.5999999642","573.8000000119209","88","1","swim","","","","",""
"dual-task","null","null","null","","swim","swim","584.1000000238419","","R","null","77","77","1","swim-dual-task","","R","uppercase","752000","0","5","f5ab96767ae1714fe3a7ddae37601378d532d44bc021dd2356583c7798d65eaf","752002.0999999642","584.1000000238419","77","1","swim","","","","",""
"dual-task","null","null","null","","swim","swim","634.3999999761581","","D","null","77","77","1","swim-dual-task","","D","uppercase","764000","0","5","f5ab96767ae1714fe3a7ddae37601378d532d44bc021dd2356583c7798d65eaf","764010.0999999642","634.3999999761581","77","1","swim","","","","",""
"dual-task","null","null","null","","swim","swim","779.1999999880791","","h","null","88","88","1","swim-dual-task","","h","lowercase","776000","0","5","f5ab96767ae1714fe3a7ddae37601378d532d44bc021dd2356583c7798d65eaf","776010","779.1999999880791","88","1","swim","","","","",""
"dual-task","null","null","null","","swim","swim","660.8999999761581","","H","null","77","77","1","swim-dual-task","","H","uppercase","786000","0","5","f5ab96767ae1714fe3a7ddae37601378d532d44bc021dd2356583c7798d65eaf","786008.7999999523","660.8999999761581","77","1","swim","","","","",""
"dual-task","null","null","null","","swim","swim","607.5","","f","null","88","88","1","swim-dual-task","","f","lowercase","798000","0","5","f5ab96767ae1714fe3a7ddae37601378d532d44bc021dd2356583c7798d65eaf","798001.0999999642","607.5","88","1","swim","","","","",""
"audio-keyboard-response","29","943537","0.0-7.0-0.0-1.0","f5ab96767ae1714fe3a7ddae37601378d532d44bc021dd2356583c7798d65eaf","swim","swim","null","","audio/story_swim_scrambled.mp3","","null","","","","","","","","","","","","","","","","","","","",""
"html-button-response","30","948580","0.0-7.0-0.0-2.0","f5ab96767ae1714fe3a7ddae37601378d532d44bc021dd2356583c7798d65eaf","swim","swim","5043","","<p>This concludes the story. Thank you for listening.</p><p>You will now answer some questions about the content of the story.</p>","0","","","","","","","","","","","","","","","","","","","","",""
"survey-multi-choice","31","961044","0.0-7.0-0.0-3.0-0.0","f5ab96767ae1714fe3a7ddae37601378d532d44bc021dd2356583c7798d65eaf","swim","swim","12461","","<b>How many astronaut candidates passed the first swim test?</b>","","","","1","swim-comprehension","","","","","","","","","","","","","{""Q0"":""All of them""}","","","",""
"survey-multi-choice","32","977754","0.0-7.0-0.0-3.0-0.1","f5ab96767ae1714fe3a7ddae37601378d532d44bc021dd2356583c7798d65eaf","swim","swim","16457","","<b>What were the astronaut candidates trained to do at the naval air station?</b>","","","","1","swim-comprehension","","","","","","","","","","","","","{""Q0"":""Eject out of aircraft and survive in water long enough to be rescued""}","","","",""
"survey-multi-choice","33","984680","0.0-7.0-0.0-3.0-0.2","f5ab96767ae1714fe3a7ddae37601378d532d44bc021dd2356583c7798d65eaf","swim","swim","6674","","<b>How many astronaut candidates reported for duty at the Johnson Space Center?</b>","","","","1","swim-comprehension","","","","","","","","","","","","","{""Q0"":""Forty-four""}","","","",""
"survey-multi-choice","34","993109","0.0-7.0-0.0-3.0-0.3","f5ab96767ae1714fe3a7ddae37601378d532d44bc021dd2356583c7798d65eaf","swim","swim","8177","","<b>Where is the home of naval aviation?</b>","","","","1","swim-comprehension","","","","","","","","","","","","","{""Q0"":""Pensacola""}","","","",""
"survey-multi-choice","35","1019528","0.0-7.0-0.0-3.0-0.4","f5ab96767ae1714fe3a7ddae37601378d532d44bc021dd2356583c7798d65eaf","swim","swim","26167","","<b>What was the final step of the first swim test in the pool?</b>","","","","1","swim-comprehension","","","","","","","","","","","","","{""Q0"":""Tread water with hands above the water""}","","","",""
"survey-multi-choice","36","1028660","0.0-7.0-0.0-3.0-0.5","f5ab96767ae1714fe3a7ddae37601378d532d44bc021dd2356583c7798d65eaf","swim","swim","8879","","<b>How many times did the astronaut candidates have to complete the final exercise to pass?</b>","","","","1","swim-comprehension","","","","","","","","","","","","","{""Q0"":""Two""}","","","",""
"survey-multi-choice","37","1041269","0.0-7.0-0.0-3.0-0.6","f5ab96767ae1714fe3a7ddae37601378d532d44bc021dd2356583c7798d65eaf","swim","swim","12357","","<b>What gave the narrator his greatest feeling of accomplishment?</b>","","","","1","swim-comprehension","","","","","","","","","","","","","{""Q0"":""Passing the water survival course""}","","","",""
"survey-multi-choice","38","1047358","0.0-7.0-0.0-3.0-0.7","f5ab96767ae1714fe3a7ddae37601378d532d44bc021dd2356583c7798d65eaf","swim","swim","5837","","<b>What is the narrator afraid of, aside from the water?</b>","","","","1","swim-comprehension","","","","","","","","","","","","","{""Q0"":""Heights""}","","","",""
"survey-multi-choice","39","1057589","0.0-7.0-0.0-3.0-0.8","f5ab96767ae1714fe3a7ddae37601378d532d44bc021dd2356583c7798d65eaf","swim","swim","9978","","<b>How did the narrator train for his swim test?</b>","","","","1","swim-comprehension","","","","","","","","","","","","","{""Q0"":""Took his kids to the pool every day""}","","","",""
"survey-multi-choice","40","1070596","0.0-7.0-0.0-3.0-0.9","f5ab96767ae1714fe3a7ddae37601378d532d44bc021dd2356583c7798d65eaf","swim","swim","12755","","<b>How often does the narrator swim, now that he is a good swimmer?</b>","","","","1","swim-comprehension","","","","","","","","","","","","","{""Q0"":""Never swam again in his life""}","","","",""
"html-button-response","41","1074137","0.0-7.0-0.0-4.0","f5ab96767ae1714fe3a7ddae37601378d532d44bc021dd2356583c7798d65eaf","swim","swim","3289","","<p>Thank you for your responses.</p><p>You will now answer some questions about your impressions of the story.</p>","0","","","","","","","","","","","","","","","","","","","","",""
"html-button-response","42","1081523","0.0-7.0-0.0-5.0-0.0","f5ab96767ae1714fe3a7ddae37601378d532d44bc021dd2356583c7798d65eaf","swim","swim","7385","","E6","4","","","","swim-engagement","","","","","","","","","","","","","","5","enjoyment","",""
"html-button-response","43","1084216","0.0-7.0-0.0-5.0-0.1","f5ab96767ae1714fe3a7ddae37601378d532d44bc021dd2356583c7798d65eaf","swim","swim","2442","","E8","4","","","","swim-engagement","","","","","","","","","","","","","","5","enjoyment","",""
"html-button-response","44","1087663","0.0-7.0-0.0-5.0-0.2","f5ab96767ae1714fe3a7ddae37601378d532d44bc021dd2356583c7798d65eaf","swim","swim","3196","","A3","5","","","","swim-engagement","","","","","","","","","","","","","","6","absorption","",""
"html-button-response","45","1090989","0.0-7.0-0.0-5.0-0.3","f5ab96767ae1714fe3a7ddae37601378d532d44bc021dd2356583c7798d65eaf","swim","swim","3073","","MS3","5","","","","swim-engagement","","","","","","","","","","","","","","6","mental-sim","",""
"html-button-response","46","1095571","0.0-7.0-0.0-5.0-0.4","f5ab96767ae1714fe3a7ddae37601378d532d44bc021dd2356583c7798d65eaf","swim","swim","4330","","A4","4","","","","swim-engagement","","","","","","","","","","","","","","5","absorption","",""
"html-button-response","47","1099467","0.0-7.0-0.0-5.0-0.5","f5ab96767ae1714fe3a7ddae37601378d532d44bc021dd2356583c7798d65eaf","swim","swim","3643","","EE4","5","","","","swim-engagement","","","","","","","","","","","","","","6","emo-engage","",""
"html-button-response","48","1103350","0.0-7.0-0.0-5.0-0.6","f5ab96767ae1714fe3a7ddae37601378d532d44bc021dd2356583c7798d65eaf","swim","swim","3622","","E7","5","","","","swim-engagement","","","","","","","","","","","","","","6","enjoyment","",""
"html-button-response","49","1105832","0.0-7.0-0.0-5.0-0.7","f5ab96767ae1714fe3a7ddae37601378d532d44bc021dd2356583c7798d65eaf","swim","swim","2231","","E1","5","","","","swim-engagement","","","","","","","","","","","","","","6","enjoyment","",""
"html-button-response","50","1109291","0.0-7.0-0.0-5.0-0.8","f5ab96767ae1714fe3a7ddae37601378d532d44bc021dd2356583c7798d65eaf","swim","swim","3208","","MS1","5","","","","swim-engagement","","","","","","","","","","","","","","6","mental-sim","",""
"html-button-response","51","1114097","0.0-7.0-0.0-5.0-0.9","f5ab96767ae1714fe3a7ddae37601378d532d44bc021dd2356583c7798d65eaf","swim","swim","4555","","A1","4","","","","swim-engagement","","","","","","","","","","","","","","5","absorption","",""
"html-button-response","52","1118453","0.0-7.0-0.0-5.0-0.10","f5ab96767ae1714fe3a7ddae37601378d532d44bc021dd2356583c7798d65eaf","swim","swim","4105","","EE5","4","","","","swim-engagement","","","","","","","","","","","","","","5","emo-engage","",""
"html-button-response","53","1122101","0.0-7.0-0.0-5.0-0.11","f5ab96767ae1714fe3a7ddae37601378d532d44bc021dd2356583c7798d65eaf","swim","swim","3396","","E10","6","","","","swim-engagement","","","","","","","","","","","","","","7","enjoyment","",""
"html-button-response","54","1125136","0.0-7.0-0.0-5.0-0.12","f5ab96767ae1714fe3a7ddae37601378d532d44bc021dd2356583c7798d65eaf","swim","swim","2784","","EE2","5","","","","swim-engagement","","","","","","","","","","","","","","6","emo-engage","",""
"html-button-response","55","1131102","0.0-7.0-0.0-5.0-0.13","f5ab96767ae1714fe3a7ddae37601378d532d44bc021dd2356583c7798d65eaf","swim","swim","5715","","EE1","5","","","","swim-engagement","","","","","","","","","","","","","","6","emo-engage","",""
"html-button-response","56","1135258","0.0-7.0-0.0-5.0-0.14","f5ab96767ae1714fe3a7ddae37601378d532d44bc021dd2356583c7798d65eaf","swim","swim","3904","","MS2","5","","","","swim-engagement","","","","","","","","","","","","","","6","mental-sim","",""
"html-button-response","57","1138174","0.0-7.0-0.0-5.0-0.15","f5ab96767ae1714fe3a7ddae37601378d532d44bc021dd2356583c7798d65eaf","swim","swim","2665","","EE3","5","","","","swim-engagement","","","","","","","","","","","","","","6","emo-engage","",""
"html-button-response","58","1141659","0.0-7.0-0.0-5.0-0.16","f5ab96767ae1714fe3a7ddae37601378d532d44bc021dd2356583c7798d65eaf","swim","swim","3234","","A5","4","","","","swim-engagement","","","","","","","","","","","","","","5","absorption","",""
"html-button-response","59","1145710","0.0-7.0-0.0-5.0-0.17","f5ab96767ae1714fe3a7ddae37601378d532d44bc021dd2356583c7798d65eaf","swim","swim","3799","","A2","5","","","","swim-engagement","","","","","","","","","","","","","","6","absorption","",""
"html-keyboard-response","60","1154026","0.0-7.0-1.0","f5ab96767ae1714fe3a7ddae37601378d532d44bc021dd2356583c7798d65eaf","swim","swim","8065","","<p>Thank you for your responses. You will now listen to the second story.</p><p>Remember, as you listen to the story you will see letters appear on the screen.</br>As quickly as possible, press <b>&lt;x&gt;</b> if the letter is lowercase and <b>&lt;m&gt;</b> if the letter is uppercase.</p><p>Press <b>&lt;x&gt;</b> or <b>&lt;m&gt;</b> to begin listening!</p>","","77","","","","","","","","","","","","","","","","","","","",""
"html-keyboard-response","61","1154526","0.0-7.0-2.0-0.0","f5ab96767ae1714fe3a7ddae37601378d532d44bc021dd2356583c7798d65eaf","swim","swim","null","","<div style=""font-size:60px;"" tabindex=""0"">+</div>","","null","","","","","","","","","","","","","","","","","","","",""
"dual-task","null","null","null","","swim","swim","692.9000000357628","","A","null","77","77","1","arctic-dual-task","","A","uppercase","18000","0","5","f5ab96767ae1714fe3a7ddae37601378d532d44bc021dd2356583c7798d65eaf","18008.899999976158","692.9000000357628","77","1","arctic","","","","",""
"dual-task","null","null","null","","swim","swim","720.8999999761581","","F","null","77","77","1","arctic-dual-task","","F","uppercase","32000","0","5","f5ab96767ae1714fe3a7ddae37601378d532d44bc021dd2356583c7798d65eaf","32008.5","720.8999999761581","77","1","arctic","","","","",""
"dual-task","null","null","null","","swim","swim","900.6000000238419","","f","null","88","88","1","arctic-dual-task","","f","lowercase","42000","0","5","f5ab96767ae1714fe3a7ddae37601378d532d44bc021dd2356583c7798d65eaf","42007.39999997616","900.6000000238419","88","1","arctic","","","","",""
"dual-task","null","null","null","","swim","swim","465.69999998807907","","h","null","88","88","1","arctic-dual-task","","h","lowercase","56000","0","5","f5ab96767ae1714fe3a7ddae37601378d532d44bc021dd2356583c7798d65eaf","56004","465.69999998807907","88","1","arctic","","","","",""
"dual-task","null","null","null","","swim","swim","700.8999999761581","","A","null","77","77","1","arctic-dual-task","","A","uppercase","68000","0","5","f5ab96767ae1714fe3a7ddae37601378d532d44bc021dd2356583c7798d65eaf","68006.30000001192","700.8999999761581","77","1","arctic","","","","",""
"dual-task","null","null","null","","swim","swim","919.8000000119209","","q","null","88","88","1","arctic-dual-task","","q","lowercase","82000","0","5","f5ab96767ae1714fe3a7ddae37601378d532d44bc021dd2356583c7798d65eaf","82003.89999997616","919.8000000119209","88","1","arctic","","","","",""
"dual-task","null","null","null","","swim","swim","720","","b","null","88","88","1","arctic-dual-task","","b","lowercase","88000","0","5","f5ab96767ae1714fe3a7ddae37601378d532d44bc021dd2356583c7798d65eaf","88008.30000001192","720","88","1","arctic","","","","",""
"dual-task","null","null","null","","swim","swim","862.0999999642372","","N","null","77","77","1","arctic-dual-task","","N","uppercase","100000","0","5","f5ab96767ae1714fe3a7ddae37601378d532d44bc021dd2356583c7798d65eaf","100004.10000002384","862.0999999642372","77","1","arctic","","","","",""
"dual-task","null","null","null","","swim","swim","568.8000000119209","","N","null","77","77","1","arctic-dual-task","","N","uppercase","108000","0","5","f5ab96767ae1714fe3a7ddae37601378d532d44bc021dd2356583c7798d65eaf","108002.80000001192","568.8000000119209","77","1","arctic","","","","",""
"dual-task","null","null","null","","swim","swim","525.3999999761581","","R","null","77","77","1","arctic-dual-task","","R","uppercase","116000","0","5","f5ab96767ae1714fe3a7ddae37601378d532d44bc021dd2356583c7798d65eaf","116005.19999998808","525.3999999761581","77","1","arctic","","","","",""
"dual-task","null","null","null","","swim","swim","675","","f","null","88","88","1","arctic-dual-task","","f","lowercase","124000","0","5","f5ab96767ae1714fe3a7ddae37601378d532d44bc021dd2356583c7798d65eaf","124014.19999998808","675","88","1","arctic","","","","",""
"dual-task","null","null","null","","swim","swim","838","","a","null","88","88","1","arctic-dual-task","","a","lowercase","134000","0","5","f5ab96767ae1714fe3a7ddae37601378d532d44bc021dd2356583c7798d65eaf","134012.10000002384","838","88","1","arctic","","","","",""
"dual-task","null","null","null","","swim","swim","673.9000000357628","","G","null","77","77","1","arctic-dual-task","","G","uppercase","144000","0","5","f5ab96767ae1714fe3a7ddae37601378d532d44bc021dd2356583c7798d65eaf","144004.69999998808","673.9000000357628","77","1","arctic","","","","",""
"dual-task","null","null","null","","swim","swim","635.5","","E","null","77","77","1","arctic-dual-task","","E","uppercase","150000","0","5","f5ab96767ae1714fe3a7ddae37601378d532d44bc021dd2356583c7798d65eaf","150003.10000002384","635.5","77","1","arctic","","","","",""
"dual-task","null","null","null","","swim","swim","623.3000000119209","","Q","null","77","77","1","arctic-dual-task","","Q","uppercase","160000","0","5","f5ab96767ae1714fe3a7ddae37601378d532d44bc021dd2356583c7798d65eaf","160011.80000001192","623.3000000119209","77","1","arctic","","","","",""
"dual-task","null","null","null","","swim","swim","633.8999999761581","","d","null","88","88","1","arctic-dual-task","","d","lowercase","170000","0","5","f5ab96767ae1714fe3a7ddae37601378d532d44bc021dd2356583c7798d65eaf","170005","633.8999999761581","88","1","arctic","","","","",""
"dual-task","null","null","null","","swim","swim","596.6000000238419","","q","null","88","88","1","arctic-dual-task","","q","lowercase","176000","0","5","f5ab96767ae1714fe3a7ddae37601378d532d44bc021dd2356583c7798d65eaf","176012.89999997616","596.6000000238419","88","1","arctic","","","","",""
"dual-task","null","null","null","","swim","swim","640.1999999880791","","G","null","77","77","1","arctic-dual-task","","G","uppercase","188000","0","5","f5ab96767ae1714fe3a7ddae37601378d532d44bc021dd2356583c7798d65eaf","188002.19999998808","640.1999999880791","77","1","arctic","","","","",""
"dual-task","null","null","null","","swim","swim","578.1000000238419","","g","null","88","88","1","arctic-dual-task","","g","lowercase","194000","0","5","f5ab96767ae1714fe3a7ddae37601378d532d44bc021dd2356583c7798d65eaf","194005.80000001192","578.1000000238419","88","1","arctic","","","","",""
"dual-task","null","null","null","","swim","swim","625.3999999761581","","D","null","77","77","1","arctic-dual-task","","D","uppercase","204000","0","5","f5ab96767ae1714fe3a7ddae37601378d532d44bc021dd2356583c7798d65eaf","204008.5","625.3999999761581","77","1","arctic","","","","",""
"dual-task","null","null","null","","swim","swim","636.1000000238419","","D","null","77","77","1","arctic-dual-task","","D","uppercase","214000","0","5","f5ab96767ae1714fe3a7ddae37601378d532d44bc021dd2356583c7798d65eaf","214012.19999998808","636.1000000238419","77","1","arctic","","","","",""
"dual-task","null","null","null","","swim","swim","643.2000000476837","","n","null","88","88","1","arctic-dual-task","","n","lowercase","224000","0","5","f5ab96767ae1714fe3a7ddae37601378d532d44bc021dd2356583c7798d65eaf","224003.80000001192","643.2000000476837","88","1","arctic","","","","",""
"dual-task","null","null","null","","swim","swim","634.5","","T","null","77","77","1","arctic-dual-task","","T","uppercase","230000","0","5","f5ab96767ae1714fe3a7ddae37601378d532d44bc021dd2356583c7798d65eaf","230012.19999998808","634.5","77","1","arctic","","","","",""
"dual-task","null","null","null","","swim","swim","607.0999999642372","","A","null","77","77","1","arctic-dual-task","","A","uppercase","244000","0","5","f5ab96767ae1714fe3a7ddae37601378d532d44bc021dd2356583c7798d65eaf","244010.30000001192","607.0999999642372","77","1","arctic","","","","",""
"dual-task","null","null","null","","swim","swim","1116.8999999761581","","e","null","88","88","1","arctic-dual-task","","e","lowercase","258000","0","5","f5ab96767ae1714fe3a7ddae37601378d532d44bc021dd2356583c7798d65eaf","258011","1116.8999999761581","88","1","arctic","","","","",""
"dual-task","null","null","null","","swim","swim","611.3000000119209","","B","null","77","77","1","arctic-dual-task","","B","uppercase","266000","0","5","f5ab96767ae1714fe3a7ddae37601378d532d44bc021dd2356583c7798d65eaf","266010.10000002384","611.3000000119209","77","1","arctic","","","","",""
"dual-task","null","null","null","","swim","swim","566.3999999761581","","F","null","77","77","1","arctic-dual-task","","F","uppercase","276000","0","5","f5ab96767ae1714fe3a7ddae37601378d532d44bc021dd2356583c7798d65eaf","276001","566.3999999761581","77","1","arctic","","","","",""
"dual-task","null","null","null","","swim","swim","773","","q","null","88","88","1","arctic-dual-task","","q","lowercase","290000","0","5","f5ab96767ae1714fe3a7ddae37601378d532d44bc021dd2356583c7798d65eaf","290001.10000002384","773","88","1","arctic","","","","",""
"dual-task","null","null","null","","swim","swim","1456","","N","null","77","77","1","arctic-dual-task","","N","uppercase","298000","0","5","f5ab96767ae1714fe3a7ddae37601378d532d44bc021dd2356583c7798d65eaf","298013.5","1456","77","1","arctic","","","","",""
"dual-task","null","null","null","","swim","swim","663.3000000119209","","Q","null","77","77","1","arctic-dual-task","","Q","uppercase","306000","0","5","f5ab96767ae1714fe3a7ddae37601378d532d44bc021dd2356583c7798d65eaf","306005.1999999881","663.3000000119209","77","1","arctic","","","","",""
"dual-task","null","null","null","","swim","swim","458.10000002384186","","N","null","77","77","1","arctic-dual-task","","N","uppercase","316000","0","5","f5ab96767ae1714fe3a7ddae37601378d532d44bc021dd2356583c7798d65eaf","316009.8000000119","458.10000002384186","77","1","arctic","","","","",""
"dual-task","null","null","null","","swim","swim","519.5","","t","null","88","88","1","arctic-dual-task","","t","lowercase","328000","0","5","f5ab96767ae1714fe3a7ddae37601378d532d44bc021dd2356583c7798d65eaf","328005.3000000119","519.5","88","1","arctic","","","","",""
"dual-task","null","null","null","","swim","swim","775.6999999880791","","H","null","77","77","1","arctic-dual-task","","H","uppercase","342000","0","5","f5ab96767ae1714fe3a7ddae37601378d532d44bc021dd2356583c7798d65eaf","342002.6999999881","775.6999999880791","77","1","arctic","","","","",""
"dual-task","null","null","null","","swim","swim","742.0999999642372","","r","null","88","88","1","arctic-dual-task","","r","lowercase","354000","0","5","f5ab96767ae1714fe3a7ddae37601378d532d44bc021dd2356583c7798d65eaf","354002.6999999881","742.0999999642372","88","1","arctic","","","","",""
"dual-task","null","null","null","","swim","swim","733.2999999523163","","q","null","88","88","1","arctic-dual-task","","q","lowercase","364000","0","5","f5ab96767ae1714fe3a7ddae37601378d532d44bc021dd2356583c7798d65eaf","364015","733.2999999523163","88","1","arctic","","","","",""
"dual-task","null","null","null","","swim","swim","1264.9000000357628","","n","null","88","88","1","arctic-dual-task","","n","lowercase","372000","0","5","f5ab96767ae1714fe3a7ddae37601378d532d44bc021dd2356583c7798d65eaf","372013.39999997616","1264.9000000357628","88","1","arctic","","","","",""
"dual-task","null","null","null","","swim","swim","612.5","","H","null","77","77","1","arctic-dual-task","","H","uppercase","378000","0","5","f5ab96767ae1714fe3a7ddae37601378d532d44bc021dd2356583c7798d65eaf","378002.5","612.5","77","1","arctic","","","","",""
"dual-task","null","null","null","","swim","swim","625.4000000357628","","n","null","88","88","1","arctic-dual-task","","n","lowercase","388000","0","5","f5ab96767ae1714fe3a7ddae37601378d532d44bc021dd2356583c7798d65eaf","388015.39999997616","625.4000000357628","88","1","arctic","","","","",""
"dual-task","null","null","null","","swim","swim","925.6000000238419","","t","null","88","88","1","arctic-dual-task","","t","lowercase","394000","0","5","f5ab96767ae1714fe3a7ddae37601378d532d44bc021dd2356583c7798d65eaf","394002.89999997616","925.6000000238419","88","1","arctic","","","","",""
"dual-task","null","null","null","","swim","swim","645.6999999880791","","b","null","88","88","1","arctic-dual-task","","b","lowercase","406000","0","5","f5ab96767ae1714fe3a7ddae37601378d532d44bc021dd2356583c7798d65eaf","406003.6999999881","645.6999999880791","88","1","arctic","","","","",""
"dual-task","null","null","null","","swim","swim","622.6999999880791","","B","null","77","77","1","arctic-dual-task","","B","uppercase","412000","0","5","f5ab96767ae1714fe3a7ddae37601378d532d44bc021dd2356583c7798d65eaf","412001.1999999881","622.6999999880791","77","1","arctic","","","","",""
"dual-task","null","null","null","","swim","swim","760.2000000476837","","r","null","88","88","1","arctic-dual-task","","r","lowercase","426000","0","5","f5ab96767ae1714fe3a7ddae37601378d532d44bc021dd2356583c7798d65eaf","426011.39999997616","760.2000000476837","88","1","arctic","","","","",""
"dual-task","null","null","null","","swim","swim","505.80000001192093","","H","null","77","77","1","arctic-dual-task","","H","uppercase","438000","0","5","f5ab96767ae1714fe3a7ddae37601378d532d44bc021dd2356583c7798d65eaf","438008.39999997616","505.80000001192093","77","1","arctic","","","","",""
"dual-task","null","null","null","","swim","swim","697.9000000357628","","A","null","77","77","1","arctic-dual-task","","A","uppercase","450000","0","5","f5ab96767ae1714fe3a7ddae37601378d532d44bc021dd2356583c7798d65eaf","450015.89999997616","697.9000000357628","77","1","arctic","","","","",""
"dual-task","null","null","null","","swim","swim","746.1999999880791","","d","null","88","88","1","arctic-dual-task","","d","lowercase","462000","0","5","f5ab96767ae1714fe3a7ddae37601378d532d44bc021dd2356583c7798d65eaf","462015","746.1999999880791","88","1","arctic","","","","",""
"dual-task","null","null","null","","swim","swim","615.3000000119209","","B","null","77","77","1","arctic-dual-task","","B","uppercase","474000","0","5","f5ab96767ae1714fe3a7ddae37601378d532d44bc021dd2356583c7798d65eaf","474006.8000000119","615.3000000119209","77","1","arctic","","","","",""
"dual-task","null","null","null","","swim","swim","645.1000000238419","","R","null","77","77","1","arctic-dual-task","","R","uppercase","482000","0","5","f5ab96767ae1714fe3a7ddae37601378d532d44bc021dd2356583c7798d65eaf","482005.5","645.1000000238419","77","1","arctic","","","","",""
"dual-task","null","null","null","","swim","swim","894.7000000476837","","t","null","88","88","1","arctic-dual-task","","t","lowercase","488000","0","5","f5ab96767ae1714fe3a7ddae37601378d532d44bc021dd2356583c7798d65eaf","488005.8000000119","894.7000000476837","88","1","arctic","","","","",""
"dual-task","null","null","null","","swim","swim","870.8000000119209","","a","null","88","88","1","arctic-dual-task","","a","lowercase","494000","0","5","f5ab96767ae1714fe3a7ddae37601378d532d44bc021dd2356583c7798d65eaf","494005.39999997616","870.8000000119209","88","1","arctic","","","","",""
"dual-task","null","null","null","","swim","swim","562.5","","E","null","77","77","1","arctic-dual-task","","E","uppercase","500000","0","5","f5ab96767ae1714fe3a7ddae37601378d532d44bc021dd2356583c7798d65eaf","500006.60000002384","562.5","77","1","arctic","","","","",""
"dual-task","null","null","null","","swim","swim","580.6999999880791","","g","null","88","88","1","arctic-dual-task","","g","lowercase","508000","0","5","f5ab96767ae1714fe3a7ddae37601378d532d44bc021dd2356583c7798d65eaf","508012.10000002384","580.6999999880791","88","1","arctic","","","","",""
"dual-task","null","null","null","","swim","swim","612.6999999880791","","E","null","77","77","1","arctic-dual-task","","E","uppercase","522000","0","5","f5ab96767ae1714fe3a7ddae37601378d532d44bc021dd2356583c7798d65eaf","522010.8000000119","612.6999999880791","77","1","arctic","","","","",""
"dual-task","null","null","null","","swim","swim","919.4000000357628","","b","null","88","88","1","arctic-dual-task","","b","lowercase","534000","0","5","f5ab96767ae1714fe3a7ddae37601378d532d44bc021dd2356583c7798d65eaf","534011.6000000238","919.4000000357628","88","1","arctic","","","","",""
"dual-task","null","null","null","","swim","swim","590","","T","null","77","77","1","arctic-dual-task","","T","uppercase","546000","0","5","f5ab96767ae1714fe3a7ddae37601378d532d44bc021dd2356583c7798d65eaf","546003.6999999881","590","77","1","arctic","","","","",""
"dual-task","null","null","null","","swim","swim","754.5","","h","null","88","88","1","arctic-dual-task","","h","lowercase","560000","0","5","f5ab96767ae1714fe3a7ddae37601378d532d44bc021dd2356583c7798d65eaf","560012.6000000238","754.5","88","1","arctic","","","","",""
"dual-task","null","null","null","","swim","swim","957","","G","null","77","77","1","arctic-dual-task","","G","uppercase","574000","0","5","f5ab96767ae1714fe3a7ddae37601378d532d44bc021dd2356583c7798d65eaf","574009.8000000119","957","77","1","arctic","","","","",""
"dual-task","null","null","null","","swim","swim","736.6000000238419","","Q","null","77","77","1","arctic-dual-task","","Q","uppercase","588000","0","5","f5ab96767ae1714fe3a7ddae37601378d532d44bc021dd2356583c7798d65eaf","588000.6999999881","736.6000000238419","77","1","arctic","","","","",""
"dual-task","null","null","null","","swim","swim","844.4000000357628","","T","null","77","77","1","arctic-dual-task","","T","uppercase","602000","0","5","f5ab96767ae1714fe3a7ddae37601378d532d44bc021dd2356583c7798d65eaf","602001.3999999762","844.4000000357628","77","1","arctic","","","","",""
"dual-task","null","null","null","","swim","swim","648.5","","e","null","88","88","1","arctic-dual-task","","e","lowercase","610000","0","5","f5ab96767ae1714fe3a7ddae37601378d532d44bc021dd2356583c7798d65eaf","610003.8999999762","648.5","88","1","arctic","","","","",""
"dual-task","null","null","null","","swim","swim","600.8000000119209","","D","null","77","77","1","arctic-dual-task","","D","uppercase","620000","0","5","f5ab96767ae1714fe3a7ddae37601378d532d44bc021dd2356583c7798d65eaf","620013.5","600.8000000119209","77","1","arctic","","","","",""
"dual-task","null","null","null","","swim","swim","766.4000000357628","","g","null","88","88","1","arctic-dual-task","","g","lowercase","634000","0","5","f5ab96767ae1714fe3a7ddae37601378d532d44bc021dd2356583c7798d65eaf","634005.3999999762","766.4000000357628","88","1","arctic","","","","",""
"dual-task","null","null","null","","swim","swim","1046","","e","null","88","88","1","arctic-dual-task","","e","lowercase","648000","0","5","f5ab96767ae1714fe3a7ddae37601378d532d44bc021dd2356583c7798d65eaf","648001.3000000119","1046","88","1","arctic","","","","",""
"dual-task","null","null","null","","swim","swim","1561.1000000238419","","n","null","88","88","1","arctic-dual-task","","n","lowercase","656000","0","5","f5ab96767ae1714fe3a7ddae37601378d532d44bc021dd2356583c7798d65eaf","656012.8000000119","1561.1000000238419","88","1","arctic","","","","",""
"dual-task","null","null","null","","swim","swim","527.5999999642372","","t","null","88","88","1","arctic-dual-task","","t","lowercase","668000","0","5","f5ab96767ae1714fe3a7ddae37601378d532d44bc021dd2356583c7798d65eaf","668001.1000000238","527.5999999642372","88","1","arctic","","","","",""
"dual-task","null","null","null","","swim","swim","537.3000000119209","","h","null","88","88","1","arctic-dual-task","","h","lowercase","676000","0","5","f5ab96767ae1714fe3a7ddae37601378d532d44bc021dd2356583c7798d65eaf","676001.8999999762","537.3000000119209","88","1","arctic","","","","",""
"dual-task","null","null","null","","swim","swim","818.6999999880791","","F","null","77","77","1","arctic-dual-task","","F","uppercase","690000","0","5","f5ab96767ae1714fe3a7ddae37601378d532d44bc021dd2356583c7798d65eaf","690009.1999999881","818.6999999880791","77","1","arctic","","","","",""
"dual-task","null","null","null","","swim","swim","770.3000000119209","","f","null","88","88","1","arctic-dual-task","","f","lowercase","700000","0","5","f5ab96767ae1714fe3a7ddae37601378d532d44bc021dd2356583c7798d65eaf","700016.3000000119","770.3000000119209","88","1","arctic","","","","",""
"dual-task","null","null","null","","swim","swim","959.7999999523163","","Q","null","77","77","1","arctic-dual-task","","Q","uppercase","708000","0","5","f5ab96767ae1714fe3a7ddae37601378d532d44bc021dd2356583c7798d65eaf","708015.6000000238","959.7999999523163","77","1","arctic","","","","",""
"dual-task","null","null","null","","swim","swim","677.1999999880791","","D","null","77","77","1","arctic-dual-task","","D","uppercase","720000","0","5","f5ab96767ae1714fe3a7ddae37601378d532d44bc021dd2356583c7798d65eaf","720013.6999999881","677.1999999880791","77","1","arctic","","","","",""
"dual-task","null","null","null","","swim","swim","1001.1999999880791","","b","null","88","88","1","arctic-dual-task","","b","lowercase","726000","0","5","f5ab96767ae1714fe3a7ddae37601378d532d44bc021dd2356583c7798d65eaf","726014.3999999762","1001.1999999880791","88","1","arctic","","","","",""
"dual-task","null","null","null","","swim","swim","559.5999999642372","","E","null","77","77","1","arctic-dual-task","","E","uppercase","736000","0","5","f5ab96767ae1714fe3a7ddae37601378d532d44bc021dd2356583c7798d65eaf","736000.8000000119","559.5999999642372","77","1","arctic","","","","",""
"dual-task","null","null","null","","swim","swim","592","","d","null","88","88","1","arctic-dual-task","","d","lowercase","746000","0","5","f5ab96767ae1714fe3a7ddae37601378d532d44bc021dd2356583c7798d65eaf","746013.1000000238","592","88","1","arctic","","","","",""
"dual-task","null","null","null","","swim","swim","761.3999999761581","","h","null","88","88","1","arctic-dual-task","","h","lowercase","758000","0","5","f5ab96767ae1714fe3a7ddae37601378d532d44bc021dd2356583c7798d65eaf","758012.5","761.3999999761581","88","1","arctic","","","","",""
"dual-task","null","null","null","","swim","swim","562.5","","g","null","88","88","1","arctic-dual-task","","g","lowercase","764000","0","5","f5ab96767ae1714fe3a7ddae37601378d532d44bc021dd2356583c7798d65eaf","764002.8999999762","562.5","88","1","arctic","","","","",""
"dual-task","null","null","null","","swim","swim","629.6999999880791","","r","null","88","88","1","arctic-dual-task","","r","lowercase","774000","0","5","f5ab96767ae1714fe3a7ddae37601378d532d44bc021dd2356583c7798d65eaf","774015.5","629.6999999880791","88","1","arctic","","","","",""
"dual-task","null","null","null","","swim","swim","808.7999999523163","","T","null","77","77","1","arctic-dual-task","","T","uppercase","786000","0","5","f5ab96767ae1714fe3a7ddae37601378d532d44bc021dd2356583c7798d65eaf","786007.1000000238","808.7999999523163","77","1","arctic","","","","",""
"audio-keyboard-response","62","1952584","0.0-7.0-2.0-1.0","f5ab96767ae1714fe3a7ddae37601378d532d44bc021dd2356583c7798d65eaf","swim","swim","null","","audio/story_arctic.mp3","","null","","","","","","","","","","","","","","","","","","","",""
"html-button-response","63","1956374","0.0-7.0-2.0-2.0","f5ab96767ae1714fe3a7ddae37601378d532d44bc021dd2356583c7798d65eaf","swim","swim","3788","","<p>This concludes the story. Thank you for listening.</p><p>You will now answer some questions about the content of the story.</p>","0","","","","","","","","","","","","","","","","","","","","",""
"survey-multi-choice","64","1965762","0.0-7.0-2.0-3.0-0.0","f5ab96767ae1714fe3a7ddae37601378d532d44bc021dd2356583c7798d65eaf","swim","swim","9387","","<b>What was the objective of the narrator&#39;s expedition?</b>","","","","1","arctic-comprehension","","","","","","","","","","","","","{""Q0"":""Dogsled across Arctic America""}","","","",""
"survey-multi-choice","65","1978710","0.0-7.0-2.0-3.0-0.1","f5ab96767ae1714fe3a7ddae37601378d532d44bc021dd2356583c7798d65eaf","swim","swim","12692","","<b>How did the narrator&#39;s encounter with the polar bears end?</b>","","","","1","arctic-comprehension","","","","","","","","","","","","","{""Q0"":""The bears walked back to their den.""}","","","",""
"survey-multi-choice","66","1986889","0.0-7.0-2.0-3.0-0.2","f5ab96767ae1714fe3a7ddae37601378d532d44bc021dd2356583c7798d65eaf","swim","swim","7912","","<b>Which dog on the narrator&#39;s dog team never followed instructions?</b>","","","","1","arctic-comprehension","","","","","","","","","","","","","{""Q0"":""Robert""}","","","",""
"survey-multi-choice","67","1994369","0.0-7.0-2.0-3.0-0.3","f5ab96767ae1714fe3a7ddae37601378d532d44bc021dd2356583c7798d65eaf","swim","swim","7227","","<b>What did the narrator do for leisure while in her tent?</b>","","","","1","arctic-comprehension","","","","","","","","","","","","","{""Q0"":""Read""}","","","",""
"survey-multi-choice","68","2001579","0.0-7.0-2.0-3.0-0.4","f5ab96767ae1714fe3a7ddae37601378d532d44bc021dd2356583c7798d65eaf","swim","swim","6958","","<b>What is the name of the narrator&#39;s neighbour?</b>","","","","1","arctic-comprehension","","","","","","","","","","","","","{""Q0"":""Dave""}","","","",""
"survey-multi-choice","69","2012567","0.0-7.0-2.0-3.0-0.5","f5ab96767ae1714fe3a7ddae37601378d532d44bc021dd2356583c7798d65eaf","swim","swim","10735","","<b>What were the weather conditions in the Arctic like the winter of the narrator&#39;s expedition?</b>","","","","1","arctic-comprehension","","","","","","","","","","","","","{""Q0"":""There were more storms than any other winter in recorded history.""}","","","",""
"survey-multi-choice","70","2023427","0.0-7.0-2.0-3.0-0.6","f5ab96767ae1714fe3a7ddae37601378d532d44bc021dd2356583c7798d65eaf","swim","swim","10608","","<b>How did the narrator&#39;s neighbour respond when she told him about her expedition?</b>","","","","1","arctic-comprehension","","","","","","","","","","","","","{""Q0"":""He said she was going to fail.""}","","","",""
"survey-multi-choice","71","2036834","0.0-7.0-2.0-3.0-0.7","f5ab96767ae1714fe3a7ddae37601378d532d44bc021dd2356583c7798d65eaf","swim","swim","13154","","<b>How did the dogs respond when they saw the bears?</b>","","","","1","arctic-comprehension","","","","","","","","","","","","","{""Q0"":""Approached them""}","","","",""
"survey-multi-choice","72","2045782","0.0-7.0-2.0-3.0-0.8","f5ab96767ae1714fe3a7ddae37601378d532d44bc021dd2356583c7798d65eaf","swim","swim","8697","","<b>How many sponsorships did the narrator receive to support her expedition?</b>","","","","1","arctic-comprehension","","","","","","","","","","","","","{""Q0"":""None""}","","","",""
"survey-multi-choice","73","2059509","0.0-7.0-2.0-3.0-0.9","f5ab96767ae1714fe3a7ddae37601378d532d44bc021dd2356583c7798d65eaf","swim","swim","13475","","<b>How did the narrator prepare for her expedition?</b>","","","","1","arctic-comprehension","","","","","","","","","","","","","{""Q0"":""Trained in Alaska learning how to dogsled""}","","","",""
"html-button-response","74","2061261","0.0-7.0-2.0-4.0","f5ab96767ae1714fe3a7ddae37601378d532d44bc021dd2356583c7798d65eaf","swim","swim","1500","","<p>Thank you for your responses.</p><p>You will now answer some questions about your impressions of the story.</p>","0","","","","","","","","","","","","","","","","","","","","",""
"html-button-response","75","2064485","0.0-7.0-2.0-5.0-0.0","f5ab96767ae1714fe3a7ddae37601378d532d44bc021dd2356583c7798d65eaf","swim","swim","3223","","MS3","6","","","","arctic-engagement","","","","","","","","","","","","","","7","mental-sim","",""
"html-button-response","76","2068238","0.0-7.0-2.0-5.0-0.1","f5ab96767ae1714fe3a7ddae37601378d532d44bc021dd2356583c7798d65eaf","swim","swim","3500","","EE1","6","","","","arctic-engagement","","","","","","","","","","","","","","7","emo-engage","",""
"html-button-response","77","2072424","0.0-7.0-2.0-5.0-0.2","f5ab96767ae1714fe3a7ddae37601378d532d44bc021dd2356583c7798d65eaf","swim","swim","3935","","E1","6","","","","arctic-engagement","","","","","","","","","","","","","","7","enjoyment","",""
"html-button-response","78","2075401","0.0-7.0-2.0-5.0-0.3","f5ab96767ae1714fe3a7ddae37601378d532d44bc021dd2356583c7798d65eaf","swim","swim","2726","","A2","6","","","","arctic-engagement","","","","","","","","","","","","","","7","absorption","",""
"html-button-response","79","2079414","0.0-7.0-2.0-5.0-0.4","f5ab96767ae1714fe3a7ddae37601378d532d44bc021dd2356583c7798d65eaf","swim","swim","3762","","A5","6","","","","arctic-engagement","","","","","","","","","","","","","","7","absorption","",""
"html-button-response","80","2082048","0.0-7.0-2.0-5.0-0.5","f5ab96767ae1714fe3a7ddae37601378d532d44bc021dd2356583c7798d65eaf","swim","swim","2383","","EE3","5","","","","arctic-engagement","","","","","","","","","","","","","","6","emo-engage","",""
"html-button-response","81","2084819","0.0-7.0-2.0-5.0-0.6","f5ab96767ae1714fe3a7ddae37601378d532d44bc021dd2356583c7798d65eaf","swim","swim","2519","","E10","6","","","","arctic-engagement","","","","","","","","","","","","","","7","enjoyment","",""
"html-button-response","82","2087107","0.0-7.0-2.0-5.0-0.7","f5ab96767ae1714fe3a7ddae37601378d532d44bc021dd2356583c7798d65eaf","swim","swim","2036","","E7","6","","","","arctic-engagement","","","","","","","","","","","","","","7","enjoyment","",""
"html-button-response","83","2089478","0.0-7.0-2.0-5.0-0.8","f5ab96767ae1714fe3a7ddae37601378d532d44bc021dd2356583c7798d65eaf","swim","swim","2119","","EE5","6","","","","arctic-engagement","","","","","","","","","","","","","","7","emo-engage","",""
"html-button-response","84","2091366","0.0-7.0-2.0-5.0-0.9","f5ab96767ae1714fe3a7ddae37601378d532d44bc021dd2356583c7798d65eaf","swim","swim","1636","","E8","6","","","","arctic-engagement","","","","","","","","","","","","","","7","enjoyment","",""
"html-button-response","85","2093449","0.0-7.0-2.0-5.0-0.10","f5ab96767ae1714fe3a7ddae37601378d532d44bc021dd2356583c7798d65eaf","swim","swim","1831","","EE2","6","","","","arctic-engagement","","","","","","","","","","","","","","7","emo-engage","",""
"html-button-response","86","2095060","0.0-7.0-2.0-5.0-0.11","f5ab96767ae1714fe3a7ddae37601378d532d44bc021dd2356583c7798d65eaf","swim","swim","1359","","A3","6","","","","arctic-engagement","","","","","","","","","","","","","","7","absorption","",""
"html-button-response","87","2098584","0.0-7.0-2.0-5.0-0.12","f5ab96767ae1714fe3a7ddae37601378d532d44bc021dd2356583c7798d65eaf","swim","swim","3272","","A1","5","","","","arctic-engagement","","","","","","","","","","","","","","6","absorption","",""
"html-button-response","88","2101210","0.0-7.0-2.0-5.0-0.13","f5ab96767ae1714fe3a7ddae37601378d532d44bc021dd2356583c7798d65eaf","swim","swim","2375","","EE4","5","","","","arctic-engagement","","","","","","","","","","","","","","6","emo-engage","",""
"html-button-response","89","2104509","0.0-7.0-2.0-5.0-0.14","f5ab96767ae1714fe3a7ddae37601378d532d44bc021dd2356583c7798d65eaf","swim","swim","3048","","MS1","6","","","","arctic-engagement","","","","","","","","","","","","","","7","mental-sim","",""
"html-button-response","90","2108490","0.0-7.0-2.0-5.0-0.15","f5ab96767ae1714fe3a7ddae37601378d532d44bc021dd2356583c7798d65eaf","swim","swim","3730","","A4","5","","","","arctic-engagement","","","","","","","","","","","","","","6","absorption","",""
"html-button-response","91","2112866","0.0-7.0-2.0-5.0-0.16","f5ab96767ae1714fe3a7ddae37601378d532d44bc021dd2356583c7798d65eaf","swim","swim","4124","","MS2","6","","","","arctic-engagement","","","","","","","","","","","","","","7","mental-sim","",""
"html-button-response","92","2116269","0.0-7.0-2.0-5.0-0.17","f5ab96767ae1714fe3a7ddae37601378d532d44bc021dd2356583c7798d65eaf","swim","swim","3152","","E6","6","","","","arctic-engagement","","","","","","","","","","","","","","7","enjoyment","",""
"html-button-response","93","2119837","0.0-8.0","f5ab96767ae1714fe3a7ddae37601378d532d44bc021dd2356583c7798d65eaf","swim","swim","3316","","<p>Thank you for your responses.</p><p>You will now answer some demographic, hearing, and general health questions.</p>","0","","","","","","","","","","","","","","","","","","","","",""
"survey-multi-choice","94","2125122","0.0-9.0-0.0","f5ab96767ae1714fe3a7ddae37601378d532d44bc021dd2356583c7798d65eaf","swim","swim","5283","","","","","","","survey","","","","","","","","","","","","","{""Q0"":""Chrome""}","","","browser",""
"survey-text","95","2129587","0.0-9.0-1.0","f5ab96767ae1714fe3a7ddae37601378d532d44bc021dd2356583c7798d65eaf","swim","swim","4212","","","","","","","survey","","","","","","","","","","","","","{""AGE"":""40""}","","","age","40"
"survey-multi-choice","96","2131800","0.0-9.0-2.0","f5ab96767ae1714fe3a7ddae37601378d532d44bc021dd2356583c7798d65eaf","swim","swim","1961","","","","","","","survey","","","","","","","","","","","","","{""Q0"":""Male""}","","","gender","Male"
"survey-multi-choice","97","2134091","0.0-9.0-4.0","f5ab96767ae1714fe3a7ddae37601378d532d44bc021dd2356583c7798d65eaf","swim","swim","2039","","","","","","","survey","","","","","","","","","","","","","{""Q0"":""Right""}","","","handedness","Right"
"survey-multi-choice","98","2138465","0.0-9.0-5.0","f5ab96767ae1714fe3a7ddae37601378d532d44bc021dd2356583c7798d65eaf","swim","swim","4123","","","","","","","survey","","","","","","","","","","","","","{""Q0"":""Some university undergraduate schooling""}","","","education","Some university undergraduate schooling"
"survey-text","99","2146946","0.0-10.0-0.0","f5ab96767ae1714fe3a7ddae37601378d532d44bc021dd2356583c7798d65eaf","swim","swim","8228.599999964237","","","","","","","survey","","","","","","","","","","","","","{""L1"":""English""}","","","first-language","English"
"survey-text","100","2157495","0.0-10.0-1.0","f5ab96767ae1714fe3a7ddae37601378d532d44bc021dd2356583c7798d65eaf","swim","swim","10295.100000023842","","","","","","","survey","","","","","","","","","","","","","{""L2name"":"""",""L2fluency"":"""",""L3name"":"""",""L3fluency"":"""",""L4name"":"""",""L4fluency"":""""}","","","additional-languages","{""L2name"":"""",""L2fluency"":"""",""L3name"":"""",""L3fluency"":"""",""L4name"":"""",""L4fluency"":""""}"
"survey-multi-choice","101","2162297","0.0-10.0-2.0","f5ab96767ae1714fe3a7ddae37601378d532d44bc021dd2356583c7798d65eaf","swim","swim","4551","","","","","","","survey","","","","","","","","","","","","","{""Q0"":""No""}","","","hearing-aid","No"
"survey-multi-choice","102","2167452","0.0-10.0-3.0","f5ab96767ae1714fe3a7ddae37601378d532d44bc021dd2356583c7798d65eaf","swim","swim","4903","","","","","","","survey","","","","","","","","","","","","","{""Q0"":""Never""}","","","ringing-ears","Never"
"survey-multi-choice","103","2171010","0.0-10.0-5.0","f5ab96767ae1714fe3a7ddae37601378d532d44bc021dd2356583c7798d65eaf","swim","swim","3307","","","","","","","survey","","","","","","","","","","","","","{""Q0"":""No""}","","","neuro-disease","No"
"survey-multi-choice","104","2175731","0.0-10.0-7.0","f5ab96767ae1714fe3a7ddae37601378d532d44bc021dd2356583c7798d65eaf","swim","swim","4470","","","","","","","survey","","","","","","","","","","","","","{""Q0"":""No""}","","","take-meds","No"
"survey-text","105","2183838","0.0-10.0-9.0","f5ab96767ae1714fe3a7ddae37601378d532d44bc021dd2356583c7798d65eaf","swim","swim","7851.5","","","","","","","survey","","","","","","","","","","","","","{""HC"":""n/a""}","","","health-concerns","n/a"
"html-button-response","106","2187845","0.0-11.0-0.0","f5ab96767ae1714fe3a7ddae37601378d532d44bc021dd2356583c7798d65eaf","swim","swim","3755","","<p>How would you describe your musical skills/experiences?</p>","2","","","","survey","","","","","","","","","","","","","","","","music-skill","3"
"survey-multi-choice","107","2191709","0.0-11.0-1.0","f5ab96767ae1714fe3a7ddae37601378d532d44bc021dd2356583c7798d65eaf","swim","swim","3613","","","","","","","survey","","","","","","","","","","","","","{""Q0"":""No""}","","","music-instrument","No"
"html-button-response","108","2195983","0.0-12.0-0.0","f5ab96767ae1714fe3a7ddae37601378d532d44bc021dd2356583c7798d65eaf","swim","swim","4022","","<p>How would you describe your general hearing abilities?</p>","5","","","","survey","","","","","","","","","","","","","","","","ssq-01","6"
"html-button-response","109","2203783","0.0-12.0-1.0","f5ab96767ae1714fe3a7ddae37601378d532d44bc021dd2356583c7798d65eaf","swim","swim","7548","","<p>When you talk with someone at a place that strongly reverberates/echoes (e.g., in a church or train station),</br>can you understand what the person says?</p>","9","","","","survey","","","","","","","","","","","","","","","","ssq-02","9"
"html-button-response","110","2210559","0.0-12.0-2.0","f5ab96767ae1714fe3a7ddae37601378d532d44bc021dd2356583c7798d65eaf","swim","swim","6525","","<p>When you are with a group (~5 people) in a lively restaurant, can you follow the group's conversation?</p>","10","","","","survey","","","","","","","","","","","","","","","","ssq-03","10"
"html-button-response","111","2217279","0.0-12.0-3.0","f5ab96767ae1714fe3a7ddae37601378d532d44bc021dd2356583c7798d65eaf","swim","swim","6468","","<p>Based on the sound of a bus or truck, can you tell whether it is moving towards or away from you?</p>","9","","","","survey","","","","","","","","","","","","","","","","ssq-04","9"
"html-button-response","112","2222105","0.0-12.0-4.0","f5ab96767ae1714fe3a7ddae37601378d532d44bc021dd2356583c7798d65eaf","swim","swim","4574","","<p>When you are in an unknown environment, can you tell from which direction a brief sound originates?</p>","9","","","","survey","","","","","","","","","","","","","","","","ssq-05","9"
"html-button-response","113","2226618","0.0-12.0-5.0","f5ab96767ae1714fe3a7ddae37601378d532d44bc021dd2356583c7798d65eaf","swim","swim","4261","","<p>Are you able to ignore distracting sounds when you concentrate on a specific aspect of your acoustic surrounding?</p>","9","","","","survey","","","","","","","","","","","","","","","","ssq-06","9"
"fullscreen","114","2227869","0.0-13.0","f5ab96767ae1714fe3a7ddae37601378d532d44bc021dd2356583c7798d65eaf","swim","swim","","","","","","","","","true","","","","","","","","","","","","","","","",""
