"trial_type","trial_index","time_elapsed","internal_node_id","ParticipantID","firstStory","scramStory","rt","url","stimulus","button_pressed","key_press","correctRESP","correct","designation","success","letterStim","letterType","ONSET","TIMEOUT","CONDITION","Participant","ONSET_ACTUAL","RT","RESP","ACC","STORY","responses","response","type","surveyQuestion","QRESP"
"pavlovia","0","2","0.0-0.0","33037ff5627eef70631c4df1a69be15ba287398af4f2215d436845486b1f9c3b","swim","swim","","","","","","","","","","","","","","","","","","","","","","","","",""
"external-html","1","3580","0.0-1.0","33037ff5627eef70631c4df1a69be15ba287398af4f2215d436845486b1f9c3b","swim","swim","3345","consent/consent_updated.html","","","","","","","","","","","","","","","","","","","","","","",""
"html-button-response","2","4734","0.0-2.0-0.0","33037ff5627eef70631c4df1a69be15ba287398af4f2215d436845486b1f9c3b","swim","swim","1153","","<p>Before we begin the main task, you will complete a short volume calibration and headphone check.</p><p>Please make sure you are in a quiet listening environment, that you are wearing headphones, and that your computer's volume is turned on.<p></p>","0","","","","","","","","","","","","","","","","","","","","",""
"html-button-response","3","5649","0.0-2.0-1.0","33037ff5627eef70631c4df1a69be15ba287398af4f2215d436845486b1f9c3b","swim","swim","650","","<p>The volume calibration will be first.</p><p>You will hear a thirty-second noise. Please adjust your computer's volume so that this noise is being presented at a comfortable level.<p></p>","0","","","","","","","","","","","","","","","","","","","","",""
"audio-button-response","4","6790","0.0-2.0-2.0","33037ff5627eef70631c4df1a69be15ba287398af4f2215d436845486b1f9c3b","swim","swim","882","","audio/volumetest.mp3","0","","","","","","","","","","","","","","","","","","","","",""
"html-keyboard-response","5","26872","0.0-3.0-0.0","33037ff5627eef70631c4df1a69be15ba287398af4f2215d436845486b1f9c3b","swim","swim","20082","","<p>You will now complete a short headphone check.</p><p>On each trial, you will hear three tones. One of these tones will be quieter than the others. Your task is to identify whether the quiet tone occurred first, second, or third.</p><p>There are six trials in total.<p></p><p></p>(Press SPACEBAR to begin)","","32","","","","","","","","","","","","","","","","","","","",""
"html-keyboard-response","6","27628","0.0-3.0-1.0-0.0","33037ff5627eef70631c4df1a69be15ba287398af4f2215d436845486b1f9c3b","swim","swim","null","","<div style=""font-size:60px;"">+</div>","","null","","","","","","","","","","","","","","","","","","","",""
"audio-button-response","7","32061","0.0-3.0-1.0-1.0","33037ff5627eef70631c4df1a69be15ba287398af4f2215d436845486b1f9c3b","swim","swim","4431","","audio/t3_1.mp3","2","","2","1","headphone-test","","","","","","","","","","","","","","","","",""
"html-keyboard-response","8","32562","0.0-3.0-1.0-2.0","33037ff5627eef70631c4df1a69be15ba287398af4f2215d436845486b1f9c3b","swim","swim","null","","<p>Correct</p>","","null","","","","","","","","","","","","","","","","","","","",""
"html-keyboard-response","9","33073","0.0-3.0-1.0-0.1","33037ff5627eef70631c4df1a69be15ba287398af4f2215d436845486b1f9c3b","swim","swim","null","","<div style=""font-size:60px;"">+</div>","","null","","","","","","","","","","","","","","","","","","","",""
"audio-button-response","10","36962","0.0-3.0-1.0-1.1","33037ff5627eef70631c4df1a69be15ba287398af4f2215d436845486b1f9c3b","swim","swim","3888","","audio/t1_2.mp3","0","","0","1","headphone-test","","","","","","","","","","","","","","","","",""
"html-keyboard-response","11","37464","0.0-3.0-1.0-2.1","33037ff5627eef70631c4df1a69be15ba287398af4f2215d436845486b1f9c3b","swim","swim","null","","<p>Correct</p>","","null","","","","","","","","","","","","","","","","","","","",""
"html-keyboard-response","12","37969","0.0-3.0-1.0-0.2","33037ff5627eef70631c4df1a69be15ba287398af4f2215d436845486b1f9c3b","swim","swim","null","","<div style=""font-size:60px;"">+</div>","","null","","","","","","","","","","","","","","","","","","","",""
"audio-button-response","13","42146","0.0-3.0-1.0-1.2","33037ff5627eef70631c4df1a69be15ba287398af4f2215d436845486b1f9c3b","swim","swim","4175","","audio/t3_2.mp3","2","","2","1","headphone-test","","","","","","","","","","","","","","","","",""
"html-keyboard-response","14","42647","0.0-3.0-1.0-2.2","33037ff5627eef70631c4df1a69be15ba287398af4f2215d436845486b1f9c3b","swim","swim","null","","<p>Correct</p>","","null","","","","","","","","","","","","","","","","","","","",""
"html-keyboard-response","15","43156","0.0-3.0-1.0-0.3","33037ff5627eef70631c4df1a69be15ba287398af4f2215d436845486b1f9c3b","swim","swim","null","","<div style=""font-size:60px;"">+</div>","","null","","","","","","","","","","","","","","","","","","","",""
"audio-button-response","16","47435","0.0-3.0-1.0-1.3","33037ff5627eef70631c4df1a69be15ba287398af4f2215d436845486b1f9c3b","swim","swim","4277","","audio/t2_2.mp3","1","","1","1","headphone-test","","","","","","","","","","","","","","","","",""
"html-keyboard-response","17","47936","0.0-3.0-1.0-2.3","33037ff5627eef70631c4df1a69be15ba287398af4f2215d436845486b1f9c3b","swim","swim","null","","<p>Correct</p>","","null","","","","","","","","","","","","","","","","","","","",""
"html-keyboard-response","18","48450","0.0-3.0-1.0-0.4","33037ff5627eef70631c4df1a69be15ba287398af4f2215d436845486b1f9c3b","swim","swim","null","","<div style=""font-size:60px;"">+</div>","","null","","","","","","","","","","","","","","","","","","","",""
"audio-button-response","19","52602","0.0-3.0-1.0-1.4","33037ff5627eef70631c4df1a69be15ba287398af4f2215d436845486b1f9c3b","swim","swim","4150","","audio/t2_1.mp3","1","","1","1","headphone-test","","","","","","","","","","","","","","","","",""
"html-keyboard-response","20","53103","0.0-3.0-1.0-2.4","33037ff5627eef70631c4df1a69be15ba287398af4f2215d436845486b1f9c3b","swim","swim","null","","<p>Correct</p>","","null","","","","","","","","","","","","","","","","","","","",""
"html-keyboard-response","21","53619","0.0-3.0-1.0-0.5","33037ff5627eef70631c4df1a69be15ba287398af4f2215d436845486b1f9c3b","swim","swim","null","","<div style=""font-size:60px;"">+</div>","","null","","","","","","","","","","","","","","","","","","","",""
"audio-button-response","22","58010","0.0-3.0-1.0-1.5","33037ff5627eef70631c4df1a69be15ba287398af4f2215d436845486b1f9c3b","swim","swim","4390","","audio/t1_1.mp3","0","","0","1","headphone-test","","","","","","","","","","","","","","","","",""
"html-keyboard-response","23","58512","0.0-3.0-1.0-2.5","33037ff5627eef70631c4df1a69be15ba287398af4f2215d436845486b1f9c3b","swim","swim","null","","<p>Correct</p>","","null","","","","","","","","","","","","","","","","","","","",""
"fullscreen","24","60873","0.0-4.0","33037ff5627eef70631c4df1a69be15ba287398af4f2215d436845486b1f9c3b","swim","swim","","","","","","","","","true","","","","","","","","","","","","","","","",""
"html-button-response","25","63684","0.0-5.0-0.0","33037ff5627eef70631c4df1a69be15ba287398af4f2215d436845486b1f9c3b","swim","swim","2810","","<p>There are two blocks to this experiment.</p><p>In each block, you will hear a ~13.5 minute story. One of the stories will be scrambled. Please listen carefully to both stories and understand them as best you can.</p><p>After each story, you will be asked some questions to assess your comprehension.</p>","0","","","","","","","","","","","","","","","","","","","","",""
"html-button-response","26","68296","0.0-5.0-1.0","33037ff5627eef70631c4df1a69be15ba287398af4f2215d436845486b1f9c3b","swim","swim","4611","","<p>During each story, there will be an additional task.</p><p>A letter will occasionally appear on the screen.</br>Your job is to - as quickly as you can - decide whether the letter is lowercase or uppercase and press one of two keys on the keyboard:</p><p>If the letter is <b>lowercase</b>, press key &lt;<b>x</b>&gt;.</p><p>If the letter is <b>uppercase</b>, press key &lt;<b>m</b>&gt;.</p>","0","","","","","","","","","","","","","","","","","","","","",""
"html-keyboard-response","27","72366","0.0-5.0-2.0","33037ff5627eef70631c4df1a69be15ba287398af4f2215d436845486b1f9c3b","swim","swim","4070","","<p>Because we want your responses to be as quick as possible, please keep your index fingers over the keys while listening.</p><p>Each block lasts about 20 minutes.</p><p><b>Press &lt;x&gt; or &lt;m&gt; to start the first block!</b></p>","","88","","","","","","","","","","","","","","","","","","","",""
"html-keyboard-response","28","72874","0.0-7.0-0.0-0.0","33037ff5627eef70631c4df1a69be15ba287398af4f2215d436845486b1f9c3b","swim","swim","null","","<div style=""font-size:60px;"" tabindex=""0"">+</div>","","null","","","","","","","","","","","","","","","","","","","",""
"dual-task","null","null","null","","swim","swim","NA","","A","null","NA","77","0","swim-dual-task","","A","uppercase","16000","1","4","33037ff5627eef70631c4df1a69be15ba287398af4f2215d436845486b1f9c3b","15998.60000000149","NA","NA","0","swim","","","","",""
"dual-task","null","null","null","","swim","swim","NA","","t","null","NA","88","0","swim-dual-task","","t","lowercase","22000","1","4","33037ff5627eef70631c4df1a69be15ba287398af4f2215d436845486b1f9c3b","22010.10000000149","NA","NA","0","swim","","","","",""
"dual-task","null","null","null","","swim","swim","1914.699999999255","","E","null","77","77","1","swim-dual-task","","E","uppercase","36000","0","4","33037ff5627eef70631c4df1a69be15ba287398af4f2215d436845486b1f9c3b","35998.699999999255","1914.699999999255","77","1","swim","","","","",""
"dual-task","null","null","null","","swim","swim","9","","r","null","77","88","0","swim-dual-task","","r","lowercase","46000","0","4","33037ff5627eef70631c4df1a69be15ba287398af4f2215d436845486b1f9c3b","45998.300000000745","9","77","0","swim","","","","",""
"dual-task","null","null","null","","swim","swim","4","","N","null","77","77","1","swim-dual-task","","N","uppercase","52000","0","4","33037ff5627eef70631c4df1a69be15ba287398af4f2215d436845486b1f9c3b","51998","4","77","1","swim","","","","",""
"dual-task","null","null","null","","swim","swim","NA","","A","null","NA","77","0","swim-dual-task","","A","uppercase","60000","1","4","33037ff5627eef70631c4df1a69be15ba287398af4f2215d436845486b1f9c3b","59998.300000000745","NA","NA","0","swim","","","","",""
"dual-task","null","null","null","","swim","swim","NA","","A","null","NA","77","0","swim-dual-task","","A","uppercase","70000","1","4","33037ff5627eef70631c4df1a69be15ba287398af4f2215d436845486b1f9c3b","70013.19999999925","NA","NA","0","swim","","","","",""
"dual-task","null","null","null","","swim","swim","NA","","N","null","NA","77","0","swim-dual-task","","N","uppercase","84000","1","4","33037ff5627eef70631c4df1a69be15ba287398af4f2215d436845486b1f9c3b","84009.80000000075","NA","NA","0","swim","","","","",""
"dual-task","null","null","null","","swim","swim","NA","","T","null","NA","77","0","swim-dual-task","","T","uppercase","90000","1","4","33037ff5627eef70631c4df1a69be15ba287398af4f2215d436845486b1f9c3b","90004.19999999925","NA","NA","0","swim","","","","",""
"dual-task","null","null","null","","swim","swim","NA","","t","null","NA","88","0","swim-dual-task","","t","lowercase","102000","1","4","33037ff5627eef70631c4df1a69be15ba287398af4f2215d436845486b1f9c3b","102007.30000000075","NA","NA","0","swim","","","","",""
"dual-task","null","null","null","","swim","swim","NA","","q","null","NA","88","0","swim-dual-task","","q","lowercase","114000","1","4","33037ff5627eef70631c4df1a69be15ba287398af4f2215d436845486b1f9c3b","113999.5","NA","NA","0","swim","","","","",""
"dual-task","null","null","null","","swim","swim","NA","","n","null","NA","88","0","swim-dual-task","","n","lowercase","122000","1","4","33037ff5627eef70631c4df1a69be15ba287398af4f2215d436845486b1f9c3b","122002.69999999925","NA","NA","0","swim","","","","",""
"dual-task","null","null","null","","swim","swim","NA","","e","null","NA","88","0","swim-dual-task","","e","lowercase","130000","1","4","33037ff5627eef70631c4df1a69be15ba287398af4f2215d436845486b1f9c3b","130004.5","NA","NA","0","swim","","","","",""
"dual-task","null","null","null","","swim","swim","NA","","G","null","NA","77","0","swim-dual-task","","G","uppercase","142000","1","4","33037ff5627eef70631c4df1a69be15ba287398af4f2215d436845486b1f9c3b","142003.1000000015","NA","NA","0","swim","","","","",""
"dual-task","null","null","null","","swim","swim","NA","","D","null","NA","77","0","swim-dual-task","","D","uppercase","148000","1","4","33037ff5627eef70631c4df1a69be15ba287398af4f2215d436845486b1f9c3b","148010.6000000015","NA","NA","0","swim","","","","",""
"dual-task","null","null","null","","swim","swim","NA","","Q","null","NA","77","0","swim-dual-task","","Q","uppercase","158000","1","4","33037ff5627eef70631c4df1a69be15ba287398af4f2215d436845486b1f9c3b","158010.8999999985","NA","NA","0","swim","","","","",""
"dual-task","null","null","null","","swim","swim","2.899999998509884","","n","null","77","88","0","swim-dual-task","","n","lowercase","166000","0","4","33037ff5627eef70631c4df1a69be15ba287398af4f2215d436845486b1f9c3b","165999.30000000075","2.899999998509884","77","0","swim","","","","",""
"dual-task","null","null","null","","swim","swim","3.100000001490116","","R","null","77","77","1","swim-dual-task","","R","uppercase","180000","0","4","33037ff5627eef70631c4df1a69be15ba287398af4f2215d436845486b1f9c3b","179999","3.100000001490116","77","1","swim","","","","",""
"dual-task","null","null","null","","swim","swim","5.800000000745058","","g","null","77","88","0","swim-dual-task","","g","lowercase","192000","0","4","33037ff5627eef70631c4df1a69be15ba287398af4f2215d436845486b1f9c3b","191999.69999999925","5.800000000745058","77","0","swim","","","","",""
"dual-task","null","null","null","","swim","swim","0.09999999776482582","","H","null","77","77","1","swim-dual-task","","H","uppercase","200000","0","4","33037ff5627eef70631c4df1a69be15ba287398af4f2215d436845486b1f9c3b","199998.69999999925","0.09999999776482582","77","1","swim","","","","",""
"dual-task","null","null","null","","swim","swim","5.399999998509884","","R","null","77","77","1","swim-dual-task","","R","uppercase","206000","0","4","33037ff5627eef70631c4df1a69be15ba287398af4f2215d436845486b1f9c3b","205998.80000000075","5.399999998509884","77","1","swim","","","","",""
"dual-task","null","null","null","","swim","swim","5.5","","b","null","77","88","0","swim-dual-task","","b","lowercase","216000","0","4","33037ff5627eef70631c4df1a69be15ba287398af4f2215d436845486b1f9c3b","215999.30000000075","5.5","77","0","swim","","","","",""
"dual-task","null","null","null","","swim","swim","2.7999999970197678","","a","null","77","88","0","swim-dual-task","","a","lowercase","222000","0","4","33037ff5627eef70631c4df1a69be15ba287398af4f2215d436845486b1f9c3b","222000","2.7999999970197678","77","0","swim","","","","",""
"dual-task","null","null","null","","swim","swim","2.699999999254942","","H","null","77","77","1","swim-dual-task","","H","uppercase","232000","0","4","33037ff5627eef70631c4df1a69be15ba287398af4f2215d436845486b1f9c3b","231999.1000000015","2.699999999254942","77","1","swim","","","","",""
"dual-task","null","null","null","","swim","swim","4.800000000745058","","b","null","77","88","0","swim-dual-task","","b","lowercase","244000","0","4","33037ff5627eef70631c4df1a69be15ba287398af4f2215d436845486b1f9c3b","243998.69999999925","4.800000000745058","77","0","swim","","","","",""
"dual-task","null","null","null","","swim","swim","8.699999999254942","","d","null","77","88","0","swim-dual-task","","d","lowercase","250000","0","4","33037ff5627eef70631c4df1a69be15ba287398af4f2215d436845486b1f9c3b","249998.6000000015","8.699999999254942","77","0","swim","","","","",""
"dual-task","null","null","null","","swim","swim","1.4000000022351742","","e","null","77","88","0","swim-dual-task","","e","lowercase","262000","0","4","33037ff5627eef70631c4df1a69be15ba287398af4f2215d436845486b1f9c3b","261999.69999999925","1.4000000022351742","77","0","swim","","","","",""
"dual-task","null","null","null","","swim","swim","1.5","","D","null","77","77","1","swim-dual-task","","D","uppercase","272000","0","4","33037ff5627eef70631c4df1a69be15ba287398af4f2215d436845486b1f9c3b","271999.3999999985","1.5","77","1","swim","","","","",""
"dual-task","null","null","null","","swim","swim","8.899999998509884","","G","null","77","77","1","swim-dual-task","","G","uppercase","278000","0","4","33037ff5627eef70631c4df1a69be15ba287398af4f2215d436845486b1f9c3b","277999.5","8.899999998509884","77","1","swim","","","","",""
"dual-task","null","null","null","","swim","swim","5.699999999254942","","B","null","77","77","1","swim-dual-task","","B","uppercase","292000","0","4","33037ff5627eef70631c4df1a69be15ba287398af4f2215d436845486b1f9c3b","291999.5","5.699999999254942","77","1","swim","","","","",""
"dual-task","null","null","null","","swim","swim","2.400000002235174","","T","null","77","77","1","swim-dual-task","","T","uppercase","304000","0","4","33037ff5627eef70631c4df1a69be15ba287398af4f2215d436845486b1f9c3b","304001.1000000015","2.400000002235174","77","1","swim","","","","",""
"dual-task","null","null","null","","swim","swim","4.099999997764826","","E","null","77","77","1","swim-dual-task","","E","uppercase","316000","0","4","33037ff5627eef70631c4df1a69be15ba287398af4f2215d436845486b1f9c3b","315998.69999999925","4.099999997764826","77","1","swim","","","","",""
"dual-task","null","null","null","","swim","swim","4.5","","B","null","77","77","1","swim-dual-task","","B","uppercase","324000","0","4","33037ff5627eef70631c4df1a69be15ba287398af4f2215d436845486b1f9c3b","323999.69999999925","4.5","77","1","swim","","","","",""
"dual-task","null","null","null","","swim","swim","2.800000000745058","","b","null","77","88","0","swim-dual-task","","b","lowercase","336000","0","4","33037ff5627eef70631c4df1a69be15ba287398af4f2215d436845486b1f9c3b","335999.80000000075","2.800000000745058","77","0","swim","","","","",""
"dual-task","null","null","null","","swim","swim","4.300000000745058","","Q","null","77","77","1","swim-dual-task","","Q","uppercase","346000","0","4","33037ff5627eef70631c4df1a69be15ba287398af4f2215d436845486b1f9c3b","345999","4.300000000745058","77","1","swim","","","","",""
"dual-task","null","null","null","","swim","swim","NA","","F","null","NA","77","0","swim-dual-task","","F","uppercase","360000","1","4","33037ff5627eef70631c4df1a69be15ba287398af4f2215d436845486b1f9c3b","360003.69999999925","NA","NA","0","swim","","","","",""
"dual-task","null","null","null","","swim","swim","2.800000000745058","","N","null","77","77","1","swim-dual-task","","N","uppercase","368000","0","4","33037ff5627eef70631c4df1a69be15ba287398af4f2215d436845486b1f9c3b","367999.19999999925","2.800000000745058","77","1","swim","","","","",""
"dual-task","null","null","null","","swim","swim","4.300000000745058","","f","null","77","88","0","swim-dual-task","","f","lowercase","378000","0","4","33037ff5627eef70631c4df1a69be15ba287398af4f2215d436845486b1f9c3b","377999.8999999985","4.300000000745058","77","0","swim","","","","",""
"dual-task","null","null","null","","swim","swim","1.5","","q","null","77","88","0","swim-dual-task","","q","lowercase","386000","0","4","33037ff5627eef70631c4df1a69be15ba287398af4f2215d436845486b1f9c3b","385999.5","1.5","77","0","swim","","","","",""
"dual-task","null","null","null","","swim","swim","7.699999999254942","","e","null","77","88","0","swim-dual-task","","e","lowercase","398000","0","4","33037ff5627eef70631c4df1a69be15ba287398af4f2215d436845486b1f9c3b","397999.30000000075","7.699999999254942","77","0","swim","","","","",""
"dual-task","null","null","null","","swim","swim","3","","N","null","77","77","1","swim-dual-task","","N","uppercase","408000","0","4","33037ff5627eef70631c4df1a69be15ba287398af4f2215d436845486b1f9c3b","407999.5","3","77","1","swim","","","","",""
"dual-task","null","null","null","","swim","swim","1.5","","f","null","77","88","0","swim-dual-task","","f","lowercase","418000","0","4","33037ff5627eef70631c4df1a69be15ba287398af4f2215d436845486b1f9c3b","418000.1000000015","1.5","77","0","swim","","","","",""
"dual-task","null","null","null","","swim","swim","2.899999998509884","","n","null","77","88","0","swim-dual-task","","n","lowercase","426000","0","4","33037ff5627eef70631c4df1a69be15ba287398af4f2215d436845486b1f9c3b","426000.1000000015","2.899999998509884","77","0","swim","","","","",""
"dual-task","null","null","null","","swim","swim","6.100000001490116","","H","null","77","77","1","swim-dual-task","","H","uppercase","432000","0","4","33037ff5627eef70631c4df1a69be15ba287398af4f2215d436845486b1f9c3b","432000","6.100000001490116","77","1","swim","","","","",""
"dual-task","null","null","null","","swim","swim","2.5","","a","null","77","88","0","swim-dual-task","","a","lowercase","440000","0","4","33037ff5627eef70631c4df1a69be15ba287398af4f2215d436845486b1f9c3b","440001.80000000075","2.5","77","0","swim","","","","",""
"dual-task","null","null","null","","swim","swim","4","","f","null","77","88","0","swim-dual-task","","f","lowercase","448000","0","4","33037ff5627eef70631c4df1a69be15ba287398af4f2215d436845486b1f9c3b","447999.8999999985","4","77","0","swim","","","","",""
"dual-task","null","null","null","","swim","swim","5.799999997019768","","g","null","77","88","0","swim-dual-task","","g","lowercase","458000","0","4","33037ff5627eef70631c4df1a69be15ba287398af4f2215d436845486b1f9c3b","458000","5.799999997019768","77","0","swim","","","","",""
"dual-task","null","null","null","","swim","swim","2.800000000745058","","h","null","77","88","0","swim-dual-task","","h","lowercase","472000","0","4","33037ff5627eef70631c4df1a69be15ba287398af4f2215d436845486b1f9c3b","472000.5","2.800000000745058","77","0","swim","","","","",""
"dual-task","null","null","null","","swim","swim","8.099999997764826","","G","null","77","77","1","swim-dual-task","","G","uppercase","484000","0","4","33037ff5627eef70631c4df1a69be15ba287398af4f2215d436845486b1f9c3b","483999.30000000075","8.099999997764826","77","1","swim","","","","",""
"dual-task","null","null","null","","swim","swim","7.199999999254942","","h","null","77","88","0","swim-dual-task","","h","lowercase","492000","0","4","33037ff5627eef70631c4df1a69be15ba287398af4f2215d436845486b1f9c3b","491999.6000000015","7.199999999254942","77","0","swim","","","","",""
"dual-task","null","null","null","","swim","swim","8.899999998509884","","D","null","77","77","1","swim-dual-task","","D","uppercase","502000","0","4","33037ff5627eef70631c4df1a69be15ba287398af4f2215d436845486b1f9c3b","501999.6000000015","8.899999998509884","77","1","swim","","","","",""
"dual-task","null","null","null","","swim","swim","2.800000000745058","","d","null","77","88","0","swim-dual-task","","d","lowercase","514000","0","4","33037ff5627eef70631c4df1a69be15ba287398af4f2215d436845486b1f9c3b","513999.5","2.800000000745058","77","0","swim","","","","",""
"dual-task","null","null","null","","swim","swim","1.5","","b","null","77","88","0","swim-dual-task","","b","lowercase","526000","0","4","33037ff5627eef70631c4df1a69be15ba287398af4f2215d436845486b1f9c3b","525999.3999999985","1.5","77","0","swim","","","","",""
"dual-task","null","null","null","","swim","swim","8.399999998509884","","A","null","77","77","1","swim-dual-task","","A","uppercase","538000","0","4","33037ff5627eef70631c4df1a69be15ba287398af4f2215d436845486b1f9c3b","537999.6999999993","8.399999998509884","77","1","swim","","","","",""
"dual-task","null","null","null","","swim","swim","3.5","","E","null","77","77","1","swim-dual-task","","E","uppercase","548000","0","4","33037ff5627eef70631c4df1a69be15ba287398af4f2215d436845486b1f9c3b","547999.5","3.5","77","1","swim","","","","",""
"dual-task","null","null","null","","swim","swim","1.5","","t","null","77","88","0","swim-dual-task","","t","lowercase","560000","0","4","33037ff5627eef70631c4df1a69be15ba287398af4f2215d436845486b1f9c3b","559999.5","1.5","77","0","swim","","","","",""
"dual-task","null","null","null","","swim","swim","7.5","","D","null","77","77","1","swim-dual-task","","D","uppercase","570000","0","4","33037ff5627eef70631c4df1a69be15ba287398af4f2215d436845486b1f9c3b","569999.5","7.5","77","1","swim","","","","",""
"dual-task","null","null","null","","swim","swim","1.199999999254942","","E","null","77","77","1","swim-dual-task","","E","uppercase","576000","0","4","33037ff5627eef70631c4df1a69be15ba287398af4f2215d436845486b1f9c3b","576000.6999999993","1.199999999254942","77","1","swim","","","","",""
"dual-task","null","null","null","","swim","swim","8.699999999254942","","e","null","77","88","0","swim-dual-task","","e","lowercase","584000","0","4","33037ff5627eef70631c4df1a69be15ba287398af4f2215d436845486b1f9c3b","584000.6999999993","8.699999999254942","77","0","swim","","","","",""
"dual-task","null","null","null","","swim","swim","1.6000000014901161","","g","null","77","88","0","swim-dual-task","","g","lowercase","596000","0","4","33037ff5627eef70631c4df1a69be15ba287398af4f2215d436845486b1f9c3b","595999.3999999985","1.6000000014901161","77","0","swim","","","","",""
"dual-task","null","null","null","","swim","swim","2.900000002235174","","d","null","77","88","0","swim-dual-task","","d","lowercase","608000","0","4","33037ff5627eef70631c4df1a69be15ba287398af4f2215d436845486b1f9c3b","608000.1999999993","2.900000002235174","77","0","swim","","","","",""
"dual-task","null","null","null","","swim","swim","2.600000001490116","","t","null","77","88","0","swim-dual-task","","t","lowercase","618000","0","4","33037ff5627eef70631c4df1a69be15ba287398af4f2215d436845486b1f9c3b","617999.5","2.600000001490116","77","0","swim","","","","",""
"dual-task","null","null","null","","swim","swim","2.600000001490116","","F","null","77","77","1","swim-dual-task","","F","uppercase","626000","0","4","33037ff5627eef70631c4df1a69be15ba287398af4f2215d436845486b1f9c3b","626000","2.600000001490116","77","1","swim","","","","",""
"dual-task","null","null","null","","swim","swim","8.099999997764826","","G","null","77","77","1","swim-dual-task","","G","uppercase","638000","0","4","33037ff5627eef70631c4df1a69be15ba287398af4f2215d436845486b1f9c3b","638000.8000000007","8.099999997764826","77","1","swim","","","","",""
"dual-task","null","null","null","","swim","swim","2.599999997764826","","d","null","77","88","0","swim-dual-task","","d","lowercase","644000","0","4","33037ff5627eef70631c4df1a69be15ba287398af4f2215d436845486b1f9c3b","644001","2.599999997764826","77","0","swim","","","","",""
"dual-task","null","null","null","","swim","swim","2.900000002235174","","h","null","77","88","0","swim-dual-task","","h","lowercase","658000","0","4","33037ff5627eef70631c4df1a69be15ba287398af4f2215d436845486b1f9c3b","658000.6999999993","2.900000002235174","77","0","swim","","","","",""
"dual-task","null","null","null","","swim","swim","7.699999999254942","","r","null","77","88","0","swim-dual-task","","r","lowercase","668000","0","4","33037ff5627eef70631c4df1a69be15ba287398af4f2215d436845486b1f9c3b","668000.1999999993","7.699999999254942","77","0","swim","","","","",""
"dual-task","null","null","null","","swim","swim","2.899999998509884","","R","null","77","77","1","swim-dual-task","","R","uppercase","678000","0","4","33037ff5627eef70631c4df1a69be15ba287398af4f2215d436845486b1f9c3b","678001","2.899999998509884","77","1","swim","","","","",""
"dual-task","null","null","null","","swim","swim","2.800000000745058","","T","null","77","77","1","swim-dual-task","","T","uppercase","686000","0","4","33037ff5627eef70631c4df1a69be15ba287398af4f2215d436845486b1f9c3b","686000.1999999993","2.800000000745058","77","1","swim","","","","",""
"dual-task","null","null","null","","swim","swim","3.699999999254942","","r","null","77","88","0","swim-dual-task","","r","lowercase","698000","0","4","33037ff5627eef70631c4df1a69be15ba287398af4f2215d436845486b1f9c3b","698000.1999999993","3.699999999254942","77","0","swim","","","","",""
"dual-task","null","null","null","","swim","swim","2.7000000029802322","","H","null","77","77","1","swim-dual-task","","H","uppercase","706000","0","4","33037ff5627eef70631c4df1a69be15ba287398af4f2215d436845486b1f9c3b","706000.3000000007","2.7000000029802322","77","1","swim","","","","",""
"dual-task","null","null","null","","swim","swim","2.900000002235174","","T","null","77","77","1","swim-dual-task","","T","uppercase","714000","0","4","33037ff5627eef70631c4df1a69be15ba287398af4f2215d436845486b1f9c3b","713999.8999999985","2.900000002235174","77","1","swim","","","","",""
"dual-task","null","null","null","","swim","swim","2.600000001490116","","g","null","77","88","0","swim-dual-task","","g","lowercase","728000","0","4","33037ff5627eef70631c4df1a69be15ba287398af4f2215d436845486b1f9c3b","728002.1999999993","2.600000001490116","77","0","swim","","","","",""
"dual-task","null","null","null","","swim","swim","1.199999999254942","","Q","null","77","77","1","swim-dual-task","","Q","uppercase","738000","0","4","33037ff5627eef70631c4df1a69be15ba287398af4f2215d436845486b1f9c3b","738000","1.199999999254942","77","1","swim","","","","",""
"dual-task","null","null","null","","swim","swim","1.300000000745058","","q","null","77","88","0","swim-dual-task","","q","lowercase","750000","0","4","33037ff5627eef70631c4df1a69be15ba287398af4f2215d436845486b1f9c3b","750000.1999999993","1.300000000745058","77","0","swim","","","","",""
"dual-task","null","null","null","","swim","swim","2.7999999970197678","","B","null","77","77","1","swim-dual-task","","B","uppercase","758000","0","4","33037ff5627eef70631c4df1a69be15ba287398af4f2215d436845486b1f9c3b","758001.1000000015","2.7999999970197678","77","1","swim","","","","",""
"dual-task","null","null","null","","swim","swim","7.199999999254942","","B","null","77","77","1","swim-dual-task","","B","uppercase","764000","0","4","33037ff5627eef70631c4df1a69be15ba287398af4f2215d436845486b1f9c3b","764000.1000000015","7.199999999254942","77","1","swim","","","","",""
"dual-task","null","null","null","","swim","swim","5.900000002235174","","q","null","77","88","0","swim-dual-task","","q","lowercase","774000","0","4","33037ff5627eef70631c4df1a69be15ba287398af4f2215d436845486b1f9c3b","774000.5","5.900000002235174","77","0","swim","","","","",""
"dual-task","null","null","null","","swim","swim","2.800000000745058","","R","null","77","77","1","swim-dual-task","","R","uppercase","780000","0","4","33037ff5627eef70631c4df1a69be15ba287398af4f2215d436845486b1f9c3b","780001.6999999993","2.800000000745058","77","1","swim","","","","",""
"dual-task","null","null","null","","swim","swim","2.800000000745058","","f","null","77","88","0","swim-dual-task","","f","lowercase","786000","0","4","33037ff5627eef70631c4df1a69be15ba287398af4f2215d436845486b1f9c3b","786000.3999999985","2.800000000745058","77","0","swim","","","","",""
"dual-task","null","null","null","","swim","swim","5.100000001490116","","F","null","77","77","1","swim-dual-task","","F","uppercase","796000","0","4","33037ff5627eef70631c4df1a69be15ba287398af4f2215d436845486b1f9c3b","796000.5","5.100000001490116","77","1","swim","","","","",""
"audio-keyboard-response","29","882843","0.0-7.0-0.0-1.0","33037ff5627eef70631c4df1a69be15ba287398af4f2215d436845486b1f9c3b","swim","swim","null","","audio/story_swim_scrambled.mp3","","null","","","","","","","","","","","","","","","","","","","",""
"html-button-response","30","1547691","0.0-7.0-0.0-2.0","33037ff5627eef70631c4df1a69be15ba287398af4f2215d436845486b1f9c3b","swim","swim","664846","","<p>This concludes the story. Thank you for listening.</p><p>You will now answer some questions about the content of the story.</p>","0","","","","","","","","","","","","","","","","","","","","",""
"survey-multi-choice","31","1550082","0.0-7.0-0.0-3.0-0.0","33037ff5627eef70631c4df1a69be15ba287398af4f2215d436845486b1f9c3b","swim","swim","2390","","<b>How did the narrator train for his swim test?</b>","","","","1","swim-comprehension","","","","","","","","","","","","","{""Q0"":""Took his kids to the pool every day""}","","","",""
"survey-multi-choice","32","1551899","0.0-7.0-0.0-3.0-0.1","33037ff5627eef70631c4df1a69be15ba287398af4f2215d436845486b1f9c3b","swim","swim","1565","","<b>How many astronaut candidates passed the first swim test?</b>","","","","1","swim-comprehension","","","","","","","","","","","","","{""Q0"":""All of them""}","","","",""
"survey-multi-choice","33","1553329","0.0-7.0-0.0-3.0-0.2","33037ff5627eef70631c4df1a69be15ba287398af4f2215d436845486b1f9c3b","swim","swim","1179","","<b>How many times did the astronaut candidates have to complete the final exercise to pass?</b>","","","","1","swim-comprehension","","","","","","","","","","","","","{""Q0"":""Two""}","","","",""
"survey-multi-choice","34","1555076","0.0-7.0-0.0-3.0-0.3","33037ff5627eef70631c4df1a69be15ba287398af4f2215d436845486b1f9c3b","swim","swim","1495","","<b>Where is the home of naval aviation?</b>","","","","1","swim-comprehension","","","","","","","","","","","","","{""Q0"":""Pensacola""}","","","",""
"survey-multi-choice","35","1556651","0.0-7.0-0.0-3.0-0.4","33037ff5627eef70631c4df1a69be15ba287398af4f2215d436845486b1f9c3b","swim","swim","1323","","<b>How often does the narrator swim, now that he is a good swimmer?</b>","","","","0","swim-comprehension","","","","","","","","","","","","","{""Q0"":""Every day at the local pool""}","","","",""
"survey-multi-choice","36","1558031","0.0-7.0-0.0-3.0-0.5","33037ff5627eef70631c4df1a69be15ba287398af4f2215d436845486b1f9c3b","swim","swim","1128","","<b>What gave the narrator his greatest feeling of accomplishment?</b>","","","","0","swim-comprehension","","","","","","","","","","","","","{""Q0"":""Raising kids""}","","","",""
"survey-multi-choice","37","1559742","0.0-7.0-0.0-3.0-0.6","33037ff5627eef70631c4df1a69be15ba287398af4f2215d436845486b1f9c3b","swim","swim","1459","","<b>What were the astronaut candidates trained to do at the naval air station?</b>","","","","0","swim-comprehension","","","","","","","","","","","","","{""Q0"":""Withstand the g-force of a rocket launch""}","","","",""
"survey-multi-choice","38","1561379","0.0-7.0-0.0-3.0-0.7","33037ff5627eef70631c4df1a69be15ba287398af4f2215d436845486b1f9c3b","swim","swim","1385","","<b>What is the narrator afraid of, aside from the water?</b>","","","","0","swim-comprehension","","","","","","","","","","","","","{""Q0"":""Loud noises""}","","","",""
"survey-multi-choice","39","1563565","0.0-7.0-0.0-3.0-0.8","33037ff5627eef70631c4df1a69be15ba287398af4f2215d436845486b1f9c3b","swim","swim","1934","","<b>What was the final step of the first swim test in the pool?</b>","","","","0","swim-comprehension","","","","","","","","","","","","","{""Q0"":""Perform a water rescue""}","","","",""
"survey-multi-choice","40","1565311","0.0-7.0-0.0-3.0-0.9","33037ff5627eef70631c4df1a69be15ba287398af4f2215d436845486b1f9c3b","swim","swim","1493","","<b>How many astronaut candidates reported for duty at the Johnson Space Center?</b>","","","","0","swim-comprehension","","","","","","","","","","","","","{""Q0"":""Two""}","","","",""
"html-button-response","41","1566498","0.0-7.0-0.0-4.0","33037ff5627eef70631c4df1a69be15ba287398af4f2215d436845486b1f9c3b","swim","swim","936","","<p>Thank you for your responses.</p><p>You will now answer some questions about your impressions of the story.</p>","0","","","","","","","","","","","","","","","","","","","","",""
"html-button-response","42","1567694","0.0-7.0-0.0-5.0-0.0","33037ff5627eef70631c4df1a69be15ba287398af4f2215d436845486b1f9c3b","swim","swim","1195","","EE2","4","","","","swim-engagement","","","","","","","","","","","","","","5","emo-engage","",""
"html-button-response","43","1568351","0.0-7.0-0.0-5.0-0.1","33037ff5627eef70631c4df1a69be15ba287398af4f2215d436845486b1f9c3b","swim","swim","406","","A2","5","","","","swim-engagement","","","","","","","","","","","","","","6","absorption","",""
"html-button-response","44","1568975","0.0-7.0-0.0-5.0-0.2","33037ff5627eef70631c4df1a69be15ba287398af4f2215d436845486b1f9c3b","swim","swim","373","","A4","6","","","","swim-engagement","","","","","","","","","","","","","","7","absorption","",""
"html-button-response","45","1569899","0.0-7.0-0.0-5.0-0.3","33037ff5627eef70631c4df1a69be15ba287398af4f2215d436845486b1f9c3b","swim","swim","673","","MS3","3","","","","swim-engagement","","","","","","","","","","","","","","4","mental-sim","",""
"html-button-response","46","1570471","0.0-7.0-0.0-5.0-0.4","33037ff5627eef70631c4df1a69be15ba287398af4f2215d436845486b1f9c3b","swim","swim","321","","E7","4","","","","swim-engagement","","","","","","","","","","","","","","5","enjoyment","",""
"html-button-response","47","1571023","0.0-7.0-0.0-5.0-0.5","33037ff5627eef70631c4df1a69be15ba287398af4f2215d436845486b1f9c3b","swim","swim","300","","EE5","5","","","","swim-engagement","","","","","","","","","","","","","","6","emo-engage","",""
"html-button-response","48","1571664","0.0-7.0-0.0-5.0-0.6","33037ff5627eef70631c4df1a69be15ba287398af4f2215d436845486b1f9c3b","swim","swim","390","","E10","3","","","","swim-engagement","","","","","","","","","","","","","","4","enjoyment","",""
"html-button-response","49","1572208","0.0-7.0-0.0-5.0-0.7","33037ff5627eef70631c4df1a69be15ba287398af4f2215d436845486b1f9c3b","swim","swim","291","","EE4","4","","","","swim-engagement","","","","","","","","","","","","","","5","emo-engage","",""
"html-button-response","50","1572753","0.0-7.0-0.0-5.0-0.8","33037ff5627eef70631c4df1a69be15ba287398af4f2215d436845486b1f9c3b","swim","swim","294","","A3","5","","","","swim-engagement","","","","","","","","","","","","","","6","absorption","",""
"html-button-response","51","1573297","0.0-7.0-0.0-5.0-0.9","33037ff5627eef70631c4df1a69be15ba287398af4f2215d436845486b1f9c3b","swim","swim","292","","MS1","3","","","","swim-engagement","","","","","","","","","","","","","","4","mental-sim","",""
"html-button-response","52","1573859","0.0-7.0-0.0-5.0-0.10","33037ff5627eef70631c4df1a69be15ba287398af4f2215d436845486b1f9c3b","swim","swim","309","","EE1","4","","","","swim-engagement","","","","","","","","","","","","","","5","emo-engage","",""
"html-button-response","53","1574439","0.0-7.0-0.0-5.0-0.11","33037ff5627eef70631c4df1a69be15ba287398af4f2215d436845486b1f9c3b","swim","swim","328","","MS2","3","","","","swim-engagement","","","","","","","","","","","","","","4","mental-sim","",""
"html-button-response","54","1574980","0.0-7.0-0.0-5.0-0.12","33037ff5627eef70631c4df1a69be15ba287398af4f2215d436845486b1f9c3b","swim","swim","289","","E1","4","","","","swim-engagement","","","","","","","","","","","","","","5","enjoyment","",""
"html-button-response","55","1575597","0.0-7.0-0.0-5.0-0.13","33037ff5627eef70631c4df1a69be15ba287398af4f2215d436845486b1f9c3b","swim","swim","365","","E6","2","","","","swim-engagement","","","","","","","","","","","","","","3","enjoyment","",""
"html-button-response","56","1576151","0.0-7.0-0.0-5.0-0.14","33037ff5627eef70631c4df1a69be15ba287398af4f2215d436845486b1f9c3b","swim","swim","302","","E8","4","","","","swim-engagement","","","","","","","","","","","","","","5","enjoyment","",""
"html-button-response","57","1576689","0.0-7.0-0.0-5.0-0.15","33037ff5627eef70631c4df1a69be15ba287398af4f2215d436845486b1f9c3b","swim","swim","287","","EE3","3","","","","swim-engagement","","","","","","","","","","","","","","4","emo-engage","",""
"html-button-response","58","1577582","0.0-7.0-0.0-5.0-0.16","33037ff5627eef70631c4df1a69be15ba287398af4f2215d436845486b1f9c3b","swim","swim","642","","A1","5","","","","swim-engagement","","","","","","","","","","","","","","6","absorption","",""
"html-button-response","59","1578166","0.0-7.0-0.0-5.0-0.17","33037ff5627eef70631c4df1a69be15ba287398af4f2215d436845486b1f9c3b","swim","swim","333","","A5","4","","","","swim-engagement","","","","","","","","","","","","","","5","absorption","",""
"html-keyboard-response","60","1597674","0.0-7.0-1.0","33037ff5627eef70631c4df1a69be15ba287398af4f2215d436845486b1f9c3b","swim","swim","19257","","<p>Thank you for your responses. You will now listen to the second story.</p><p>Remember, as you listen to the story you will see letters appear on the screen.</br>As quickly as possible, press <b>&lt;x&gt;</b> if the letter is lowercase and <b>&lt;m&gt;</b> if the letter is uppercase.</p><p>Press <b>&lt;x&gt;</b> or <b>&lt;m&gt;</b> to begin listening!</p>","","88","","","","","","","","","","","","","","","","","","","",""
"html-keyboard-response","61","1598175","0.0-7.0-2.0-0.0","33037ff5627eef70631c4df1a69be15ba287398af4f2215d436845486b1f9c3b","swim","swim","null","","<div style=""font-size:60px;"" tabindex=""0"">+</div>","","null","","","","","","","","","","","","","","","","","","","",""
"dual-task","null","null","null","","swim","swim","1.1000000014901161","","r","null","77","88","0","arctic-dual-task","","r","lowercase","16000","0","4","33037ff5627eef70631c4df1a69be15ba287398af4f2215d436845486b1f9c3b","16000.79999999702","1.1000000014901161","77","0","arctic","","","","",""
"dual-task","null","null","null","","swim","swim","3.199999999254942","","h","null","88","88","1","arctic-dual-task","","h","lowercase","22000","0","4","33037ff5627eef70631c4df1a69be15ba287398af4f2215d436845486b1f9c3b","21999.599999997765","3.199999999254942","88","1","arctic","","","","",""
"dual-task","null","null","null","","swim","swim","2.699999999254942","","R","null","77","77","1","arctic-dual-task","","R","uppercase","30000","0","4","33037ff5627eef70631c4df1a69be15ba287398af4f2215d436845486b1f9c3b","30002","2.699999999254942","77","1","arctic","","","","",""
"dual-task","null","null","null","","swim","swim","1.4000000022351742","","b","null","77","88","0","arctic-dual-task","","b","lowercase","40000","0","4","33037ff5627eef70631c4df1a69be15ba287398af4f2215d436845486b1f9c3b","40000.29999999702","1.4000000022351742","77","0","arctic","","","","",""
"dual-task","null","null","null","","swim","swim","3.2999999970197678","","d","null","88","88","1","arctic-dual-task","","d","lowercase","52000","0","4","33037ff5627eef70631c4df1a69be15ba287398af4f2215d436845486b1f9c3b","52000.5","3.2999999970197678","88","1","arctic","","","","",""
"dual-task","null","null","null","","swim","swim","2.5","","N","null","77","77","1","arctic-dual-task","","N","uppercase","60000","0","4","33037ff5627eef70631c4df1a69be15ba287398af4f2215d436845486b1f9c3b","60002.89999999851","2.5","77","1","arctic","","","","",""
"dual-task","null","null","null","","swim","swim","1.5","","D","null","77","77","1","arctic-dual-task","","D","uppercase","66000","0","4","33037ff5627eef70631c4df1a69be15ba287398af4f2215d436845486b1f9c3b","66000.09999999776","1.5","77","1","arctic","","","","",""
"dual-task","null","null","null","","swim","swim","4.600000001490116","","A","null","88","77","0","arctic-dual-task","","A","uppercase","74000","0","4","33037ff5627eef70631c4df1a69be15ba287398af4f2215d436845486b1f9c3b","73999.79999999702","4.600000001490116","88","0","arctic","","","","",""
"dual-task","null","null","null","","swim","swim","4.200000002980232","","r","null","88","88","1","arctic-dual-task","","r","lowercase","80000","0","4","33037ff5627eef70631c4df1a69be15ba287398af4f2215d436845486b1f9c3b","80000.69999999925","4.200000002980232","88","1","arctic","","","","",""
"dual-task","null","null","null","","swim","swim","2.5","","H","null","77","77","1","arctic-dual-task","","H","uppercase","94000","0","4","33037ff5627eef70631c4df1a69be15ba287398af4f2215d436845486b1f9c3b","94000.69999999925","2.5","77","1","arctic","","","","",""
"dual-task","null","null","null","","swim","swim","2.699999999254942","","e","null","77","88","0","arctic-dual-task","","e","lowercase","106000","0","4","33037ff5627eef70631c4df1a69be15ba287398af4f2215d436845486b1f9c3b","106000.09999999776","2.699999999254942","77","0","arctic","","","","",""
"dual-task","null","null","null","","swim","swim","1.5","","e","null","77","88","0","arctic-dual-task","","e","lowercase","118000","0","4","33037ff5627eef70631c4df1a69be15ba287398af4f2215d436845486b1f9c3b","117999.89999999851","1.5","77","0","arctic","","","","",""
"dual-task","null","null","null","","swim","swim","1.3999999985098839","","A","null","77","77","1","arctic-dual-task","","A","uppercase","130000","0","4","33037ff5627eef70631c4df1a69be15ba287398af4f2215d436845486b1f9c3b","130000","1.3999999985098839","77","1","arctic","","","","",""
"dual-task","null","null","null","","swim","swim","1.5","","g","null","77","88","0","arctic-dual-task","","g","lowercase","142000","0","4","33037ff5627eef70631c4df1a69be15ba287398af4f2215d436845486b1f9c3b","142000.69999999925","1.5","77","0","arctic","","","","",""
"dual-task","null","null","null","","swim","swim","3.199999999254942","","q","null","88","88","1","arctic-dual-task","","q","lowercase","156000","0","4","33037ff5627eef70631c4df1a69be15ba287398af4f2215d436845486b1f9c3b","156000.59999999776","3.199999999254942","88","1","arctic","","","","",""
"dual-task","null","null","null","","swim","swim","6","","D","null","88","77","0","arctic-dual-task","","D","uppercase","162000","0","4","33037ff5627eef70631c4df1a69be15ba287398af4f2215d436845486b1f9c3b","162000.29999999702","6","88","0","arctic","","","","",""
"dual-task","null","null","null","","swim","swim","2.2999999970197678","","q","null","77","88","0","arctic-dual-task","","q","lowercase","176000","0","4","33037ff5627eef70631c4df1a69be15ba287398af4f2215d436845486b1f9c3b","176000","2.2999999970197678","77","0","arctic","","","","",""
"dual-task","null","null","null","","swim","swim","2.100000001490116","","b","null","77","88","0","arctic-dual-task","","b","lowercase","184000","0","4","33037ff5627eef70631c4df1a69be15ba287398af4f2215d436845486b1f9c3b","184001.09999999776","2.100000001490116","77","0","arctic","","","","",""
"dual-task","null","null","null","","swim","swim","4.300000000745058","","b","null","88","88","1","arctic-dual-task","","b","lowercase","192000","0","4","33037ff5627eef70631c4df1a69be15ba287398af4f2215d436845486b1f9c3b","191999.79999999702","4.300000000745058","88","1","arctic","","","","",""
"dual-task","null","null","null","","swim","swim","1.300000000745058","","E","null","77","77","1","arctic-dual-task","","E","uppercase","206000","0","4","33037ff5627eef70631c4df1a69be15ba287398af4f2215d436845486b1f9c3b","206000.19999999925","1.300000000745058","77","1","arctic","","","","",""
"dual-task","null","null","null","","swim","swim","6.199999999254942","","T","null","88","77","0","arctic-dual-task","","T","uppercase","216000","0","4","33037ff5627eef70631c4df1a69be15ba287398af4f2215d436845486b1f9c3b","216000.19999999925","6.199999999254942","88","0","arctic","","","","",""
"dual-task","null","null","null","","swim","swim","6","","d","null","88","88","1","arctic-dual-task","","d","lowercase","226000","0","4","33037ff5627eef70631c4df1a69be15ba287398af4f2215d436845486b1f9c3b","225999.8999999985","6","88","1","arctic","","","","",""
"dual-task","null","null","null","","swim","swim","2.899999998509884","","g","null","77","88","0","arctic-dual-task","","g","lowercase","238000","0","4","33037ff5627eef70631c4df1a69be15ba287398af4f2215d436845486b1f9c3b","237999.79999999702","2.899999998509884","77","0","arctic","","","","",""
"dual-task","null","null","null","","swim","swim","1.6000000014901161","","n","null","77","88","0","arctic-dual-task","","n","lowercase","252000","0","4","33037ff5627eef70631c4df1a69be15ba287398af4f2215d436845486b1f9c3b","252000.09999999776","1.6000000014901161","77","0","arctic","","","","",""
"dual-task","null","null","null","","swim","swim","1.6000000014901161","","f","null","77","88","0","arctic-dual-task","","f","lowercase","262000","0","4","33037ff5627eef70631c4df1a69be15ba287398af4f2215d436845486b1f9c3b","262000.09999999776","1.6000000014901161","77","0","arctic","","","","",""
"dual-task","null","null","null","","swim","swim","5.600000001490116","","G","null","88","77","0","arctic-dual-task","","G","uppercase","272000","0","4","33037ff5627eef70631c4df1a69be15ba287398af4f2215d436845486b1f9c3b","272000.299999997","5.600000001490116","88","0","arctic","","","","",""
"dual-task","null","null","null","","swim","swim","2.7999999970197678","","a","null","77","88","0","arctic-dual-task","","a","lowercase","280000","0","4","33037ff5627eef70631c4df1a69be15ba287398af4f2215d436845486b1f9c3b","280000.5","2.7999999970197678","77","0","arctic","","","","",""
"dual-task","null","null","null","","swim","swim","2.399999998509884","","Q","null","77","77","1","arctic-dual-task","","Q","uppercase","288000","0","4","33037ff5627eef70631c4df1a69be15ba287398af4f2215d436845486b1f9c3b","288000.799999997","2.399999998509884","77","1","arctic","","","","",""
"dual-task","null","null","null","","swim","swim","1.3999999985098839","","N","null","77","77","1","arctic-dual-task","","N","uppercase","294000","0","4","33037ff5627eef70631c4df1a69be15ba287398af4f2215d436845486b1f9c3b","294000.3999999985","1.3999999985098839","77","1","arctic","","","","",""
"dual-task","null","null","null","","swim","swim","2.699999999254942","","h","null","77","88","0","arctic-dual-task","","h","lowercase","302000","0","4","33037ff5627eef70631c4df1a69be15ba287398af4f2215d436845486b1f9c3b","302000.799999997","2.699999999254942","77","0","arctic","","","","",""
"dual-task","null","null","null","","swim","swim","3.399999998509884","","t","null","88","88","1","arctic-dual-task","","t","lowercase","308000","0","4","33037ff5627eef70631c4df1a69be15ba287398af4f2215d436845486b1f9c3b","307999.8999999985","3.399999998509884","88","1","arctic","","","","",""
"dual-task","null","null","null","","swim","swim","4.800000000745058","","a","null","88","88","1","arctic-dual-task","","a","lowercase","318000","0","4","33037ff5627eef70631c4df1a69be15ba287398af4f2215d436845486b1f9c3b","318000.59999999776","4.800000000745058","88","1","arctic","","","","",""
"dual-task","null","null","null","","swim","swim","1.4000000022351742","","Q","null","77","77","1","arctic-dual-task","","Q","uppercase","324000","0","4","33037ff5627eef70631c4df1a69be15ba287398af4f2215d436845486b1f9c3b","324000.299999997","1.4000000022351742","77","1","arctic","","","","",""
"dual-task","null","null","null","","swim","swim","3","","N","null","77","77","1","arctic-dual-task","","N","uppercase","330000","0","4","33037ff5627eef70631c4df1a69be15ba287398af4f2215d436845486b1f9c3b","330000.299999997","3","77","1","arctic","","","","",""
"dual-task","null","null","null","","swim","swim","1.300000000745058","","E","null","77","77","1","arctic-dual-task","","E","uppercase","338000","0","4","33037ff5627eef70631c4df1a69be15ba287398af4f2215d436845486b1f9c3b","338001.3999999985","1.300000000745058","77","1","arctic","","","","",""
"dual-task","null","null","null","","swim","swim","0.5","","d","null","77","88","0","arctic-dual-task","","d","lowercase","348000","0","4","33037ff5627eef70631c4df1a69be15ba287398af4f2215d436845486b1f9c3b","348000.3999999985","0.5","77","0","arctic","","","","",""
"dual-task","null","null","null","","swim","swim","3.2000000029802322","","a","null","88","88","1","arctic-dual-task","","a","lowercase","362000","0","4","33037ff5627eef70631c4df1a69be15ba287398af4f2215d436845486b1f9c3b","362000.799999997","3.2000000029802322","88","1","arctic","","","","",""
"dual-task","null","null","null","","swim","swim","3.199999999254942","","D","null","88","77","0","arctic-dual-task","","D","uppercase","374000","0","4","33037ff5627eef70631c4df1a69be15ba287398af4f2215d436845486b1f9c3b","374000.5","3.199999999254942","88","0","arctic","","","","",""
"dual-task","null","null","null","","swim","swim","1.6000000014901161","","B","null","77","77","1","arctic-dual-task","","B","uppercase","384000","0","4","33037ff5627eef70631c4df1a69be15ba287398af4f2215d436845486b1f9c3b","384000.3999999985","1.6000000014901161","77","1","arctic","","","","",""
"dual-task","null","null","null","","swim","swim","1.5","","E","null","77","77","1","arctic-dual-task","","E","uppercase","390000","0","4","33037ff5627eef70631c4df1a69be15ba287398af4f2215d436845486b1f9c3b","390001.19999999925","1.5","77","1","arctic","","","","",""
"dual-task","null","null","null","","swim","swim","1.5","","N","null","88","77","0","arctic-dual-task","","N","uppercase","402000","0","4","33037ff5627eef70631c4df1a69be15ba287398af4f2215d436845486b1f9c3b","401999.799999997","1.5","88","0","arctic","","","","",""
"dual-task","null","null","null","","swim","swim","1.5","","E","null","77","77","1","arctic-dual-task","","E","uppercase","410000","0","4","33037ff5627eef70631c4df1a69be15ba287398af4f2215d436845486b1f9c3b","410000","1.5","77","1","arctic","","","","",""
"dual-task","null","null","null","","swim","swim","1.3999999985098839","","g","null","77","88","0","arctic-dual-task","","g","lowercase","416000","0","4","33037ff5627eef70631c4df1a69be15ba287398af4f2215d436845486b1f9c3b","416001.09999999776","1.3999999985098839","77","0","arctic","","","","",""
"dual-task","null","null","null","","swim","swim","3.199999999254942","","n","null","77","88","0","arctic-dual-task","","n","lowercase","426000","0","4","33037ff5627eef70631c4df1a69be15ba287398af4f2215d436845486b1f9c3b","426000.69999999925","3.199999999254942","77","0","arctic","","","","",""
"dual-task","null","null","null","","swim","swim","2.899999998509884","","R","null","77","77","1","arctic-dual-task","","R","uppercase","434000","0","4","33037ff5627eef70631c4df1a69be15ba287398af4f2215d436845486b1f9c3b","434000.299999997","2.899999998509884","77","1","arctic","","","","",""
"dual-task","null","null","null","","swim","swim","2.600000001490116","","g","null","77","88","0","arctic-dual-task","","g","lowercase","444000","0","4","33037ff5627eef70631c4df1a69be15ba287398af4f2215d436845486b1f9c3b","444002","2.600000001490116","77","0","arctic","","","","",""
"dual-task","null","null","null","","swim","swim","5.899999998509884","","T","null","88","77","0","arctic-dual-task","","T","uppercase","458000","0","4","33037ff5627eef70631c4df1a69be15ba287398af4f2215d436845486b1f9c3b","458001.19999999925","5.899999998509884","88","0","arctic","","","","",""
"dual-task","null","null","null","","swim","swim","1","","h","null","77","88","0","arctic-dual-task","","h","lowercase","466000","0","4","33037ff5627eef70631c4df1a69be15ba287398af4f2215d436845486b1f9c3b","466000.19999999925","1","77","0","arctic","","","","",""
"dual-task","null","null","null","","swim","swim","2.699999999254942","","e","null","77","88","0","arctic-dual-task","","e","lowercase","478000","0","4","33037ff5627eef70631c4df1a69be15ba287398af4f2215d436845486b1f9c3b","478000","2.699999999254942","77","0","arctic","","","","",""
"dual-task","null","null","null","","swim","swim","2.800000000745058","","B","null","77","77","1","arctic-dual-task","","B","uppercase","492000","0","4","33037ff5627eef70631c4df1a69be15ba287398af4f2215d436845486b1f9c3b","492001.69999999925","2.800000000745058","77","1","arctic","","","","",""
"dual-task","null","null","null","","swim","swim","1.5","","h","null","77","88","0","arctic-dual-task","","h","lowercase","506000","0","4","33037ff5627eef70631c4df1a69be15ba287398af4f2215d436845486b1f9c3b","506000.69999999925","1.5","77","0","arctic","","","","",""
"dual-task","null","null","null","","swim","swim","2.199999999254942","","n","null","77","88","0","arctic-dual-task","","n","lowercase","520000","0","4","33037ff5627eef70631c4df1a69be15ba287398af4f2215d436845486b1f9c3b","520001.59999999776","2.199999999254942","77","0","arctic","","","","",""
"dual-task","null","null","null","","swim","swim","4.800000000745058","","f","null","88","88","1","arctic-dual-task","","f","lowercase","532000","0","4","33037ff5627eef70631c4df1a69be15ba287398af4f2215d436845486b1f9c3b","532001","4.800000000745058","88","1","arctic","","","","",""
"dual-task","null","null","null","","swim","swim","1.3999999985098839","","F","null","77","77","1","arctic-dual-task","","F","uppercase","544000","0","4","33037ff5627eef70631c4df1a69be15ba287398af4f2215d436845486b1f9c3b","544000.799999997","1.3999999985098839","77","1","arctic","","","","",""
"dual-task","null","null","null","","swim","swim","1.199999999254942","","B","null","77","77","1","arctic-dual-task","","B","uppercase","550000","0","4","33037ff5627eef70631c4df1a69be15ba287398af4f2215d436845486b1f9c3b","550000.1999999993","1.199999999254942","77","1","arctic","","","","",""
"dual-task","null","null","null","","swim","swim","5.699999999254942","","D","null","88","77","0","arctic-dual-task","","D","uppercase","558000","0","4","33037ff5627eef70631c4df1a69be15ba287398af4f2215d436845486b1f9c3b","558000.5999999978","5.699999999254942","88","0","arctic","","","","",""
"dual-task","null","null","null","","swim","swim","3.2999999970197678","","t","null","77","88","0","arctic-dual-task","","t","lowercase","566000","0","4","33037ff5627eef70631c4df1a69be15ba287398af4f2215d436845486b1f9c3b","566000.8999999985","3.2999999970197678","77","0","arctic","","","","",""
"dual-task","null","null","null","","swim","swim","2.199999999254942","","q","null","77","88","0","arctic-dual-task","","q","lowercase","580000","0","4","33037ff5627eef70631c4df1a69be15ba287398af4f2215d436845486b1f9c3b","580000.8999999985","2.199999999254942","77","0","arctic","","","","",""
"dual-task","null","null","null","","swim","swim","1.3999999985098839","","G","null","77","77","1","arctic-dual-task","","G","uppercase","588000","0","4","33037ff5627eef70631c4df1a69be15ba287398af4f2215d436845486b1f9c3b","588000.1999999993","1.3999999985098839","77","1","arctic","","","","",""
"dual-task","null","null","null","","swim","swim","2.800000000745058","","a","null","77","88","0","arctic-dual-task","","a","lowercase","598000","0","4","33037ff5627eef70631c4df1a69be15ba287398af4f2215d436845486b1f9c3b","598000.8999999985","2.800000000745058","77","0","arctic","","","","",""
"dual-task","null","null","null","","swim","swim","1.1000000014901161","","R","null","88","77","0","arctic-dual-task","","R","uppercase","606000","0","4","33037ff5627eef70631c4df1a69be15ba287398af4f2215d436845486b1f9c3b","606000.5","1.1000000014901161","88","0","arctic","","","","",""
"dual-task","null","null","null","","swim","swim","4.399999998509884","","Q","null","88","77","0","arctic-dual-task","","Q","uppercase","616000","0","4","33037ff5627eef70631c4df1a69be15ba287398af4f2215d436845486b1f9c3b","615999.8999999985","4.399999998509884","88","0","arctic","","","","",""
"dual-task","null","null","null","","swim","swim","1.8999999985098839","","B","null","88","77","0","arctic-dual-task","","B","uppercase","630000","0","4","33037ff5627eef70631c4df1a69be15ba287398af4f2215d436845486b1f9c3b","629999.8999999985","1.8999999985098839","88","0","arctic","","","","",""
"dual-task","null","null","null","","swim","swim","1.3999999985098839","","b","null","77","88","0","arctic-dual-task","","b","lowercase","640000","0","4","33037ff5627eef70631c4df1a69be15ba287398af4f2215d436845486b1f9c3b","640000.6999999993","1.3999999985098839","77","0","arctic","","","","",""
"dual-task","null","null","null","","swim","swim","2.7999999970197678","","F","null","77","77","1","arctic-dual-task","","F","uppercase","652000","0","4","33037ff5627eef70631c4df1a69be15ba287398af4f2215d436845486b1f9c3b","652000.3999999985","2.7999999970197678","77","1","arctic","","","","",""
"dual-task","null","null","null","","swim","swim","2.800000000745058","","e","null","77","88","0","arctic-dual-task","","e","lowercase","666000","0","4","33037ff5627eef70631c4df1a69be15ba287398af4f2215d436845486b1f9c3b","666002.5999999978","2.800000000745058","77","0","arctic","","","","",""
"dual-task","null","null","null","","swim","swim","1.0999999977648258","","f","null","88","88","1","arctic-dual-task","","f","lowercase","676000","0","4","33037ff5627eef70631c4df1a69be15ba287398af4f2215d436845486b1f9c3b","676000","1.0999999977648258","88","1","arctic","","","","",""
"dual-task","null","null","null","","swim","swim","2.399999998509884","","n","null","77","88","0","arctic-dual-task","","n","lowercase","684000","0","4","33037ff5627eef70631c4df1a69be15ba287398af4f2215d436845486b1f9c3b","684000.1999999993","2.399999998509884","77","0","arctic","","","","",""
"dual-task","null","null","null","","swim","swim","4.199999999254942","","G","null","88","77","0","arctic-dual-task","","G","uppercase","694000","0","4","33037ff5627eef70631c4df1a69be15ba287398af4f2215d436845486b1f9c3b","694001.1999999993","4.199999999254942","88","0","arctic","","","","",""
"dual-task","null","null","null","","swim","swim","3.100000001490116","","t","null","77","88","0","arctic-dual-task","","t","lowercase","706000","0","4","33037ff5627eef70631c4df1a69be15ba287398af4f2215d436845486b1f9c3b","706000.5999999978","3.100000001490116","77","0","arctic","","","","",""
"dual-task","null","null","null","","swim","swim","1.300000000745058","","A","null","88","77","0","arctic-dual-task","","A","uppercase","714000","0","4","33037ff5627eef70631c4df1a69be15ba287398af4f2215d436845486b1f9c3b","714000.1999999993","1.300000000745058","88","0","arctic","","","","",""
"dual-task","null","null","null","","swim","swim","1.6000000014901161","","t","null","77","88","0","arctic-dual-task","","t","lowercase","728000","0","4","33037ff5627eef70631c4df1a69be15ba287398af4f2215d436845486b1f9c3b","728000.3999999985","1.6000000014901161","77","0","arctic","","","","",""
"dual-task","null","null","null","","swim","swim","1.800000000745058","","q","null","77","88","0","arctic-dual-task","","q","lowercase","742000","0","4","33037ff5627eef70631c4df1a69be15ba287398af4f2215d436845486b1f9c3b","742000.0999999978","1.800000000745058","77","0","arctic","","","","",""
"dual-task","null","null","null","","swim","swim","2.899999998509884","","F","null","77","77","1","arctic-dual-task","","F","uppercase","756000","0","4","33037ff5627eef70631c4df1a69be15ba287398af4f2215d436845486b1f9c3b","756001.6999999993","2.899999998509884","77","1","arctic","","","","",""
"dual-task","null","null","null","","swim","swim","1.300000000745058","","r","null","77","88","0","arctic-dual-task","","r","lowercase","762000","0","4","33037ff5627eef70631c4df1a69be15ba287398af4f2215d436845486b1f9c3b","762000.8999999985","1.300000000745058","77","0","arctic","","","","",""
"dual-task","null","null","null","","swim","swim","2.7999999970197678","","f","null","77","88","0","arctic-dual-task","","f","lowercase","770000","0","4","33037ff5627eef70631c4df1a69be15ba287398af4f2215d436845486b1f9c3b","770002","2.7999999970197678","77","0","arctic","","","","",""
"dual-task","null","null","null","","swim","swim","2.699999999254942","","R","null","77","77","1","arctic-dual-task","","R","uppercase","776000","0","4","33037ff5627eef70631c4df1a69be15ba287398af4f2215d436845486b1f9c3b","776001.5999999978","2.699999999254942","77","1","arctic","","","","",""
"dual-task","null","null","null","","swim","swim","1.300000000745058","","H","null","77","77","1","arctic-dual-task","","H","uppercase","784000","0","4","33037ff5627eef70631c4df1a69be15ba287398af4f2215d436845486b1f9c3b","784001.0999999978","1.300000000745058","77","1","arctic","","","","",""
"audio-keyboard-response","62","2396215","0.0-7.0-2.0-1.0","33037ff5627eef70631c4df1a69be15ba287398af4f2215d436845486b1f9c3b","swim","swim","null","","audio/story_arctic.mp3","","null","","","","","","","","","","","","","","","","","","","",""
"html-button-response","63","2400158","0.0-7.0-2.0-2.0","33037ff5627eef70631c4df1a69be15ba287398af4f2215d436845486b1f9c3b","swim","swim","3943","","<p>This concludes the story. Thank you for listening.</p><p>You will now answer some questions about the content of the story.</p>","0","","","","","","","","","","","","","","","","","","","","",""
"survey-multi-choice","64","2402726","0.0-7.0-2.0-3.0-0.0","33037ff5627eef70631c4df1a69be15ba287398af4f2215d436845486b1f9c3b","swim","swim","2566","","<b>Which dog on the narrator&#39;s dog team never followed instructions?</b>","","","","0","arctic-comprehension","","","","","","","","","","","","","{""Q0"":""Douggie-dog""}","","","",""
"survey-multi-choice","65","2404500","0.0-7.0-2.0-3.0-0.1","33037ff5627eef70631c4df1a69be15ba287398af4f2215d436845486b1f9c3b","swim","swim","1521","","<b>What is the name of the narrator&#39;s neighbour?</b>","","","","0","arctic-comprehension","","","","","","","","","","","","","{""Q0"":""Andrew""}","","","",""
"survey-multi-choice","66","2405742","0.0-7.0-2.0-3.0-0.2","33037ff5627eef70631c4df1a69be15ba287398af4f2215d436845486b1f9c3b","swim","swim","991","","<b>What was the objective of the narrator&#39;s expedition?</b>","","","","0","arctic-comprehension","","","","","","","","","","","","","{""Q0"":""Dogsled across Greenland""}","","","",""
"survey-multi-choice","67","2407436","0.0-7.0-2.0-3.0-0.3","33037ff5627eef70631c4df1a69be15ba287398af4f2215d436845486b1f9c3b","swim","swim","1443","","<b>How many sponsorships did the narrator receive to support her expedition?</b>","","","","0","arctic-comprehension","","","","","","","","","","","","","{""Q0"":""Fifty""}","","","",""
"survey-multi-choice","68","2408813","0.0-7.0-2.0-3.0-0.4","33037ff5627eef70631c4df1a69be15ba287398af4f2215d436845486b1f9c3b","swim","swim","1125","","<b>How did the narrator&#39;s encounter with the polar bears end?</b>","","","","0","arctic-comprehension","","","","","","","","","","","","","{""Q0"":""The bear killed one of her dogs.""}","","","",""
"survey-multi-choice","69","2410326","0.0-7.0-2.0-3.0-0.5","33037ff5627eef70631c4df1a69be15ba287398af4f2215d436845486b1f9c3b","swim","swim","1262","","<b>How did the narrator&#39;s neighbour respond when she told him about her expedition?</b>","","","","0","arctic-comprehension","","","","","","","","","","","","","{""Q0"":""He threw her a party.""}","","","",""
"survey-multi-choice","70","2411738","0.0-7.0-2.0-3.0-0.6","33037ff5627eef70631c4df1a69be15ba287398af4f2215d436845486b1f9c3b","swim","swim","1160","","<b>What were the weather conditions in the Arctic like the winter of the narrator&#39;s expedition?</b>","","","","0","arctic-comprehension","","","","","","","","","","","","","{""Q0"":""It was the coldest winter in recorded history.""}","","","",""
"survey-multi-choice","71","2413525","0.0-7.0-2.0-3.0-0.7","33037ff5627eef70631c4df1a69be15ba287398af4f2215d436845486b1f9c3b","swim","swim","1533","","<b>What did the narrator do for leisure while in her tent?</b>","","","","1","arctic-comprehension","","","","","","","","","","","","","{""Q0"":""Read""}","","","",""
"survey-multi-choice","72","2415043","0.0-7.0-2.0-3.0-0.8","33037ff5627eef70631c4df1a69be15ba287398af4f2215d436845486b1f9c3b","swim","swim","1265","","<b>How did the narrator prepare for her expedition?</b>","","","","0","arctic-comprehension","","","","","","","","","","","","","{""Q0"":""Exercised several hours each day""}","","","",""
"survey-multi-choice","73","2416494","0.0-7.0-2.0-3.0-0.9","33037ff5627eef70631c4df1a69be15ba287398af4f2215d436845486b1f9c3b","swim","swim","1194","","<b>How did the dogs respond when they saw the bears?</b>","","","","1","arctic-comprehension","","","","","","","","","","","","","{""Q0"":""Approached them""}","","","",""
"html-button-response","74","2418101","0.0-7.0-2.0-4.0","33037ff5627eef70631c4df1a69be15ba287398af4f2215d436845486b1f9c3b","swim","swim","1341","","<p>Thank you for your responses.</p><p>You will now answer some questions about your impressions of the story.</p>","0","","","","","","","","","","","","","","","","","","","","",""
"html-button-response","75","2419288","0.0-7.0-2.0-5.0-0.0","33037ff5627eef70631c4df1a69be15ba287398af4f2215d436845486b1f9c3b","swim","swim","1186","","EE2","2","","","","arctic-engagement","","","","","","","","","","","","","","3","emo-engage","",""
"html-button-response","76","2419972","0.0-7.0-2.0-5.0-0.1","33037ff5627eef70631c4df1a69be15ba287398af4f2215d436845486b1f9c3b","swim","swim","433","","E7","4","","","","arctic-engagement","","","","","","","","","","","","","","5","enjoyment","",""
"html-button-response","77","2420469","0.0-7.0-2.0-5.0-0.2","33037ff5627eef70631c4df1a69be15ba287398af4f2215d436845486b1f9c3b","swim","swim","245","","E10","3","","","","arctic-engagement","","","","","","","","","","","","","","4","enjoyment","",""
"html-button-response","78","2421008","0.0-7.0-2.0-5.0-0.3","33037ff5627eef70631c4df1a69be15ba287398af4f2215d436845486b1f9c3b","swim","swim","288","","EE3","6","","","","arctic-engagement","","","","","","","","","","","","","","7","emo-engage","",""
"html-button-response","79","2421617","0.0-7.0-2.0-5.0-0.4","33037ff5627eef70631c4df1a69be15ba287398af4f2215d436845486b1f9c3b","swim","swim","357","","MS2","5","","","","arctic-engagement","","","","","","","","","","","","","","6","mental-sim","",""
"html-button-response","80","2422507","0.0-7.0-2.0-5.0-0.5","33037ff5627eef70631c4df1a69be15ba287398af4f2215d436845486b1f9c3b","swim","swim","639","","A4","4","","","","arctic-engagement","","","","","","","","","","","","","","5","absorption","",""
"html-button-response","81","2422994","0.0-7.0-2.0-5.0-0.6","33037ff5627eef70631c4df1a69be15ba287398af4f2215d436845486b1f9c3b","swim","swim","235","","A5","5","","","","arctic-engagement","","","","","","","","","","","","","","6","absorption","",""
"html-button-response","82","2423858","0.0-7.0-2.0-5.0-0.7","33037ff5627eef70631c4df1a69be15ba287398af4f2215d436845486b1f9c3b","swim","swim","611","","A2","4","","","","arctic-engagement","","","","","","","","","","","","","","5","absorption","",""
"html-button-response","83","2424466","0.0-7.0-2.0-5.0-0.8","33037ff5627eef70631c4df1a69be15ba287398af4f2215d436845486b1f9c3b","swim","swim","357","","EE1","3","","","","arctic-engagement","","","","","","","","","","","","","","4","emo-engage","",""
"html-button-response","84","2425808","0.0-7.0-2.0-5.0-0.9","33037ff5627eef70631c4df1a69be15ba287398af4f2215d436845486b1f9c3b","swim","swim","1090","","MS3","6","","","","arctic-engagement","","","","","","","","","","","","","","7","mental-sim","",""
"html-button-response","85","2426670","0.0-7.0-2.0-5.0-0.10","33037ff5627eef70631c4df1a69be15ba287398af4f2215d436845486b1f9c3b","swim","swim","610","","EE4","4","","","","arctic-engagement","","","","","","","","","","","","","","5","emo-engage","",""
"html-button-response","86","2427250","0.0-7.0-2.0-5.0-0.11","33037ff5627eef70631c4df1a69be15ba287398af4f2215d436845486b1f9c3b","swim","swim","328","","A3","5","","","","arctic-engagement","","","","","","","","","","","","","","6","absorption","",""
"html-button-response","87","2427832","0.0-7.0-2.0-5.0-0.12","33037ff5627eef70631c4df1a69be15ba287398af4f2215d436845486b1f9c3b","swim","swim","332","","MS1","6","","","","arctic-engagement","","","","","","","","","","","","","","7","mental-sim","",""
"html-button-response","88","2428664","0.0-7.0-2.0-5.0-0.13","33037ff5627eef70631c4df1a69be15ba287398af4f2215d436845486b1f9c3b","swim","swim","580","","EE5","5","","","","arctic-engagement","","","","","","","","","","","","","","6","emo-engage","",""
"html-button-response","89","2429339","0.0-7.0-2.0-5.0-0.14","33037ff5627eef70631c4df1a69be15ba287398af4f2215d436845486b1f9c3b","swim","swim","424","","A1","4","","","","arctic-engagement","","","","","","","","","","","","","","5","absorption","",""
"html-button-response","90","2430088","0.0-7.0-2.0-5.0-0.15","33037ff5627eef70631c4df1a69be15ba287398af4f2215d436845486b1f9c3b","swim","swim","497","","E1","3","","","","arctic-engagement","","","","","","","","","","","","","","4","enjoyment","",""
"html-button-response","91","2430639","0.0-7.0-2.0-5.0-0.16","33037ff5627eef70631c4df1a69be15ba287398af4f2215d436845486b1f9c3b","swim","swim","300","","E8","5","","","","arctic-engagement","","","","","","","","","","","","","","6","enjoyment","",""
"html-button-response","92","2431191","0.0-7.0-2.0-5.0-0.17","33037ff5627eef70631c4df1a69be15ba287398af4f2215d436845486b1f9c3b","swim","swim","301","","E6","4","","","","arctic-engagement","","","","","","","","","","","","","","5","enjoyment","",""
"html-button-response","93","2432451","0.0-8.0","33037ff5627eef70631c4df1a69be15ba287398af4f2215d436845486b1f9c3b","swim","swim","1008","","<p>Thank you for your responses.</p><p>You will now answer some demographic, hearing, and general health questions.</p>","0","","","","","","","","","","","","","","","","","","","","",""
"survey-multi-choice","94","2437350","0.0-9.0-0.0","33037ff5627eef70631c4df1a69be15ba287398af4f2215d436845486b1f9c3b","swim","swim","4899","","","","","","","survey","","","","","","","","","","","","","{""Q0"":""Chrome""}","","","browser",""
"survey-text","95","2440575","0.0-9.0-1.0","33037ff5627eef70631c4df1a69be15ba287398af4f2215d436845486b1f9c3b","swim","swim","2971.60000000149","","","","","","","survey","","","","","","","","","","","","","{""AGE"":""30""}","","","age","30"
"survey-multi-choice","96","2442742","0.0-9.0-2.0","33037ff5627eef70631c4df1a69be15ba287398af4f2215d436845486b1f9c3b","swim","swim","1913","","","","","","","survey","","","","","","","","","","","","","{""Q0"":""Male""}","","","gender","Male"
"survey-multi-choice","97","2444481","0.0-9.0-4.0","33037ff5627eef70631c4df1a69be15ba287398af4f2215d436845486b1f9c3b","swim","swim","1488","","","","","","","survey","","","","","","","","","","","","","{""Q0"":""Right""}","","","handedness","Right"
"survey-multi-choice","98","2446754","0.0-9.0-5.0","33037ff5627eef70631c4df1a69be15ba287398af4f2215d436845486b1f9c3b","swim","swim","2020","","","","","","","survey","","","","","","","","","","","","","{""Q0"":""Bachelor's Degree""}","","","education","Bachelor's Degree"
"survey-text","99","2451899","0.0-10.0-0.0","33037ff5627eef70631c4df1a69be15ba287398af4f2215d436845486b1f9c3b","swim","swim","4890.10000000149","","","","","","","survey","","","","","","","","","","","","","{""L1"":""English""}","","","first-language","English"
"survey-text","100","2456791","0.0-10.0-1.0","33037ff5627eef70631c4df1a69be15ba287398af4f2215d436845486b1f9c3b","swim","swim","4624.099999997765","","","","","","","survey","","","","","","","","","","","","","{""L2name"":"""",""L2fluency"":"""",""L3name"":"""",""L3fluency"":"""",""L4name"":"""",""L4fluency"":""""}","","","additional-languages","{""L2name"":"""",""L2fluency"":"""",""L3name"":"""",""L3fluency"":"""",""L4name"":"""",""L4fluency"":""""}"
"survey-multi-choice","101","2458931","0.0-10.0-2.0","33037ff5627eef70631c4df1a69be15ba287398af4f2215d436845486b1f9c3b","swim","swim","1886","","","","","","","survey","","","","","","","","","","","","","{""Q0"":""No""}","","","hearing-aid","No"
"survey-multi-choice","102","2462261","0.0-10.0-3.0","33037ff5627eef70631c4df1a69be15ba287398af4f2215d436845486b1f9c3b","swim","swim","3078","","","","","","","survey","","","","","","","","","","","","","{""Q0"":""Never""}","","","ringing-ears","Never"
"survey-multi-choice","103","2464926","0.0-10.0-5.0","33037ff5627eef70631c4df1a69be15ba287398af4f2215d436845486b1f9c3b","swim","swim","2414","","","","","","","survey","","","","","","","","","","","","","{""Q0"":""No""}","","","neuro-disease","No"
"survey-multi-choice","104","2467737","0.0-10.0-7.0","33037ff5627eef70631c4df1a69be15ba287398af4f2215d436845486b1f9c3b","swim","swim","2558","","","","","","","survey","","","","","","","","","","","","","{""Q0"":""No""}","","","take-meds","No"
"survey-text","105","2470060","0.0-10.0-9.0","33037ff5627eef70631c4df1a69be15ba287398af4f2215d436845486b1f9c3b","swim","swim","2066.599999997765","","","","","","","survey","","","","","","","","","","","","","{""HC"":""""}","","","health-concerns",""
"html-button-response","106","2471970","0.0-11.0-0.0","33037ff5627eef70631c4df1a69be15ba287398af4f2215d436845486b1f9c3b","swim","swim","1658","","<p>How would you describe your musical skills/experiences?</p>","3","","","","survey","","","","","","","","","","","","","","","","music-skill","4"
"survey-multi-choice","107","2473882","0.0-11.0-1.0","33037ff5627eef70631c4df1a69be15ba287398af4f2215d436845486b1f9c3b","swim","swim","1657","","","","","","","survey","","","","","","","","","","","","","{""Q0"":""No""}","","","music-instrument","No"
"html-button-response","108","2474910","0.0-12.0-0.0","33037ff5627eef70631c4df1a69be15ba287398af4f2215d436845486b1f9c3b","swim","swim","776","","<p>How would you describe your general hearing abilities?</p>","2","","","","survey","","","","","","","","","","","","","","","","ssq-01","3"
"html-button-response","109","2476716","0.0-12.0-1.0","33037ff5627eef70631c4df1a69be15ba287398af4f2215d436845486b1f9c3b","swim","swim","1554","","<p>When you talk with someone at a place that strongly reverberates/echoes (e.g., in a church or train station),</br>can you understand what the person says?</p>","7","","","","survey","","","","","","","","","","","","","","","","ssq-02","7"
"html-button-response","110","2478202","0.0-12.0-2.0","33037ff5627eef70631c4df1a69be15ba287398af4f2215d436845486b1f9c3b","swim","swim","1235","","<p>When you are with a group (~5 people) in a lively restaurant, can you follow the group's conversation?</p>","6","","","","survey","","","","","","","","","","","","","","","","ssq-03","6"
"html-button-response","111","2479494","0.0-12.0-3.0","33037ff5627eef70631c4df1a69be15ba287398af4f2215d436845486b1f9c3b","swim","swim","1040","","<p>Based on the sound of a bus or truck, can you tell whether it is moving towards or away from you?</p>","8","","","","survey","","","","","","","","","","","","","","","","ssq-04","8"
"html-button-response","112","2480432","0.0-12.0-4.0","33037ff5627eef70631c4df1a69be15ba287398af4f2215d436845486b1f9c3b","swim","swim","687","","<p>When you are in an unknown environment, can you tell from which direction a brief sound originates?</p>","7","","","","survey","","","","","","","","","","","","","","","","ssq-05","7"
"html-button-response","113","2481630","0.0-12.0-5.0","33037ff5627eef70631c4df1a69be15ba287398af4f2215d436845486b1f9c3b","swim","swim","945","","<p>Are you able to ignore distracting sounds when you concentrate on a specific aspect of your acoustic surrounding?</p>","9","","","","survey","","","","","","","","","","","","","","","","ssq-06","9"
"fullscreen","114","2482881","0.0-13.0","33037ff5627eef70631c4df1a69be15ba287398af4f2215d436845486b1f9c3b","swim","swim","","","","","","","","","true","","","","","","","","","","","","","","","",""
