"trial_type","trial_index","time_elapsed","internal_node_id","ParticipantID","firstStory","scramStory","rt","url","stimulus","button_pressed","key_press","correctRESP","correct","designation","success","letterStim","letterType","ONSET","TIMEOUT","CONDITION","Participant","ONSET_ACTUAL","RT","RESP","ACC","STORY","responses","response","type","surveyQuestion","QRESP"
"pavlovia","0","2","0.0-0.0","7aabf0c37dbd6074b5546b4c2150696156da98dad24b87b752cb2730d96ed3b7","swim","arctic","","","","","","","","","","","","","","","","","","","","","","","","",""
"external-html","1","32649","0.0-1.0","7aabf0c37dbd6074b5546b4c2150696156da98dad24b87b752cb2730d96ed3b7","swim","arctic","32458","consent/consent_updated.html","","","","","","","","","","","","","","","","","","","","","","",""
"html-button-response","2","36624","0.0-2.0-0.0","7aabf0c37dbd6074b5546b4c2150696156da98dad24b87b752cb2730d96ed3b7","swim","arctic","3974","","<p>Before we begin the main task, you will complete a short volume calibration and headphone check.</p><p>Please make sure you are in a quiet listening environment, that you are wearing headphones, and that your computer's volume is turned on.<p></p>","0","","","","","","","","","","","","","","","","","","","","",""
"html-button-response","3","38184","0.0-2.0-1.0","7aabf0c37dbd6074b5546b4c2150696156da98dad24b87b752cb2730d96ed3b7","swim","arctic","1309","","<p>The volume calibration will be first.</p><p>You will hear a thirty-second noise. Please adjust your computer's volume so that this noise is being presented at a comfortable level.<p></p>","0","","","","","","","","","","","","","","","","","","","","",""
"audio-button-response","4","40536","0.0-2.0-2.0","7aabf0c37dbd6074b5546b4c2150696156da98dad24b87b752cb2730d96ed3b7","swim","arctic","2101","","audio/volumetest.mp3","0","","","","","","","","","","","","","","","","","","","","",""
"html-keyboard-response","5","46912","0.0-3.0-0.0","7aabf0c37dbd6074b5546b4c2150696156da98dad24b87b752cb2730d96ed3b7","swim","arctic","6375","","<p>You will now complete a short headphone check.</p><p>On each trial, you will hear three tones. One of these tones will be quieter than the others. Your task is to identify whether the quiet tone occurred first, second, or third.</p><p>There are six trials in total.<p></p><p></p>(Press SPACEBAR to begin)","","32","","","","","","","","","","","","","","","","","","","",""
"html-keyboard-response","6","47693","0.0-3.0-1.0-0.0","7aabf0c37dbd6074b5546b4c2150696156da98dad24b87b752cb2730d96ed3b7","swim","arctic","null","","<div style=""font-size:60px;"">+</div>","","null","","","","","","","","","","","","","","","","","","","",""
"audio-button-response","7","51264","0.0-3.0-1.0-1.0","7aabf0c37dbd6074b5546b4c2150696156da98dad24b87b752cb2730d96ed3b7","swim","arctic","3568","","audio/t1_1.mp3","0","","0","1","headphone-test","","","","","","","","","","","","","","","","",""
"html-keyboard-response","8","51767","0.0-3.0-1.0-2.0","7aabf0c37dbd6074b5546b4c2150696156da98dad24b87b752cb2730d96ed3b7","swim","arctic","null","","<p>Correct</p>","","null","","","","","","","","","","","","","","","","","","","",""
"html-keyboard-response","9","52276","0.0-3.0-1.0-0.1","7aabf0c37dbd6074b5546b4c2150696156da98dad24b87b752cb2730d96ed3b7","swim","arctic","null","","<div style=""font-size:60px;"">+</div>","","null","","","","","","","","","","","","","","","","","","","",""
"audio-button-response","10","54624","0.0-3.0-1.0-1.1","7aabf0c37dbd6074b5546b4c2150696156da98dad24b87b752cb2730d96ed3b7","swim","arctic","2347","","audio/t3_1.mp3","2","","2","1","headphone-test","","","","","","","","","","","","","","","","",""
"html-keyboard-response","11","55136","0.0-3.0-1.0-2.1","7aabf0c37dbd6074b5546b4c2150696156da98dad24b87b752cb2730d96ed3b7","swim","arctic","null","","<p>Correct</p>","","null","","","","","","","","","","","","","","","","","","","",""
"html-keyboard-response","12","55637","0.0-3.0-1.0-0.2","7aabf0c37dbd6074b5546b4c2150696156da98dad24b87b752cb2730d96ed3b7","swim","arctic","null","","<div style=""font-size:60px;"">+</div>","","null","","","","","","","","","","","","","","","","","","","",""
"audio-button-response","13","57824","0.0-3.0-1.0-1.2","7aabf0c37dbd6074b5546b4c2150696156da98dad24b87b752cb2730d96ed3b7","swim","arctic","2186","","audio/t3_2.mp3","2","","2","1","headphone-test","","","","","","","","","","","","","","","","",""
"html-keyboard-response","14","58326","0.0-3.0-1.0-2.2","7aabf0c37dbd6074b5546b4c2150696156da98dad24b87b752cb2730d96ed3b7","swim","arctic","null","","<p>Correct</p>","","null","","","","","","","","","","","","","","","","","","","",""
"html-keyboard-response","15","58846","0.0-3.0-1.0-0.3","7aabf0c37dbd6074b5546b4c2150696156da98dad24b87b752cb2730d96ed3b7","swim","arctic","null","","<div style=""font-size:60px;"">+</div>","","null","","","","","","","","","","","","","","","","","","","",""
"audio-button-response","16","60864","0.0-3.0-1.0-1.3","7aabf0c37dbd6074b5546b4c2150696156da98dad24b87b752cb2730d96ed3b7","swim","arctic","2018","","audio/t2_2.mp3","1","","1","1","headphone-test","","","","","","","","","","","","","","","","",""
"html-keyboard-response","17","61366","0.0-3.0-1.0-2.3","7aabf0c37dbd6074b5546b4c2150696156da98dad24b87b752cb2730d96ed3b7","swim","arctic","null","","<p>Correct</p>","","null","","","","","","","","","","","","","","","","","","","",""
"html-keyboard-response","18","61867","0.0-3.0-1.0-0.4","7aabf0c37dbd6074b5546b4c2150696156da98dad24b87b752cb2730d96ed3b7","swim","arctic","null","","<div style=""font-size:60px;"">+</div>","","null","","","","","","","","","","","","","","","","","","","",""
"audio-button-response","19","62784","0.0-3.0-1.0-1.4","7aabf0c37dbd6074b5546b4c2150696156da98dad24b87b752cb2730d96ed3b7","swim","arctic","917","","audio/t1_2.mp3","0","","0","1","headphone-test","","","","","","","","","","","","","","","","",""
"html-keyboard-response","20","63285","0.0-3.0-1.0-2.4","7aabf0c37dbd6074b5546b4c2150696156da98dad24b87b752cb2730d96ed3b7","swim","arctic","null","","<p>Correct</p>","","null","","","","","","","","","","","","","","","","","","","",""
"html-keyboard-response","21","63786","0.0-3.0-1.0-0.5","7aabf0c37dbd6074b5546b4c2150696156da98dad24b87b752cb2730d96ed3b7","swim","arctic","null","","<div style=""font-size:60px;"">+</div>","","null","","","","","","","","","","","","","","","","","","","",""
"audio-button-response","22","65880","0.0-3.0-1.0-1.5","7aabf0c37dbd6074b5546b4c2150696156da98dad24b87b752cb2730d96ed3b7","swim","arctic","2093","","audio/t2_1.mp3","1","","1","1","headphone-test","","","","","","","","","","","","","","","","",""
"html-keyboard-response","23","66396","0.0-3.0-1.0-2.5","7aabf0c37dbd6074b5546b4c2150696156da98dad24b87b752cb2730d96ed3b7","swim","arctic","null","","<p>Correct</p>","","null","","","","","","","","","","","","","","","","","","","",""
"fullscreen","24","68586","0.0-4.0","7aabf0c37dbd6074b5546b4c2150696156da98dad24b87b752cb2730d96ed3b7","swim","arctic","","","","","","","","","true","","","","","","","","","","","","","","","",""
"html-button-response","25","137072","0.0-5.0-0.0","7aabf0c37dbd6074b5546b4c2150696156da98dad24b87b752cb2730d96ed3b7","swim","arctic","68486","","<p>There are two blocks to this experiment.</p><p>In each block, you will hear a ~13.5 minute story. One of the stories will be scrambled. Please listen carefully to both stories and understand them as best you can.</p><p>After each story, you will be asked some questions to assess your comprehension.</p>","0","","","","","","","","","","","","","","","","","","","","",""
"html-button-response","26","234216","0.0-5.0-1.0","7aabf0c37dbd6074b5546b4c2150696156da98dad24b87b752cb2730d96ed3b7","swim","arctic","97144","","<p>During each story, there will be an additional task.</p><p>A letter will occasionally appear on the screen.</br>Your job is to - as quickly as you can - decide whether the letter is lowercase or uppercase and press one of two keys on the keyboard:</p><p>If the letter is <b>lowercase</b>, press key &lt;<b>x</b>&gt;.</p><p>If the letter is <b>uppercase</b>, press key &lt;<b>m</b>&gt;.</p>","0","","","","","","","","","","","","","","","","","","","","",""
"html-keyboard-response","27","241656","0.0-5.0-2.0","7aabf0c37dbd6074b5546b4c2150696156da98dad24b87b752cb2730d96ed3b7","swim","arctic","7440","","<p>Because we want your responses to be as quick as possible, please keep your index fingers over the keys while listening.</p><p>Each block lasts about 20 minutes.</p><p><b>Press &lt;x&gt; or &lt;m&gt; to start the first block!</b></p>","","88","","","","","","","","","","","","","","","","","","","",""
"html-keyboard-response","28","242158","0.0-7.0-0.0-0.0","7aabf0c37dbd6074b5546b4c2150696156da98dad24b87b752cb2730d96ed3b7","swim","arctic","null","","<div style=""font-size:60px;"" tabindex=""0"">+</div>","","null","","","","","","","","","","","","","","","","","","","",""
"dual-task","null","null","null","","swim","arctic","1055.2999999970198","","Q","null","77","77","1","swim-dual-task","","Q","uppercase","10000","0","1","7aabf0c37dbd6074b5546b4c2150696156da98dad24b87b752cb2730d96ed3b7","10009.90000000596","1055.2999999970198","77","1","swim","","","","",""
"dual-task","null","null","null","","swim","arctic","943.7999999970198","","g","null","88","88","1","swim-dual-task","","g","lowercase","18000","0","1","7aabf0c37dbd6074b5546b4c2150696156da98dad24b87b752cb2730d96ed3b7","18009.80000001192","943.7999999970198","88","1","swim","","","","",""
"dual-task","null","null","null","","swim","arctic","1317.7000000029802","","e","null","88","88","1","swim-dual-task","","e","lowercase","28000","0","1","7aabf0c37dbd6074b5546b4c2150696156da98dad24b87b752cb2730d96ed3b7","28019.60000000894","1317.7000000029802","88","1","swim","","","","",""
"dual-task","null","null","null","","swim","arctic","935.5","","h","null","88","88","1","swim-dual-task","","h","lowercase","40000","0","1","7aabf0c37dbd6074b5546b4c2150696156da98dad24b87b752cb2730d96ed3b7","40009.70000000298","935.5","88","1","swim","","","","",""
"dual-task","null","null","null","","swim","arctic","565.5","","F","null","77","77","1","swim-dual-task","","F","uppercase","54000","0","1","7aabf0c37dbd6074b5546b4c2150696156da98dad24b87b752cb2730d96ed3b7","54005.20000000298","565.5","77","1","swim","","","","",""
"dual-task","null","null","null","","swim","arctic","NA","","q","null","NA","88","0","swim-dual-task","","q","lowercase","62000","1","1","7aabf0c37dbd6074b5546b4c2150696156da98dad24b87b752cb2730d96ed3b7","62009.60000000894","NA","NA","0","swim","","","","",""
"dual-task","null","null","null","","swim","arctic","498.1000000089407","","e","null","88","88","1","swim-dual-task","","e","lowercase","72000","0","1","7aabf0c37dbd6074b5546b4c2150696156da98dad24b87b752cb2730d96ed3b7","72008.60000000894","498.1000000089407","88","1","swim","","","","",""
"dual-task","null","null","null","","swim","arctic","863.7999999970198","","G","null","77","77","1","swim-dual-task","","G","uppercase","82000","0","1","7aabf0c37dbd6074b5546b4c2150696156da98dad24b87b752cb2730d96ed3b7","82009.40000000596","863.7999999970198","77","1","swim","","","","",""
"dual-task","null","null","null","","swim","arctic","465.40000000596046","","B","null","77","77","1","swim-dual-task","","B","uppercase","94000","0","1","7aabf0c37dbd6074b5546b4c2150696156da98dad24b87b752cb2730d96ed3b7","94009.30000001192","465.40000000596046","77","1","swim","","","","",""
"dual-task","null","null","null","","swim","arctic","576","","A","null","77","77","1","swim-dual-task","","A","uppercase","108000","0","1","7aabf0c37dbd6074b5546b4c2150696156da98dad24b87b752cb2730d96ed3b7","108009.20000000298","576","77","1","swim","","","","",""
"dual-task","null","null","null","","swim","arctic","551.2000000029802","","R","null","77","77","1","swim-dual-task","","R","uppercase","116000","0","1","7aabf0c37dbd6074b5546b4c2150696156da98dad24b87b752cb2730d96ed3b7","116009.80000001192","551.2000000029802","77","1","swim","","","","",""
"dual-task","null","null","null","","swim","arctic","785.2000000029802","","G","null","77","77","1","swim-dual-task","","G","uppercase","124000","0","1","7aabf0c37dbd6074b5546b4c2150696156da98dad24b87b752cb2730d96ed3b7","124009.40000000596","785.2000000029802","77","1","swim","","","","",""
"dual-task","null","null","null","","swim","arctic","1793.2000000029802","","r","null","88","88","1","swim-dual-task","","r","lowercase","136000","0","1","7aabf0c37dbd6074b5546b4c2150696156da98dad24b87b752cb2730d96ed3b7","136009.40000000596","1793.2000000029802","88","1","swim","","","","",""
"dual-task","null","null","null","","swim","arctic","1049","","t","null","88","88","1","swim-dual-task","","t","lowercase","150000","0","1","7aabf0c37dbd6074b5546b4c2150696156da98dad24b87b752cb2730d96ed3b7","150009.60000000894","1049","88","1","swim","","","","",""
"dual-task","null","null","null","","swim","arctic","848","","D","null","77","77","1","swim-dual-task","","D","uppercase","162000","0","1","7aabf0c37dbd6074b5546b4c2150696156da98dad24b87b752cb2730d96ed3b7","162009.40000000596","848","77","1","swim","","","","",""
"dual-task","null","null","null","","swim","arctic","561.4000000059605","","H","null","77","77","1","swim-dual-task","","H","uppercase","174000","0","1","7aabf0c37dbd6074b5546b4c2150696156da98dad24b87b752cb2730d96ed3b7","174009.40000000596","561.4000000059605","77","1","swim","","","","",""
"dual-task","null","null","null","","swim","arctic","600","","q","null","88","88","1","swim-dual-task","","q","lowercase","184000","0","1","7aabf0c37dbd6074b5546b4c2150696156da98dad24b87b752cb2730d96ed3b7","184009.30000001192","600","88","1","swim","","","","",""
"dual-task","null","null","null","","swim","arctic","649.2999999970198","","a","null","88","88","1","swim-dual-task","","a","lowercase","196000","0","1","7aabf0c37dbd6074b5546b4c2150696156da98dad24b87b752cb2730d96ed3b7","196009.30000001192","649.2999999970198","88","1","swim","","","","",""
"dual-task","null","null","null","","swim","arctic","920.2999999970198","","R","null","77","77","1","swim-dual-task","","R","uppercase","210000","0","1","7aabf0c37dbd6074b5546b4c2150696156da98dad24b87b752cb2730d96ed3b7","210009.60000000894","920.2999999970198","77","1","swim","","","","",""
"dual-task","null","null","null","","swim","arctic","945.2999999970198","","A","null","77","77","1","swim-dual-task","","A","uppercase","220000","0","1","7aabf0c37dbd6074b5546b4c2150696156da98dad24b87b752cb2730d96ed3b7","220009.30000001192","945.2999999970198","77","1","swim","","","","",""
"dual-task","null","null","null","","swim","arctic","776.5","","q","null","88","88","1","swim-dual-task","","q","lowercase","230000","0","1","7aabf0c37dbd6074b5546b4c2150696156da98dad24b87b752cb2730d96ed3b7","230009.30000001192","776.5","88","1","swim","","","","",""
"dual-task","null","null","null","","swim","arctic","625.2999999970198","","Q","null","77","77","1","swim-dual-task","","Q","uppercase","238000","0","1","7aabf0c37dbd6074b5546b4c2150696156da98dad24b87b752cb2730d96ed3b7","238009.20000000298","625.2999999970198","77","1","swim","","","","",""
"dual-task","null","null","null","","swim","arctic","559.6999999880791","","D","null","77","77","1","swim-dual-task","","D","uppercase","246000","0","1","7aabf0c37dbd6074b5546b4c2150696156da98dad24b87b752cb2730d96ed3b7","246009.80000001192","559.6999999880791","77","1","swim","","","","",""
"dual-task","null","null","null","","swim","arctic","537.3000000119209","","G","null","77","77","1","swim-dual-task","","G","uppercase","258000","0","1","7aabf0c37dbd6074b5546b4c2150696156da98dad24b87b752cb2730d96ed3b7","258009.40000000596","537.3000000119209","77","1","swim","","","","",""
"dual-task","null","null","null","","swim","arctic","720","","t","null","88","88","1","swim-dual-task","","t","lowercase","268000","0","1","7aabf0c37dbd6074b5546b4c2150696156da98dad24b87b752cb2730d96ed3b7","268009.3000000119","720","88","1","swim","","","","",""
"dual-task","null","null","null","","swim","arctic","673.1000000089407","","e","null","88","88","1","swim-dual-task","","e","lowercase","282000","0","1","7aabf0c37dbd6074b5546b4c2150696156da98dad24b87b752cb2730d96ed3b7","282009.60000000894","673.1000000089407","88","1","swim","","","","",""
"dual-task","null","null","null","","swim","arctic","870.5","","N","null","77","77","1","swim-dual-task","","N","uppercase","288000","0","1","7aabf0c37dbd6074b5546b4c2150696156da98dad24b87b752cb2730d96ed3b7","288019.60000000894","870.5","77","1","swim","","","","",""
"dual-task","null","null","null","","swim","arctic","609","","A","null","77","77","1","swim-dual-task","","A","uppercase","302000","0","1","7aabf0c37dbd6074b5546b4c2150696156da98dad24b87b752cb2730d96ed3b7","302009.700000003","609","77","1","swim","","","","",""
"dual-task","null","null","null","","swim","arctic","617","","G","null","77","77","1","swim-dual-task","","G","uppercase","312000","0","1","7aabf0c37dbd6074b5546b4c2150696156da98dad24b87b752cb2730d96ed3b7","312009.5","617","77","1","swim","","","","",""
"dual-task","null","null","null","","swim","arctic","561.2999999970198","","B","null","77","77","1","swim-dual-task","","B","uppercase","322000","0","1","7aabf0c37dbd6074b5546b4c2150696156da98dad24b87b752cb2730d96ed3b7","322008.60000000894","561.2999999970198","77","1","swim","","","","",""
"dual-task","null","null","null","","swim","arctic","543.3999999910593","","E","null","77","77","1","swim-dual-task","","E","uppercase","330000","0","1","7aabf0c37dbd6074b5546b4c2150696156da98dad24b87b752cb2730d96ed3b7","330009.8000000119","543.3999999910593","77","1","swim","","","","",""
"dual-task","null","null","null","","swim","arctic","1256.7999999970198","","n","null","88","88","1","swim-dual-task","","n","lowercase","340000","0","1","7aabf0c37dbd6074b5546b4c2150696156da98dad24b87b752cb2730d96ed3b7","340009.700000003","1256.7999999970198","88","1","swim","","","","",""
"dual-task","null","null","null","","swim","arctic","592.3999999910593","","d","null","88","88","1","swim-dual-task","","d","lowercase","350000","0","1","7aabf0c37dbd6074b5546b4c2150696156da98dad24b87b752cb2730d96ed3b7","350009.60000000894","592.3999999910593","88","1","swim","","","","",""
"dual-task","null","null","null","","swim","arctic","599.9000000059605","","Q","null","77","77","1","swim-dual-task","","Q","uppercase","362000","0","1","7aabf0c37dbd6074b5546b4c2150696156da98dad24b87b752cb2730d96ed3b7","362009.40000000596","599.9000000059605","77","1","swim","","","","",""
"dual-task","null","null","null","","swim","arctic","583.7000000029802","","f","null","88","88","1","swim-dual-task","","f","lowercase","372000","0","1","7aabf0c37dbd6074b5546b4c2150696156da98dad24b87b752cb2730d96ed3b7","372009.40000000596","583.7000000029802","88","1","swim","","","","",""
"dual-task","null","null","null","","swim","arctic","553.2000000029802","","n","null","88","88","1","swim-dual-task","","n","lowercase","380000","0","1","7aabf0c37dbd6074b5546b4c2150696156da98dad24b87b752cb2730d96ed3b7","380009.5","553.2000000029802","88","1","swim","","","","",""
"dual-task","null","null","null","","swim","arctic","633.1000000089407","","b","null","88","88","1","swim-dual-task","","b","lowercase","390000","0","1","7aabf0c37dbd6074b5546b4c2150696156da98dad24b87b752cb2730d96ed3b7","390009.5","633.1000000089407","88","1","swim","","","","",""
"dual-task","null","null","null","","swim","arctic","607.5999999940395","","H","null","77","77","1","swim-dual-task","","H","uppercase","396000","0","1","7aabf0c37dbd6074b5546b4c2150696156da98dad24b87b752cb2730d96ed3b7","396009.60000000894","607.5999999940395","77","1","swim","","","","",""
"dual-task","null","null","null","","swim","arctic","609.1999999880791","","T","null","77","77","1","swim-dual-task","","T","uppercase","406000","0","1","7aabf0c37dbd6074b5546b4c2150696156da98dad24b87b752cb2730d96ed3b7","406009.200000003","609.1999999880791","77","1","swim","","","","",""
"dual-task","null","null","null","","swim","arctic","454.30000001192093","","N","null","88","77","0","swim-dual-task","","N","uppercase","416000","0","1","7aabf0c37dbd6074b5546b4c2150696156da98dad24b87b752cb2730d96ed3b7","416019.40000000596","454.30000001192093","88","0","swim","","","","",""
"dual-task","null","null","null","","swim","arctic","729.2999999970198","","a","null","88","88","1","swim-dual-task","","a","lowercase","422000","0","1","7aabf0c37dbd6074b5546b4c2150696156da98dad24b87b752cb2730d96ed3b7","422009.3000000119","729.2999999970198","88","1","swim","","","","",""
"dual-task","null","null","null","","swim","arctic","1150.300000011921","","r","null","88","88","1","swim-dual-task","","r","lowercase","428000","0","1","7aabf0c37dbd6074b5546b4c2150696156da98dad24b87b752cb2730d96ed3b7","428019.5","1150.300000011921","88","1","swim","","","","",""
"dual-task","null","null","null","","swim","arctic","513.2000000029802","","b","null","88","88","1","swim-dual-task","","b","lowercase","438000","0","1","7aabf0c37dbd6074b5546b4c2150696156da98dad24b87b752cb2730d96ed3b7","438009.40000000596","513.2000000029802","88","1","swim","","","","",""
"dual-task","null","null","null","","swim","arctic","655.5999999940395","","e","null","88","88","1","swim-dual-task","","e","lowercase","444000","0","1","7aabf0c37dbd6074b5546b4c2150696156da98dad24b87b752cb2730d96ed3b7","444009.60000000894","655.5999999940395","88","1","swim","","","","",""
"dual-task","null","null","null","","swim","arctic","549.5999999940395","","d","null","88","88","1","swim-dual-task","","d","lowercase","452000","0","1","7aabf0c37dbd6074b5546b4c2150696156da98dad24b87b752cb2730d96ed3b7","452019.5","549.5999999940395","88","1","swim","","","","",""
"dual-task","null","null","null","","swim","arctic","471.5","","h","null","88","88","1","swim-dual-task","","h","lowercase","460000","0","1","7aabf0c37dbd6074b5546b4c2150696156da98dad24b87b752cb2730d96ed3b7","460009.5","471.5","88","1","swim","","","","",""
"dual-task","null","null","null","","swim","arctic","629.6000000089407","","Q","null","77","77","1","swim-dual-task","","Q","uppercase","474000","0","1","7aabf0c37dbd6074b5546b4c2150696156da98dad24b87b752cb2730d96ed3b7","474019.5","629.6000000089407","77","1","swim","","","","",""
"dual-task","null","null","null","","swim","arctic","695.5999999940395","","B","null","77","77","1","swim-dual-task","","B","uppercase","486000","0","1","7aabf0c37dbd6074b5546b4c2150696156da98dad24b87b752cb2730d96ed3b7","486019.3000000119","695.5999999940395","77","1","swim","","","","",""
"dual-task","null","null","null","","swim","arctic","718.2000000029802","","H","null","77","77","1","swim-dual-task","","H","uppercase","494000","0","1","7aabf0c37dbd6074b5546b4c2150696156da98dad24b87b752cb2730d96ed3b7","494019.5","718.2000000029802","77","1","swim","","","","",""
"dual-task","null","null","null","","swim","arctic","552.2000000029802","","E","null","88","77","0","swim-dual-task","","E","uppercase","508000","0","1","7aabf0c37dbd6074b5546b4c2150696156da98dad24b87b752cb2730d96ed3b7","508010.3000000119","552.2000000029802","88","0","swim","","","","",""
"dual-task","null","null","null","","swim","arctic","557.8999999910593","","d","null","88","88","1","swim-dual-task","","d","lowercase","522000","0","1","7aabf0c37dbd6074b5546b4c2150696156da98dad24b87b752cb2730d96ed3b7","522019.3000000119","557.8999999910593","88","1","swim","","","","",""
"dual-task","null","null","null","","swim","arctic","695","","D","null","77","77","1","swim-dual-task","","D","uppercase","532000","0","1","7aabf0c37dbd6074b5546b4c2150696156da98dad24b87b752cb2730d96ed3b7","532019.5","695","77","1","swim","","","","",""
"dual-task","null","null","null","","swim","arctic","503.20000000298023","","T","null","77","77","1","swim-dual-task","","T","uppercase","544000","0","1","7aabf0c37dbd6074b5546b4c2150696156da98dad24b87b752cb2730d96ed3b7","544019.3000000119","503.20000000298023","77","1","swim","","","","",""
"dual-task","null","null","null","","swim","arctic","589.9000000059605","","h","null","88","88","1","swim-dual-task","","h","lowercase","558000","0","1","7aabf0c37dbd6074b5546b4c2150696156da98dad24b87b752cb2730d96ed3b7","558019.3000000119","589.9000000059605","88","1","swim","","","","",""
"dual-task","null","null","null","","swim","arctic","582.2000000029802","","f","null","88","88","1","swim-dual-task","","f","lowercase","564000","0","1","7aabf0c37dbd6074b5546b4c2150696156da98dad24b87b752cb2730d96ed3b7","564019.5","582.2000000029802","88","1","swim","","","","",""
"dual-task","null","null","null","","swim","arctic","630","","r","null","88","88","1","swim-dual-task","","r","lowercase","574000","0","1","7aabf0c37dbd6074b5546b4c2150696156da98dad24b87b752cb2730d96ed3b7","574019.400000006","630","88","1","swim","","","","",""
"dual-task","null","null","null","","swim","arctic","613.9000000059605","","E","null","77","77","1","swim-dual-task","","E","uppercase","582000","0","1","7aabf0c37dbd6074b5546b4c2150696156da98dad24b87b752cb2730d96ed3b7","582019.5","613.9000000059605","77","1","swim","","","","",""
"dual-task","null","null","null","","swim","arctic","574","","T","null","77","77","1","swim-dual-task","","T","uppercase","592000","0","1","7aabf0c37dbd6074b5546b4c2150696156da98dad24b87b752cb2730d96ed3b7","592019.200000003","574","77","1","swim","","","","",""
"dual-task","null","null","null","","swim","arctic","581.7000000029802","","T","null","77","77","1","swim-dual-task","","T","uppercase","606000","0","1","7aabf0c37dbd6074b5546b4c2150696156da98dad24b87b752cb2730d96ed3b7","606019.5","581.7000000029802","77","1","swim","","","","",""
"dual-task","null","null","null","","swim","arctic","934.2000000029802","","F","null","77","77","1","swim-dual-task","","F","uppercase","612000","0","1","7aabf0c37dbd6074b5546b4c2150696156da98dad24b87b752cb2730d96ed3b7","612019.5","934.2000000029802","77","1","swim","","","","",""
"dual-task","null","null","null","","swim","arctic","551.1000000089407","","A","null","77","77","1","swim-dual-task","","A","uppercase","620000","0","1","7aabf0c37dbd6074b5546b4c2150696156da98dad24b87b752cb2730d96ed3b7","620019.5","551.1000000089407","77","1","swim","","","","",""
"dual-task","null","null","null","","swim","arctic","613.2999999970198","","h","null","88","88","1","swim-dual-task","","h","lowercase","628000","0","1","7aabf0c37dbd6074b5546b4c2150696156da98dad24b87b752cb2730d96ed3b7","628019.6000000089","613.2999999970198","88","1","swim","","","","",""
"dual-task","null","null","null","","swim","arctic","605.3999999910593","","E","null","77","77","1","swim-dual-task","","E","uppercase","636000","0","1","7aabf0c37dbd6074b5546b4c2150696156da98dad24b87b752cb2730d96ed3b7","636019.8000000119","605.3999999910593","77","1","swim","","","","",""
"dual-task","null","null","null","","swim","arctic","470.6000000089407","","R","null","77","77","1","swim-dual-task","","R","uppercase","646000","0","1","7aabf0c37dbd6074b5546b4c2150696156da98dad24b87b752cb2730d96ed3b7","646019.3000000119","470.6000000089407","77","1","swim","","","","",""
"dual-task","null","null","null","","swim","arctic","662.7999999970198","","B","null","77","77","1","swim-dual-task","","B","uppercase","656000","0","1","7aabf0c37dbd6074b5546b4c2150696156da98dad24b87b752cb2730d96ed3b7","656019.700000003","662.7999999970198","77","1","swim","","","","",""
"dual-task","null","null","null","","swim","arctic","590.2000000029802","","d","null","88","88","1","swim-dual-task","","d","lowercase","664000","0","1","7aabf0c37dbd6074b5546b4c2150696156da98dad24b87b752cb2730d96ed3b7","664019.5","590.2000000029802","88","1","swim","","","","",""
"dual-task","null","null","null","","swim","arctic","702.7999999970198","","g","null","88","88","1","swim-dual-task","","g","lowercase","676000","0","1","7aabf0c37dbd6074b5546b4c2150696156da98dad24b87b752cb2730d96ed3b7","676019.6000000089","702.7999999970198","88","1","swim","","","","",""
"dual-task","null","null","null","","swim","arctic","791","","N","null","77","77","1","swim-dual-task","","N","uppercase","688000","0","1","7aabf0c37dbd6074b5546b4c2150696156da98dad24b87b752cb2730d96ed3b7","688019.6000000089","791","77","1","swim","","","","",""
"dual-task","null","null","null","","swim","arctic","557.2999999970198","","b","null","88","88","1","swim-dual-task","","b","lowercase","694000","0","1","7aabf0c37dbd6074b5546b4c2150696156da98dad24b87b752cb2730d96ed3b7","694019.6000000089","557.2999999970198","88","1","swim","","","","",""
"dual-task","null","null","null","","swim","arctic","471","","R","null","77","77","1","swim-dual-task","","R","uppercase","704000","0","1","7aabf0c37dbd6074b5546b4c2150696156da98dad24b87b752cb2730d96ed3b7","704019.400000006","471","77","1","swim","","","","",""
"dual-task","null","null","null","","swim","arctic","622.3000000119209","","t","null","88","88","1","swim-dual-task","","t","lowercase","712000","0","1","7aabf0c37dbd6074b5546b4c2150696156da98dad24b87b752cb2730d96ed3b7","712019.5","622.3000000119209","88","1","swim","","","","",""
"dual-task","null","null","null","","swim","arctic","535.2000000029802","","n","null","88","88","1","swim-dual-task","","n","lowercase","722000","0","1","7aabf0c37dbd6074b5546b4c2150696156da98dad24b87b752cb2730d96ed3b7","722019.200000003","535.2000000029802","88","1","swim","","","","",""
"dual-task","null","null","null","","swim","arctic","495.29999999701977","","g","null","88","88","1","swim-dual-task","","g","lowercase","734000","0","1","7aabf0c37dbd6074b5546b4c2150696156da98dad24b87b752cb2730d96ed3b7","734019.3000000119","495.29999999701977","88","1","swim","","","","",""
"dual-task","null","null","null","","swim","arctic","567","","H","null","77","77","1","swim-dual-task","","H","uppercase","746000","0","1","7aabf0c37dbd6074b5546b4c2150696156da98dad24b87b752cb2730d96ed3b7","746019.5","567","77","1","swim","","","","",""
"dual-task","null","null","null","","swim","arctic","551.5","","f","null","88","88","1","swim-dual-task","","f","lowercase","760000","0","1","7aabf0c37dbd6074b5546b4c2150696156da98dad24b87b752cb2730d96ed3b7","760019.1000000089","551.5","88","1","swim","","","","",""
"dual-task","null","null","null","","swim","arctic","734.1000000089407","","F","null","77","77","1","swim-dual-task","","F","uppercase","766000","0","1","7aabf0c37dbd6074b5546b4c2150696156da98dad24b87b752cb2730d96ed3b7","766019.6000000089","734.1000000089407","77","1","swim","","","","",""
"dual-task","null","null","null","","swim","arctic","551.0999999940395","","q","null","88","88","1","swim-dual-task","","q","lowercase","778000","0","1","7aabf0c37dbd6074b5546b4c2150696156da98dad24b87b752cb2730d96ed3b7","778019.400000006","551.0999999940395","88","1","swim","","","","",""
"dual-task","null","null","null","","swim","arctic","623","","f","null","88","88","1","swim-dual-task","","f","lowercase","788000","0","1","7aabf0c37dbd6074b5546b4c2150696156da98dad24b87b752cb2730d96ed3b7","788019.400000006","623","88","1","swim","","","","",""
"dual-task","null","null","null","","swim","arctic","734.3999999910593","","g","null","88","88","1","swim-dual-task","","g","lowercase","794000","0","1","7aabf0c37dbd6074b5546b4c2150696156da98dad24b87b752cb2730d96ed3b7","794019.3000000119","734.3999999910593","88","1","swim","","","","",""
"audio-keyboard-response","29","1052219","0.0-7.0-0.0-1.0","7aabf0c37dbd6074b5546b4c2150696156da98dad24b87b752cb2730d96ed3b7","swim","arctic","null","","audio/story_swim.mp3","","null","","","","","","","","","","","","","","","","","","","",""
"html-button-response","30","1054984","0.0-7.0-0.0-2.0","7aabf0c37dbd6074b5546b4c2150696156da98dad24b87b752cb2730d96ed3b7","swim","arctic","2763","","<p>This concludes the story. Thank you for listening.</p><p>You will now answer some questions about the content of the story.</p>","0","","","","","","","","","","","","","","","","","","","","",""
"survey-multi-choice","31","1059824","0.0-7.0-0.0-3.0-0.0","7aabf0c37dbd6074b5546b4c2150696156da98dad24b87b752cb2730d96ed3b7","swim","arctic","4839","","<b>What is the narrator afraid of, aside from the water?</b>","","","","1","swim-comprehension","","","","","","","","","","","","","{""Q0"":""Heights""}","","","",""
"survey-multi-choice","32","1064984","0.0-7.0-0.0-3.0-0.1","7aabf0c37dbd6074b5546b4c2150696156da98dad24b87b752cb2730d96ed3b7","swim","arctic","4907","","<b>How many times did the astronaut candidates have to complete the final exercise to pass?</b>","","","","1","swim-comprehension","","","","","","","","","","","","","{""Q0"":""Two""}","","","",""
"survey-multi-choice","33","1069968","0.0-7.0-0.0-3.0-0.2","7aabf0c37dbd6074b5546b4c2150696156da98dad24b87b752cb2730d96ed3b7","swim","arctic","4733","","<b>What gave the narrator his greatest feeling of accomplishment?</b>","","","","1","swim-comprehension","","","","","","","","","","","","","{""Q0"":""Passing the water survival course""}","","","",""
"survey-multi-choice","34","1075399","0.0-7.0-0.0-3.0-0.3","7aabf0c37dbd6074b5546b4c2150696156da98dad24b87b752cb2730d96ed3b7","swim","arctic","5179","","<b>How did the narrator train for his swim test?</b>","","","","1","swim-comprehension","","","","","","","","","","","","","{""Q0"":""Took his kids to the pool every day""}","","","",""
"survey-multi-choice","35","1083344","0.0-7.0-0.0-3.0-0.4","7aabf0c37dbd6074b5546b4c2150696156da98dad24b87b752cb2730d96ed3b7","swim","arctic","7688","","<b>What was the final step of the first swim test in the pool?</b>","","","","1","swim-comprehension","","","","","","","","","","","","","{""Q0"":""Tread water with hands above the water""}","","","",""
"survey-multi-choice","36","1087984","0.0-7.0-0.0-3.0-0.5","7aabf0c37dbd6074b5546b4c2150696156da98dad24b87b752cb2730d96ed3b7","swim","arctic","4389","","<b>How many astronaut candidates passed the first swim test?</b>","","","","1","swim-comprehension","","","","","","","","","","","","","{""Q0"":""All of them""}","","","",""
"survey-multi-choice","37","1092672","0.0-7.0-0.0-3.0-0.6","7aabf0c37dbd6074b5546b4c2150696156da98dad24b87b752cb2730d96ed3b7","swim","arctic","4436","","<b>How many astronaut candidates reported for duty at the Johnson Space Center?</b>","","","","1","swim-comprehension","","","","","","","","","","","","","{""Q0"":""Forty-four""}","","","",""
"survey-multi-choice","38","1104592","0.0-7.0-0.0-3.0-0.7","7aabf0c37dbd6074b5546b4c2150696156da98dad24b87b752cb2730d96ed3b7","swim","arctic","11667","","<b>What were the astronaut candidates trained to do at the naval air station?</b>","","","","1","swim-comprehension","","","","","","","","","","","","","{""Q0"":""Eject out of aircraft and survive in water long enough to be rescued""}","","","",""
"survey-multi-choice","39","1118912","0.0-7.0-0.0-3.0-0.8","7aabf0c37dbd6074b5546b4c2150696156da98dad24b87b752cb2730d96ed3b7","swim","arctic","14064","","<b>Where is the home of naval aviation?</b>","","","","0","swim-comprehension","","","","","","","","","","","","","{""Q0"":""Dallas""}","","","",""
"survey-multi-choice","40","1128824","0.0-7.0-0.0-3.0-0.9","7aabf0c37dbd6074b5546b4c2150696156da98dad24b87b752cb2730d96ed3b7","swim","arctic","9656","","<b>How often does the narrator swim, now that he is a good swimmer?</b>","","","","1","swim-comprehension","","","","","","","","","","","","","{""Q0"":""Never swam again in his life""}","","","",""
"html-button-response","41","1130440","0.0-7.0-0.0-4.0","7aabf0c37dbd6074b5546b4c2150696156da98dad24b87b752cb2730d96ed3b7","swim","arctic","1364","","<p>Thank you for your responses.</p><p>You will now answer some questions about your impressions of the story.</p>","0","","","","","","","","","","","","","","","","","","","","",""
"html-button-response","42","1136209","0.0-7.0-0.0-5.0-0.0","7aabf0c37dbd6074b5546b4c2150696156da98dad24b87b752cb2730d96ed3b7","swim","arctic","5768","","EE1","6","","","","swim-engagement","","","","","","","","","","","","","","7","emo-engage","",""
"html-button-response","43","1138040","0.0-7.0-0.0-5.0-0.1","7aabf0c37dbd6074b5546b4c2150696156da98dad24b87b752cb2730d96ed3b7","swim","arctic","1580","","E8","5","","","","swim-engagement","","","","","","","","","","","","","","6","enjoyment","",""
"html-button-response","44","1140504","0.0-7.0-0.0-5.0-0.2","7aabf0c37dbd6074b5546b4c2150696156da98dad24b87b752cb2730d96ed3b7","swim","arctic","2210","","E7","5","","","","swim-engagement","","","","","","","","","","","","","","6","enjoyment","",""
"html-button-response","45","1143168","0.0-7.0-0.0-5.0-0.3","7aabf0c37dbd6074b5546b4c2150696156da98dad24b87b752cb2730d96ed3b7","swim","arctic","2413","","EE3","4","","","","swim-engagement","","","","","","","","","","","","","","5","emo-engage","",""
"html-button-response","46","1145472","0.0-7.0-0.0-5.0-0.4","7aabf0c37dbd6074b5546b4c2150696156da98dad24b87b752cb2730d96ed3b7","swim","arctic","2052","","E6","4","","","","swim-engagement","","","","","","","","","","","","","","5","enjoyment","",""
"html-button-response","47","1148680","0.0-7.0-0.0-5.0-0.5","7aabf0c37dbd6074b5546b4c2150696156da98dad24b87b752cb2730d96ed3b7","swim","arctic","2957","","MS2","6","","","","swim-engagement","","","","","","","","","","","","","","7","mental-sim","",""
"html-button-response","48","1154000","0.0-7.0-0.0-5.0-0.6","7aabf0c37dbd6074b5546b4c2150696156da98dad24b87b752cb2730d96ed3b7","swim","arctic","5069","","A1","4","","","","swim-engagement","","","","","","","","","","","","","","5","absorption","",""
"html-button-response","49","1156232","0.0-7.0-0.0-5.0-0.7","7aabf0c37dbd6074b5546b4c2150696156da98dad24b87b752cb2730d96ed3b7","swim","arctic","1979","","A5","5","","","","swim-engagement","","","","","","","","","","","","","","6","absorption","",""
"html-button-response","50","1158728","0.0-7.0-0.0-5.0-0.8","7aabf0c37dbd6074b5546b4c2150696156da98dad24b87b752cb2730d96ed3b7","swim","arctic","2245","","E10","6","","","","swim-engagement","","","","","","","","","","","","","","7","enjoyment","",""
"html-button-response","51","1161176","0.0-7.0-0.0-5.0-0.9","7aabf0c37dbd6074b5546b4c2150696156da98dad24b87b752cb2730d96ed3b7","swim","arctic","2197","","EE4","5","","","","swim-engagement","","","","","","","","","","","","","","6","emo-engage","",""
"html-button-response","52","1165072","0.0-7.0-0.0-5.0-0.10","7aabf0c37dbd6074b5546b4c2150696156da98dad24b87b752cb2730d96ed3b7","swim","arctic","3645","","MS1","6","","","","swim-engagement","","","","","","","","","","","","","","7","mental-sim","",""
"html-button-response","53","1169584","0.0-7.0-0.0-5.0-0.11","7aabf0c37dbd6074b5546b4c2150696156da98dad24b87b752cb2730d96ed3b7","swim","arctic","4260","","EE5","5","","","","swim-engagement","","","","","","","","","","","","","","6","emo-engage","",""
"html-button-response","54","1172856","0.0-7.0-0.0-5.0-0.12","7aabf0c37dbd6074b5546b4c2150696156da98dad24b87b752cb2730d96ed3b7","swim","arctic","3020","","A2","5","","","","swim-engagement","","","","","","","","","","","","","","6","absorption","",""
"html-button-response","55","1174288","0.0-7.0-0.0-5.0-0.13","7aabf0c37dbd6074b5546b4c2150696156da98dad24b87b752cb2730d96ed3b7","swim","arctic","1180","","EE2","6","","","","swim-engagement","","","","","","","","","","","","","","7","emo-engage","",""
"html-button-response","56","1177600","0.0-7.0-0.0-5.0-0.14","7aabf0c37dbd6074b5546b4c2150696156da98dad24b87b752cb2730d96ed3b7","swim","arctic","3060","","MS3","4","","","","swim-engagement","","","","","","","","","","","","","","5","mental-sim","",""
"html-button-response","57","1179648","0.0-7.0-0.0-5.0-0.15","7aabf0c37dbd6074b5546b4c2150696156da98dad24b87b752cb2730d96ed3b7","swim","arctic","1795","","E1","3","","","","swim-engagement","","","","","","","","","","","","","","4","enjoyment","",""
"html-button-response","58","1181736","0.0-7.0-0.0-5.0-0.16","7aabf0c37dbd6074b5546b4c2150696156da98dad24b87b752cb2730d96ed3b7","swim","arctic","1836","","A3","5","","","","swim-engagement","","","","","","","","","","","","","","6","absorption","",""
"html-button-response","59","1184872","0.0-7.0-0.0-5.0-0.17","7aabf0c37dbd6074b5546b4c2150696156da98dad24b87b752cb2730d96ed3b7","swim","arctic","2883","","A4","5","","","","swim-engagement","","","","","","","","","","","","","","6","absorption","",""
"html-keyboard-response","60","1191647","0.0-7.0-1.0","7aabf0c37dbd6074b5546b4c2150696156da98dad24b87b752cb2730d96ed3b7","swim","arctic","6524","","<p>Thank you for your responses. You will now listen to the second story.</p><p>Remember, as you listen to the story you will see letters appear on the screen.</br>As quickly as possible, press <b>&lt;x&gt;</b> if the letter is lowercase and <b>&lt;m&gt;</b> if the letter is uppercase.</p><p>Press <b>&lt;x&gt;</b> or <b>&lt;m&gt;</b> to begin listening!</p>","","88","","","","","","","","","","","","","","","","","","","",""
"html-keyboard-response","61","1192149","0.0-7.0-2.0-0.0","7aabf0c37dbd6074b5546b4c2150696156da98dad24b87b752cb2730d96ed3b7","swim","arctic","null","","<div style=""font-size:60px;"" tabindex=""0"">+</div>","","null","","","","","","","","","","","","","","","","","","","",""
"dual-task","null","null","null","","swim","arctic","648.2999999970198","","q","null","88","88","1","arctic-dual-task","","q","lowercase","10000","0","1","7aabf0c37dbd6074b5546b4c2150696156da98dad24b87b752cb2730d96ed3b7","10007.40000000596","648.2999999970198","88","1","arctic","","","","",""
"dual-task","null","null","null","","swim","arctic","656.4000000059605","","t","null","88","88","1","arctic-dual-task","","t","lowercase","24000","0","1","7aabf0c37dbd6074b5546b4c2150696156da98dad24b87b752cb2730d96ed3b7","24007.09999999404","656.4000000059605","88","1","arctic","","","","",""
"dual-task","null","null","null","","swim","arctic","503.79999999701977","","a","null","88","88","1","arctic-dual-task","","a","lowercase","34000","0","1","7aabf0c37dbd6074b5546b4c2150696156da98dad24b87b752cb2730d96ed3b7","34006.90000000596","503.79999999701977","88","1","arctic","","","","",""
"dual-task","null","null","null","","swim","arctic","1009.5","","b","null","88","88","1","arctic-dual-task","","b","lowercase","44000","0","1","7aabf0c37dbd6074b5546b4c2150696156da98dad24b87b752cb2730d96ed3b7","44004.90000000596","1009.5","88","1","arctic","","","","",""
"dual-task","null","null","null","","swim","arctic","510.5","","e","null","88","88","1","arctic-dual-task","","e","lowercase","56000","0","1","7aabf0c37dbd6074b5546b4c2150696156da98dad24b87b752cb2730d96ed3b7","56017","510.5","88","1","arctic","","","","",""
"dual-task","null","null","null","","swim","arctic","653.9000000059605","","D","null","77","77","1","arctic-dual-task","","D","uppercase","64000","0","1","7aabf0c37dbd6074b5546b4c2150696156da98dad24b87b752cb2730d96ed3b7","64016.90000000596","653.9000000059605","77","1","arctic","","","","",""
"dual-task","null","null","null","","swim","arctic","582.2999999970198","","g","null","88","88","1","arctic-dual-task","","g","lowercase","76000","0","1","7aabf0c37dbd6074b5546b4c2150696156da98dad24b87b752cb2730d96ed3b7","76001.20000000298","582.2999999970198","88","1","arctic","","","","",""
"dual-task","null","null","null","","swim","arctic","578.2000000029802","","r","null","88","88","1","arctic-dual-task","","r","lowercase","86000","0","1","7aabf0c37dbd6074b5546b4c2150696156da98dad24b87b752cb2730d96ed3b7","86011.90000000596","578.2000000029802","88","1","arctic","","","","",""
"dual-task","null","null","null","","swim","arctic","774.5","","r","null","88","88","1","arctic-dual-task","","r","lowercase","100000","0","1","7aabf0c37dbd6074b5546b4c2150696156da98dad24b87b752cb2730d96ed3b7","100017.09999999404","774.5","88","1","arctic","","","","",""
"dual-task","null","null","null","","swim","arctic","654","","n","null","88","88","1","arctic-dual-task","","n","lowercase","110000","0","1","7aabf0c37dbd6074b5546b4c2150696156da98dad24b87b752cb2730d96ed3b7","110016.70000000298","654","88","1","arctic","","","","",""
"dual-task","null","null","null","","swim","arctic","678.5","","A","null","77","77","1","arctic-dual-task","","A","uppercase","122000","0","1","7aabf0c37dbd6074b5546b4c2150696156da98dad24b87b752cb2730d96ed3b7","122017","678.5","77","1","arctic","","","","",""
"dual-task","null","null","null","","swim","arctic","597.8999999910593","","N","null","77","77","1","arctic-dual-task","","N","uppercase","128000","0","1","7aabf0c37dbd6074b5546b4c2150696156da98dad24b87b752cb2730d96ed3b7","128016.90000000596","597.8999999910593","77","1","arctic","","","","",""
"dual-task","null","null","null","","swim","arctic","581.0999999940395","","h","null","88","88","1","arctic-dual-task","","h","lowercase","140000","0","1","7aabf0c37dbd6074b5546b4c2150696156da98dad24b87b752cb2730d96ed3b7","140017.20000000298","581.0999999940395","88","1","arctic","","","","",""
"dual-task","null","null","null","","swim","arctic","638.3999999910593","","R","null","77","77","1","arctic-dual-task","","R","uppercase","152000","0","1","7aabf0c37dbd6074b5546b4c2150696156da98dad24b87b752cb2730d96ed3b7","152017.20000000298","638.3999999910593","77","1","arctic","","","","",""
"dual-task","null","null","null","","swim","arctic","861.7999999970198","","d","null","88","88","1","arctic-dual-task","","d","lowercase","160000","0","1","7aabf0c37dbd6074b5546b4c2150696156da98dad24b87b752cb2730d96ed3b7","160009","861.7999999970198","88","1","arctic","","","","",""
"dual-task","null","null","null","","swim","arctic","905","","Q","null","77","77","1","arctic-dual-task","","Q","uppercase","172000","0","1","7aabf0c37dbd6074b5546b4c2150696156da98dad24b87b752cb2730d96ed3b7","172006.70000000298","905","77","1","arctic","","","","",""
"dual-task","null","null","null","","swim","arctic","550.1000000089407","","g","null","88","88","1","arctic-dual-task","","g","lowercase","180000","0","1","7aabf0c37dbd6074b5546b4c2150696156da98dad24b87b752cb2730d96ed3b7","180016.70000000298","550.1000000089407","88","1","arctic","","","","",""
"dual-task","null","null","null","","swim","arctic","574.2999999970198","","G","null","77","77","1","arctic-dual-task","","G","uppercase","188000","0","1","7aabf0c37dbd6074b5546b4c2150696156da98dad24b87b752cb2730d96ed3b7","188017.09999999404","574.2999999970198","77","1","arctic","","","","",""
"dual-task","null","null","null","","swim","arctic","838.0999999940395","","g","null","88","88","1","arctic-dual-task","","g","lowercase","196000","0","1","7aabf0c37dbd6074b5546b4c2150696156da98dad24b87b752cb2730d96ed3b7","196000.70000000298","838.0999999940395","88","1","arctic","","","","",""
"dual-task","null","null","null","","swim","arctic","621.6999999880791","","h","null","88","88","1","arctic-dual-task","","h","lowercase","208000","0","1","7aabf0c37dbd6074b5546b4c2150696156da98dad24b87b752cb2730d96ed3b7","208016.79999999702","621.6999999880791","88","1","arctic","","","","",""
"dual-task","null","null","null","","swim","arctic","686.7999999970198","","e","null","88","88","1","arctic-dual-task","","e","lowercase","218000","0","1","7aabf0c37dbd6074b5546b4c2150696156da98dad24b87b752cb2730d96ed3b7","218016.59999999404","686.7999999970198","88","1","arctic","","","","",""
"dual-task","null","null","null","","swim","arctic","679.9000000059605","","B","null","77","77","1","arctic-dual-task","","B","uppercase","228000","0","1","7aabf0c37dbd6074b5546b4c2150696156da98dad24b87b752cb2730d96ed3b7","228014.70000000298","679.9000000059605","77","1","arctic","","","","",""
"dual-task","null","null","null","","swim","arctic","574.7000000029802","","b","null","88","88","1","arctic-dual-task","","b","lowercase","242000","0","1","7aabf0c37dbd6074b5546b4c2150696156da98dad24b87b752cb2730d96ed3b7","242016.79999999702","574.7000000029802","88","1","arctic","","","","",""
"dual-task","null","null","null","","swim","arctic","566.7000000029802","","D","null","77","77","1","arctic-dual-task","","D","uppercase","254000","0","1","7aabf0c37dbd6074b5546b4c2150696156da98dad24b87b752cb2730d96ed3b7","254016.59999999404","566.7000000029802","77","1","arctic","","","","",""
"dual-task","null","null","null","","swim","arctic","500.90000000596046","","b","null","88","88","1","arctic-dual-task","","b","lowercase","260000","0","1","7aabf0c37dbd6074b5546b4c2150696156da98dad24b87b752cb2730d96ed3b7","260017.09999999404","500.90000000596046","88","1","arctic","","","","",""
"dual-task","null","null","null","","swim","arctic","693.2999999970198","","Q","null","77","77","1","arctic-dual-task","","Q","uppercase","270000","0","1","7aabf0c37dbd6074b5546b4c2150696156da98dad24b87b752cb2730d96ed3b7","270016.59999999404","693.2999999970198","77","1","arctic","","","","",""
"dual-task","null","null","null","","swim","arctic","602.4000000059605","","f","null","88","88","1","arctic-dual-task","","f","lowercase","282000","0","1","7aabf0c37dbd6074b5546b4c2150696156da98dad24b87b752cb2730d96ed3b7","282011.799999997","602.4000000059605","88","1","arctic","","","","",""
"dual-task","null","null","null","","swim","arctic","805.0999999940395","","D","null","77","77","1","arctic-dual-task","","D","uppercase","290000","0","1","7aabf0c37dbd6074b5546b4c2150696156da98dad24b87b752cb2730d96ed3b7","290016.90000000596","805.0999999940395","77","1","arctic","","","","",""
"dual-task","null","null","null","","swim","arctic","877.0999999940395","","N","null","77","77","1","arctic-dual-task","","N","uppercase","300000","0","1","7aabf0c37dbd6074b5546b4c2150696156da98dad24b87b752cb2730d96ed3b7","300017","877.0999999940395","77","1","arctic","","","","",""
"dual-task","null","null","null","","swim","arctic","1032","","f","null","88","88","1","arctic-dual-task","","f","lowercase","312000","0","1","7aabf0c37dbd6074b5546b4c2150696156da98dad24b87b752cb2730d96ed3b7","312007.200000003","1032","88","1","arctic","","","","",""
"dual-task","null","null","null","","swim","arctic","586.2000000029802","","G","null","77","77","1","arctic-dual-task","","G","uppercase","320000","0","1","7aabf0c37dbd6074b5546b4c2150696156da98dad24b87b752cb2730d96ed3b7","320012.5","586.2000000029802","77","1","arctic","","","","",""
"dual-task","null","null","null","","swim","arctic","436.8999999910593","","N","null","77","77","1","arctic-dual-task","","N","uppercase","332000","0","1","7aabf0c37dbd6074b5546b4c2150696156da98dad24b87b752cb2730d96ed3b7","332016.90000000596","436.8999999910593","77","1","arctic","","","","",""
"dual-task","null","null","null","","swim","arctic","702.9000000059605","","Q","null","77","77","1","arctic-dual-task","","Q","uppercase","340000","0","1","7aabf0c37dbd6074b5546b4c2150696156da98dad24b87b752cb2730d96ed3b7","340016.5","702.9000000059605","77","1","arctic","","","","",""
"dual-task","null","null","null","","swim","arctic","712.9000000059605","","F","null","77","77","1","arctic-dual-task","","F","uppercase","352000","0","1","7aabf0c37dbd6074b5546b4c2150696156da98dad24b87b752cb2730d96ed3b7","352006.59999999404","712.9000000059605","77","1","arctic","","","","",""
"dual-task","null","null","null","","swim","arctic","682.5999999940395","","h","null","88","88","1","arctic-dual-task","","h","lowercase","360000","0","1","7aabf0c37dbd6074b5546b4c2150696156da98dad24b87b752cb2730d96ed3b7","360004.200000003","682.5999999940395","88","1","arctic","","","","",""
"dual-task","null","null","null","","swim","arctic","544.6000000089407","","d","null","88","88","1","arctic-dual-task","","d","lowercase","368000","0","1","7aabf0c37dbd6074b5546b4c2150696156da98dad24b87b752cb2730d96ed3b7","368006.799999997","544.6000000089407","88","1","arctic","","","","",""
"dual-task","null","null","null","","swim","arctic","638.5","","a","null","88","88","1","arctic-dual-task","","a","lowercase","382000","0","1","7aabf0c37dbd6074b5546b4c2150696156da98dad24b87b752cb2730d96ed3b7","382017","638.5","88","1","arctic","","","","",""
"dual-task","null","null","null","","swim","arctic","613.5","","r","null","88","88","1","arctic-dual-task","","r","lowercase","396000","0","1","7aabf0c37dbd6074b5546b4c2150696156da98dad24b87b752cb2730d96ed3b7","396016.5","613.5","88","1","arctic","","","","",""
"dual-task","null","null","null","","swim","arctic","605.3999999910593","","G","null","77","77","1","arctic-dual-task","","G","uppercase","406000","0","1","7aabf0c37dbd6074b5546b4c2150696156da98dad24b87b752cb2730d96ed3b7","406016.700000003","605.3999999910593","77","1","arctic","","","","",""
"dual-task","null","null","null","","swim","arctic","NA","","f","null","NA","88","0","arctic-dual-task","","f","lowercase","414000","1","1","7aabf0c37dbd6074b5546b4c2150696156da98dad24b87b752cb2730d96ed3b7","414016.59999999404","NA","NA","0","arctic","","","","",""
"dual-task","null","null","null","","swim","arctic","NA","","T","null","NA","77","0","arctic-dual-task","","T","uppercase","422000","1","1","7aabf0c37dbd6074b5546b4c2150696156da98dad24b87b752cb2730d96ed3b7","422006.59999999404","NA","NA","0","arctic","","","","",""
"dual-task","null","null","null","","swim","arctic","509.09999999403954","","A","null","77","77","1","arctic-dual-task","","A","uppercase","432000","0","1","7aabf0c37dbd6074b5546b4c2150696156da98dad24b87b752cb2730d96ed3b7","432016.799999997","509.09999999403954","77","1","arctic","","","","",""
"dual-task","null","null","null","","swim","arctic","749.8999999910593","","h","null","88","88","1","arctic-dual-task","","h","lowercase","440000","0","1","7aabf0c37dbd6074b5546b4c2150696156da98dad24b87b752cb2730d96ed3b7","440016.700000003","749.8999999910593","88","1","arctic","","","","",""
"dual-task","null","null","null","","swim","arctic","507.20000000298023","","B","null","77","77","1","arctic-dual-task","","B","uppercase","454000","0","1","7aabf0c37dbd6074b5546b4c2150696156da98dad24b87b752cb2730d96ed3b7","454012.200000003","507.20000000298023","77","1","arctic","","","","",""
"dual-task","null","null","null","","swim","arctic","567.5","","q","null","88","88","1","arctic-dual-task","","q","lowercase","462000","0","1","7aabf0c37dbd6074b5546b4c2150696156da98dad24b87b752cb2730d96ed3b7","462007.09999999404","567.5","88","1","arctic","","","","",""
"dual-task","null","null","null","","swim","arctic","1448.0999999940395","","A","null","77","77","1","arctic-dual-task","","A","uppercase","472000","0","1","7aabf0c37dbd6074b5546b4c2150696156da98dad24b87b752cb2730d96ed3b7","472006.700000003","1448.0999999940395","77","1","arctic","","","","",""
"dual-task","null","null","null","","swim","arctic","560.9000000059605","","F","null","77","77","1","arctic-dual-task","","F","uppercase","480000","0","1","7aabf0c37dbd6074b5546b4c2150696156da98dad24b87b752cb2730d96ed3b7","480006.5","560.9000000059605","77","1","arctic","","","","",""
"dual-task","null","null","null","","swim","arctic","492.79999999701977","","H","null","77","77","1","arctic-dual-task","","H","uppercase","486000","0","1","7aabf0c37dbd6074b5546b4c2150696156da98dad24b87b752cb2730d96ed3b7","486009.799999997","492.79999999701977","77","1","arctic","","","","",""
"dual-task","null","null","null","","swim","arctic","582.7999999970198","","A","null","77","77","1","arctic-dual-task","","A","uppercase","496000","0","1","7aabf0c37dbd6074b5546b4c2150696156da98dad24b87b752cb2730d96ed3b7","496016.59999999404","582.7999999970198","77","1","arctic","","","","",""
"dual-task","null","null","null","","swim","arctic","470.6000000089407","","E","null","77","77","1","arctic-dual-task","","E","uppercase","508000","0","1","7aabf0c37dbd6074b5546b4c2150696156da98dad24b87b752cb2730d96ed3b7","508000.799999997","470.6000000089407","77","1","arctic","","","","",""
"dual-task","null","null","null","","swim","arctic","415.79999999701977","","D","null","77","77","1","arctic-dual-task","","D","uppercase","514000","0","1","7aabf0c37dbd6074b5546b4c2150696156da98dad24b87b752cb2730d96ed3b7","514006.799999997","415.79999999701977","77","1","arctic","","","","",""
"dual-task","null","null","null","","swim","arctic","464.5","","a","null","88","88","1","arctic-dual-task","","a","lowercase","520000","0","1","7aabf0c37dbd6074b5546b4c2150696156da98dad24b87b752cb2730d96ed3b7","520007","464.5","88","1","arctic","","","","",""
"dual-task","null","null","null","","swim","arctic","448.1000000089407","","R","null","77","77","1","arctic-dual-task","","R","uppercase","530000","0","1","7aabf0c37dbd6074b5546b4c2150696156da98dad24b87b752cb2730d96ed3b7","530006.599999994","448.1000000089407","77","1","arctic","","","","",""
"dual-task","null","null","null","","swim","arctic","608.3000000119209","","F","null","77","77","1","arctic-dual-task","","F","uppercase","542000","0","1","7aabf0c37dbd6074b5546b4c2150696156da98dad24b87b752cb2730d96ed3b7","542007.099999994","608.3000000119209","77","1","arctic","","","","",""
"dual-task","null","null","null","","swim","arctic","413.09999999403954","","T","null","77","77","1","arctic-dual-task","","T","uppercase","554000","0","1","7aabf0c37dbd6074b5546b4c2150696156da98dad24b87b752cb2730d96ed3b7","554002.400000006","413.09999999403954","77","1","arctic","","","","",""
"dual-task","null","null","null","","swim","arctic","552","","E","null","77","77","1","arctic-dual-task","","E","uppercase","562000","0","1","7aabf0c37dbd6074b5546b4c2150696156da98dad24b87b752cb2730d96ed3b7","562006.599999994","552","77","1","arctic","","","","",""
"dual-task","null","null","null","","swim","arctic","447.5","","a","null","88","88","1","arctic-dual-task","","a","lowercase","570000","0","1","7aabf0c37dbd6074b5546b4c2150696156da98dad24b87b752cb2730d96ed3b7","570006.700000003","447.5","88","1","arctic","","","","",""
"dual-task","null","null","null","","swim","arctic","496.29999999701977","","Q","null","77","77","1","arctic-dual-task","","Q","uppercase","578000","0","1","7aabf0c37dbd6074b5546b4c2150696156da98dad24b87b752cb2730d96ed3b7","578006.400000006","496.29999999701977","77","1","arctic","","","","",""
"dual-task","null","null","null","","swim","arctic","489","","n","null","88","88","1","arctic-dual-task","","n","lowercase","586000","0","1","7aabf0c37dbd6074b5546b4c2150696156da98dad24b87b752cb2730d96ed3b7","586006.5","489","88","1","arctic","","","","",""
"dual-task","null","null","null","","swim","arctic","752","","r","null","88","88","1","arctic-dual-task","","r","lowercase","594000","0","1","7aabf0c37dbd6074b5546b4c2150696156da98dad24b87b752cb2730d96ed3b7","594006.700000003","752","88","1","arctic","","","","",""
"dual-task","null","null","null","","swim","arctic","557.2999999970198","","n","null","88","88","1","arctic-dual-task","","n","lowercase","608000","0","1","7aabf0c37dbd6074b5546b4c2150696156da98dad24b87b752cb2730d96ed3b7","608016.700000003","557.2999999970198","88","1","arctic","","","","",""
"dual-task","null","null","null","","swim","arctic","597.5999999940395","","B","null","77","77","1","arctic-dual-task","","B","uppercase","618000","0","1","7aabf0c37dbd6074b5546b4c2150696156da98dad24b87b752cb2730d96ed3b7","618016.5","597.5999999940395","77","1","arctic","","","","",""
"dual-task","null","null","null","","swim","arctic","759.6000000089407","","t","null","88","88","1","arctic-dual-task","","t","lowercase","626000","0","1","7aabf0c37dbd6074b5546b4c2150696156da98dad24b87b752cb2730d96ed3b7","626007","759.6000000089407","88","1","arctic","","","","",""
"dual-task","null","null","null","","swim","arctic","504.79999999701977","","H","null","77","77","1","arctic-dual-task","","H","uppercase","638000","0","1","7aabf0c37dbd6074b5546b4c2150696156da98dad24b87b752cb2730d96ed3b7","638006.700000003","504.79999999701977","77","1","arctic","","","","",""
"dual-task","null","null","null","","swim","arctic","767.8999999910593","","t","null","88","88","1","arctic-dual-task","","t","lowercase","646000","0","1","7aabf0c37dbd6074b5546b4c2150696156da98dad24b87b752cb2730d96ed3b7","646006.700000003","767.8999999910593","88","1","arctic","","","","",""
"dual-task","null","null","null","","swim","arctic","545","","d","null","88","88","1","arctic-dual-task","","d","lowercase","658000","0","1","7aabf0c37dbd6074b5546b4c2150696156da98dad24b87b752cb2730d96ed3b7","658006.400000006","545","88","1","arctic","","","","",""
"dual-task","null","null","null","","swim","arctic","616.9000000059605","","t","null","88","88","1","arctic-dual-task","","t","lowercase","670000","0","1","7aabf0c37dbd6074b5546b4c2150696156da98dad24b87b752cb2730d96ed3b7","670006.5","616.9000000059605","88","1","arctic","","","","",""
"dual-task","null","null","null","","swim","arctic","517.7000000029802","","R","null","77","77","1","arctic-dual-task","","R","uppercase","680000","0","1","7aabf0c37dbd6074b5546b4c2150696156da98dad24b87b752cb2730d96ed3b7","680016.799999997","517.7000000029802","77","1","arctic","","","","",""
"dual-task","null","null","null","","swim","arctic","963.7000000029802","","q","null","88","88","1","arctic-dual-task","","q","lowercase","688000","0","1","7aabf0c37dbd6074b5546b4c2150696156da98dad24b87b752cb2730d96ed3b7","688010.799999997","963.7000000029802","88","1","arctic","","","","",""
"dual-task","null","null","null","","swim","arctic","550.0999999940395","","B","null","77","77","1","arctic-dual-task","","B","uppercase","702000","0","1","7aabf0c37dbd6074b5546b4c2150696156da98dad24b87b752cb2730d96ed3b7","702000.400000006","550.0999999940395","77","1","arctic","","","","",""
"dual-task","null","null","null","","swim","arctic","647.2000000029802","","e","null","88","88","1","arctic-dual-task","","e","lowercase","716000","0","1","7aabf0c37dbd6074b5546b4c2150696156da98dad24b87b752cb2730d96ed3b7","716006.700000003","647.2000000029802","88","1","arctic","","","","",""
"dual-task","null","null","null","","swim","arctic","902","","F","null","77","77","1","arctic-dual-task","","F","uppercase","724000","0","1","7aabf0c37dbd6074b5546b4c2150696156da98dad24b87b752cb2730d96ed3b7","724016.799999997","902","77","1","arctic","","","","",""
"dual-task","null","null","null","","swim","arctic","735.2000000029802","","e","null","88","88","1","arctic-dual-task","","e","lowercase","734000","0","1","7aabf0c37dbd6074b5546b4c2150696156da98dad24b87b752cb2730d96ed3b7","734007.5","735.2000000029802","88","1","arctic","","","","",""
"dual-task","null","null","null","","swim","arctic","685.2999999970198","","f","null","77","88","0","arctic-dual-task","","f","lowercase","744000","0","1","7aabf0c37dbd6074b5546b4c2150696156da98dad24b87b752cb2730d96ed3b7","744016.799999997","685.2999999970198","77","0","arctic","","","","",""
"dual-task","null","null","null","","swim","arctic","1608.6000000089407","","q","null","88","88","1","arctic-dual-task","","q","lowercase","754000","0","1","7aabf0c37dbd6074b5546b4c2150696156da98dad24b87b752cb2730d96ed3b7","754006.700000003","1608.6000000089407","88","1","arctic","","","","",""
"dual-task","null","null","null","","swim","arctic","999.7999999970198","","n","null","88","88","1","arctic-dual-task","","n","lowercase","766000","0","1","7aabf0c37dbd6074b5546b4c2150696156da98dad24b87b752cb2730d96ed3b7","766006.900000006","999.7999999970198","88","1","arctic","","","","",""
"dual-task","null","null","null","","swim","arctic","1181.7999999970198","","T","null","77","77","1","arctic-dual-task","","T","uppercase","778000","0","1","7aabf0c37dbd6074b5546b4c2150696156da98dad24b87b752cb2730d96ed3b7","778016.400000006","1181.7999999970198","77","1","arctic","","","","",""
"dual-task","null","null","null","","swim","arctic","551.7000000029802","","R","null","77","77","1","arctic-dual-task","","R","uppercase","788000","0","1","7aabf0c37dbd6074b5546b4c2150696156da98dad24b87b752cb2730d96ed3b7","788006.799999997","551.7000000029802","77","1","arctic","","","","",""
"audio-keyboard-response","62","1990211","0.0-7.0-2.0-1.0","7aabf0c37dbd6074b5546b4c2150696156da98dad24b87b752cb2730d96ed3b7","swim","arctic","null","","audio/story_arctic_scrambled.mp3","","null","","","","","","","","","","","","","","","","","","","",""
"html-button-response","63","1992928","0.0-7.0-2.0-2.0","7aabf0c37dbd6074b5546b4c2150696156da98dad24b87b752cb2730d96ed3b7","swim","arctic","2716","","<p>This concludes the story. Thank you for listening.</p><p>You will now answer some questions about the content of the story.</p>","0","","","","","","","","","","","","","","","","","","","","",""
"survey-multi-choice","64","1997696","0.0-7.0-2.0-3.0-0.0","7aabf0c37dbd6074b5546b4c2150696156da98dad24b87b752cb2730d96ed3b7","swim","arctic","4767","","<b>What is the name of the narrator&#39;s neighbour?</b>","","","","1","arctic-comprehension","","","","","","","","","","","","","{""Q0"":""Dave""}","","","",""
"survey-multi-choice","65","2003736","0.0-7.0-2.0-3.0-0.1","7aabf0c37dbd6074b5546b4c2150696156da98dad24b87b752cb2730d96ed3b7","swim","arctic","5783","","<b>How did the dogs respond when they saw the bears?</b>","","","","0","arctic-comprehension","","","","","","","","","","","","","{""Q0"":""Barked aggressively""}","","","",""
"survey-multi-choice","66","2013912","0.0-7.0-2.0-3.0-0.2","7aabf0c37dbd6074b5546b4c2150696156da98dad24b87b752cb2730d96ed3b7","swim","arctic","9918","","<b>What did the narrator do for leisure while in her tent?</b>","","","","0","arctic-comprehension","","","","","","","","","","","","","{""Q0"":""Play games on her phone""}","","","",""
"survey-multi-choice","67","2028768","0.0-7.0-2.0-3.0-0.3","7aabf0c37dbd6074b5546b4c2150696156da98dad24b87b752cb2730d96ed3b7","swim","arctic","14582","","<b>How did the narrator&#39;s neighbour respond when she told him about her expedition?</b>","","","","0","arctic-comprehension","","","","","","","","","","","","","{""Q0"":""He said he was worried about her.""}","","","",""
"survey-multi-choice","68","2041008","0.0-7.0-2.0-3.0-0.4","7aabf0c37dbd6074b5546b4c2150696156da98dad24b87b752cb2730d96ed3b7","swim","arctic","11987","","<b>How did the narrator&#39;s encounter with the polar bears end?</b>","","","","1","arctic-comprehension","","","","","","","","","","","","","{""Q0"":""The bears walked back to their den.""}","","","",""
"survey-multi-choice","69","2050864","0.0-7.0-2.0-3.0-0.5","7aabf0c37dbd6074b5546b4c2150696156da98dad24b87b752cb2730d96ed3b7","swim","arctic","9602","","<b>How did the narrator prepare for her expedition?</b>","","","","1","arctic-comprehension","","","","","","","","","","","","","{""Q0"":""Trained in Alaska learning how to dogsled""}","","","",""
"survey-multi-choice","70","2058664","0.0-7.0-2.0-3.0-0.6","7aabf0c37dbd6074b5546b4c2150696156da98dad24b87b752cb2730d96ed3b7","swim","arctic","7543","","<b>What was the objective of the narrator&#39;s expedition?</b>","","","","1","arctic-comprehension","","","","","","","","","","","","","{""Q0"":""Dogsled across Arctic America""}","","","",""
"survey-multi-choice","71","2065440","0.0-7.0-2.0-3.0-0.7","7aabf0c37dbd6074b5546b4c2150696156da98dad24b87b752cb2730d96ed3b7","swim","arctic","6523","","<b>Which dog on the narrator&#39;s dog team never followed instructions?</b>","","","","1","arctic-comprehension","","","","","","","","","","","","","{""Q0"":""Robert""}","","","",""
"survey-multi-choice","72","2070968","0.0-7.0-2.0-3.0-0.8","7aabf0c37dbd6074b5546b4c2150696156da98dad24b87b752cb2730d96ed3b7","swim","arctic","5276","","<b>How many sponsorships did the narrator receive to support her expedition?</b>","","","","1","arctic-comprehension","","","","","","","","","","","","","{""Q0"":""None""}","","","",""
"survey-multi-choice","73","2080575","0.0-7.0-2.0-3.0-0.9","7aabf0c37dbd6074b5546b4c2150696156da98dad24b87b752cb2730d96ed3b7","swim","arctic","9352","","<b>What were the weather conditions in the Arctic like the winter of the narrator&#39;s expedition?</b>","","","","0","arctic-comprehension","","","","","","","","","","","","","{""Q0"":""There were fewer storms than any other winter in recorded history.""}","","","",""
"html-button-response","74","2082743","0.0-7.0-2.0-4.0","7aabf0c37dbd6074b5546b4c2150696156da98dad24b87b752cb2730d96ed3b7","swim","arctic","1916","","<p>Thank you for your responses.</p><p>You will now answer some questions about your impressions of the story.</p>","0","","","","","","","","","","","","","","","","","","","","",""
"html-button-response","75","2087375","0.0-7.0-2.0-5.0-0.0","7aabf0c37dbd6074b5546b4c2150696156da98dad24b87b752cb2730d96ed3b7","swim","arctic","4632","","MS3","4","","","","arctic-engagement","","","","","","","","","","","","","","5","mental-sim","",""
"html-button-response","76","2091415","0.0-7.0-2.0-5.0-0.1","7aabf0c37dbd6074b5546b4c2150696156da98dad24b87b752cb2730d96ed3b7","swim","arctic","3789","","E10","3","","","","arctic-engagement","","","","","","","","","","","","","","4","enjoyment","",""
"html-button-response","77","2094663","0.0-7.0-2.0-5.0-0.2","7aabf0c37dbd6074b5546b4c2150696156da98dad24b87b752cb2730d96ed3b7","swim","arctic","2996","","MS1","4","","","","arctic-engagement","","","","","","","","","","","","","","5","mental-sim","",""
"html-button-response","78","2097343","0.0-7.0-2.0-5.0-0.3","7aabf0c37dbd6074b5546b4c2150696156da98dad24b87b752cb2730d96ed3b7","swim","arctic","2428","","A5","2","","","","arctic-engagement","","","","","","","","","","","","","","3","absorption","",""
"html-button-response","79","2099863","0.0-7.0-2.0-5.0-0.4","7aabf0c37dbd6074b5546b4c2150696156da98dad24b87b752cb2730d96ed3b7","swim","arctic","2269","","EE5","2","","","","arctic-engagement","","","","","","","","","","","","","","3","emo-engage","",""
"html-button-response","80","2103863","0.0-7.0-2.0-5.0-0.5","7aabf0c37dbd6074b5546b4c2150696156da98dad24b87b752cb2730d96ed3b7","swim","arctic","3749","","A2","1","","","","arctic-engagement","","","","","","","","","","","","","","2","absorption","",""
"html-button-response","81","2106791","0.0-7.0-2.0-5.0-0.6","7aabf0c37dbd6074b5546b4c2150696156da98dad24b87b752cb2730d96ed3b7","swim","arctic","2676","","E6","3","","","","arctic-engagement","","","","","","","","","","","","","","4","enjoyment","",""
"html-button-response","82","2110847","0.0-7.0-2.0-5.0-0.7","7aabf0c37dbd6074b5546b4c2150696156da98dad24b87b752cb2730d96ed3b7","swim","arctic","3804","","EE1","3","","","","arctic-engagement","","","","","","","","","","","","","","4","emo-engage","",""
"html-button-response","83","2113991","0.0-7.0-2.0-5.0-0.8","7aabf0c37dbd6074b5546b4c2150696156da98dad24b87b752cb2730d96ed3b7","swim","arctic","2892","","A1","1","","","","arctic-engagement","","","","","","","","","","","","","","2","absorption","",""
"html-button-response","84","2115967","0.0-7.0-2.0-5.0-0.9","7aabf0c37dbd6074b5546b4c2150696156da98dad24b87b752cb2730d96ed3b7","swim","arctic","1724","","EE2","2","","","","arctic-engagement","","","","","","","","","","","","","","3","emo-engage","",""
"html-button-response","85","2118063","0.0-7.0-2.0-5.0-0.10","7aabf0c37dbd6074b5546b4c2150696156da98dad24b87b752cb2730d96ed3b7","swim","arctic","1844","","EE3","2","","","","arctic-engagement","","","","","","","","","","","","","","3","emo-engage","",""
"html-button-response","86","2119967","0.0-7.0-2.0-5.0-0.11","7aabf0c37dbd6074b5546b4c2150696156da98dad24b87b752cb2730d96ed3b7","swim","arctic","1653","","E7","3","","","","arctic-engagement","","","","","","","","","","","","","","4","enjoyment","",""
"html-button-response","87","2122023","0.0-7.0-2.0-5.0-0.12","7aabf0c37dbd6074b5546b4c2150696156da98dad24b87b752cb2730d96ed3b7","swim","arctic","1804","","E1","4","","","","arctic-engagement","","","","","","","","","","","","","","5","enjoyment","",""
"html-button-response","88","2125543","0.0-7.0-2.0-5.0-0.13","7aabf0c37dbd6074b5546b4c2150696156da98dad24b87b752cb2730d96ed3b7","swim","arctic","3269","","MS2","2","","","","arctic-engagement","","","","","","","","","","","","","","3","mental-sim","",""
"html-button-response","89","2128591","0.0-7.0-2.0-5.0-0.14","7aabf0c37dbd6074b5546b4c2150696156da98dad24b87b752cb2730d96ed3b7","swim","arctic","2795","","A3","1","","","","arctic-engagement","","","","","","","","","","","","","","2","absorption","",""
"html-button-response","90","2136063","0.0-7.0-2.0-5.0-0.15","7aabf0c37dbd6074b5546b4c2150696156da98dad24b87b752cb2730d96ed3b7","swim","arctic","7222","","A4","1","","","","arctic-engagement","","","","","","","","","","","","","","2","absorption","",""
"html-button-response","91","2138935","0.0-7.0-2.0-5.0-0.16","7aabf0c37dbd6074b5546b4c2150696156da98dad24b87b752cb2730d96ed3b7","swim","arctic","2622","","EE4","1","","","","arctic-engagement","","","","","","","","","","","","","","2","emo-engage","",""
"html-button-response","92","2140823","0.0-7.0-2.0-5.0-0.17","7aabf0c37dbd6074b5546b4c2150696156da98dad24b87b752cb2730d96ed3b7","swim","arctic","1635","","E8","0","","","","arctic-engagement","","","","","","","","","","","","","","1","enjoyment","",""
"html-button-response","93","2142735","0.0-8.0","7aabf0c37dbd6074b5546b4c2150696156da98dad24b87b752cb2730d96ed3b7","swim","arctic","1659","","<p>Thank you for your responses.</p><p>You will now answer some demographic, hearing, and general health questions.</p>","0","","","","","","","","","","","","","","","","","","","","",""
"survey-multi-choice","94","2146623","0.0-9.0-0.0","7aabf0c37dbd6074b5546b4c2150696156da98dad24b87b752cb2730d96ed3b7","swim","arctic","3887","","","","","","","survey","","","","","","","","","","","","","{""Q0"":""Chrome""}","","","browser",""
"survey-text","95","2150175","0.0-9.0-1.0","7aabf0c37dbd6074b5546b4c2150696156da98dad24b87b752cb2730d96ed3b7","swim","arctic","3297.8999999910593","","","","","","","survey","","","","","","","","","","","","","{""AGE"":""29""}","","","age","29"
"survey-multi-choice","96","2153095","0.0-9.0-2.0","7aabf0c37dbd6074b5546b4c2150696156da98dad24b87b752cb2730d96ed3b7","swim","arctic","2668","","","","","","","survey","","","","","","","","","","","","","{""Q0"":""Male""}","","","gender","Male"
"survey-multi-choice","97","2155151","0.0-9.0-4.0","7aabf0c37dbd6074b5546b4c2150696156da98dad24b87b752cb2730d96ed3b7","swim","arctic","1803","","","","","","","survey","","","","","","","","","","","","","{""Q0"":""Right""}","","","handedness","Right"
"survey-multi-choice","98","2157879","0.0-9.0-5.0","7aabf0c37dbd6074b5546b4c2150696156da98dad24b87b752cb2730d96ed3b7","swim","arctic","2475","","","","","","","survey","","","","","","","","","","","","","{""Q0"":""Bachelor's Degree""}","","","education","Bachelor's Degree"
"survey-text","99","2164224","0.0-10.0-0.0","7aabf0c37dbd6074b5546b4c2150696156da98dad24b87b752cb2730d96ed3b7","swim","arctic","6091.9000000059605","","","","","","","survey","","","","","","","","","","","","","{""L1"":""English""}","","","first-language","English"
"survey-text","100","2170271","0.0-10.0-1.0","7aabf0c37dbd6074b5546b4c2150696156da98dad24b87b752cb2730d96ed3b7","swim","arctic","5791.5","","","","","","","survey","","","","","","","","","","","","","{""L2name"":"""",""L2fluency"":"""",""L3name"":"""",""L3fluency"":"""",""L4name"":"""",""L4fluency"":""""}","","","additional-languages","{""L2name"":"""",""L2fluency"":"""",""L3name"":"""",""L3fluency"":"""",""L4name"":"""",""L4fluency"":""""}"
"survey-multi-choice","101","2172223","0.0-10.0-2.0","7aabf0c37dbd6074b5546b4c2150696156da98dad24b87b752cb2730d96ed3b7","swim","arctic","1695","","","","","","","survey","","","","","","","","","","","","","{""Q0"":""No""}","","","hearing-aid","No"
"survey-multi-choice","102","2175079","0.0-10.0-3.0","7aabf0c37dbd6074b5546b4c2150696156da98dad24b87b752cb2730d96ed3b7","swim","arctic","2604","","","","","","","survey","","","","","","","","","","","","","{""Q0"":""Never""}","","","ringing-ears","Never"
"survey-multi-choice","103","2177919","0.0-10.0-5.0","7aabf0c37dbd6074b5546b4c2150696156da98dad24b87b752cb2730d96ed3b7","swim","arctic","2584","","","","","","","survey","","","","","","","","","","","","","{""Q0"":""No""}","","","neuro-disease","No"
"survey-multi-choice","104","2180791","0.0-10.0-7.0","7aabf0c37dbd6074b5546b4c2150696156da98dad24b87b752cb2730d96ed3b7","swim","arctic","2617","","","","","","","survey","","","","","","","","","","","","","{""Q0"":""No""}","","","take-meds","No"
"survey-text","105","2185223","0.0-10.0-9.0","7aabf0c37dbd6074b5546b4c2150696156da98dad24b87b752cb2730d96ed3b7","swim","arctic","4168.5999999940395","","","","","","","survey","","","","","","","","","","","","","{""HC"":""""}","","","health-concerns",""
"html-button-response","106","2191751","0.0-11.0-0.0","7aabf0c37dbd6074b5546b4c2150696156da98dad24b87b752cb2730d96ed3b7","swim","arctic","6275","","<p>How would you describe your musical skills/experiences?</p>","2","","","","survey","","","","","","","","","","","","","","","","music-skill","3"
"survey-multi-choice","107","2194639","0.0-11.0-1.0","7aabf0c37dbd6074b5546b4c2150696156da98dad24b87b752cb2730d96ed3b7","swim","arctic","2633","","","","","","","survey","","","","","","","","","","","","","{""Q0"":""No""}","","","music-instrument","No"
"html-button-response","108","2196887","0.0-12.0-0.0","7aabf0c37dbd6074b5546b4c2150696156da98dad24b87b752cb2730d96ed3b7","swim","arctic","1996","","<p>How would you describe your general hearing abilities?</p>","5","","","","survey","","","","","","","","","","","","","","","","ssq-01","6"
"html-button-response","109","2204511","0.0-12.0-1.0","7aabf0c37dbd6074b5546b4c2150696156da98dad24b87b752cb2730d96ed3b7","swim","arctic","7374","","<p>When you talk with someone at a place that strongly reverberates/echoes (e.g., in a church or train station),</br>can you understand what the person says?</p>","8","","","","survey","","","","","","","","","","","","","","","","ssq-02","8"
"html-button-response","110","2212103","0.0-12.0-2.0","7aabf0c37dbd6074b5546b4c2150696156da98dad24b87b752cb2730d96ed3b7","swim","arctic","7340","","<p>When you are with a group (~5 people) in a lively restaurant, can you follow the group's conversation?</p>","8","","","","survey","","","","","","","","","","","","","","","","ssq-03","8"
"html-button-response","111","2217039","0.0-12.0-3.0","7aabf0c37dbd6074b5546b4c2150696156da98dad24b87b752cb2730d96ed3b7","swim","arctic","4685","","<p>Based on the sound of a bus or truck, can you tell whether it is moving towards or away from you?</p>","9","","","","survey","","","","","","","","","","","","","","","","ssq-04","9"
"html-button-response","112","2221903","0.0-12.0-4.0","7aabf0c37dbd6074b5546b4c2150696156da98dad24b87b752cb2730d96ed3b7","swim","arctic","4613","","<p>When you are in an unknown environment, can you tell from which direction a brief sound originates?</p>","8","","","","survey","","","","","","","","","","","","","","","","ssq-05","8"
"html-button-response","113","2226487","0.0-12.0-5.0","7aabf0c37dbd6074b5546b4c2150696156da98dad24b87b752cb2730d96ed3b7","swim","arctic","4332","","<p>Are you able to ignore distracting sounds when you concentrate on a specific aspect of your acoustic surrounding?</p>","9","","","","survey","","","","","","","","","","","","","","","","ssq-06","9"
"fullscreen","114","2227738","0.0-13.0","7aabf0c37dbd6074b5546b4c2150696156da98dad24b87b752cb2730d96ed3b7","swim","arctic","","","","","","","","","true","","","","","","","","","","","","","","","",""
