"trial_type","trial_index","time_elapsed","internal_node_id","ParticipantID","firstStory","scramStory","rt","url","stimulus","button_pressed","key_press","correctRESP","correct","designation","success","letterStim","letterType","ONSET","TIMEOUT","CONDITION","Participant","ONSET_ACTUAL","RT","RESP","ACC","STORY","responses","response","type","surveyQuestion","QRESP"
"pavlovia","0","2","0.0-0.0","70bfcbf96e64a0f4f4c530ab351bde095707e6344c0d1568129a83ab3a8159f2","arctic","arctic","","","","","","","","","","","","","","","","","","","","","","","","",""
"external-html","1","9035","0.0-1.0","70bfcbf96e64a0f4f4c530ab351bde095707e6344c0d1568129a83ab3a8159f2","arctic","arctic","8694","consent/consent_updated.html","","","","","","","","","","","","","","","","","","","","","","",""
"html-button-response","2","12375","0.0-2.0-0.0","70bfcbf96e64a0f4f4c530ab351bde095707e6344c0d1568129a83ab3a8159f2","arctic","arctic","3340","","<p>Before we begin the main task, you will complete a short volume calibration and headphone check.</p><p>Please make sure you are in a quiet listening environment, that you are wearing headphones, and that your computer's volume is turned on.<p></p>","0","","","","","","","","","","","","","","","","","","","","",""
"html-button-response","3","14196","0.0-2.0-1.0","70bfcbf96e64a0f4f4c530ab351bde095707e6344c0d1568129a83ab3a8159f2","arctic","arctic","1569","","<p>The volume calibration will be first.</p><p>You will hear a thirty-second noise. Please adjust your computer's volume so that this noise is being presented at a comfortable level.<p></p>","0","","","","","","","","","","","","","","","","","","","","",""
"audio-button-response","4","16369","0.0-2.0-2.0","70bfcbf96e64a0f4f4c530ab351bde095707e6344c0d1568129a83ab3a8159f2","arctic","arctic","1920","","audio/volumetest.mp3","0","","","","","","","","","","","","","","","","","","","","",""
"html-keyboard-response","5","18584","0.0-3.0-0.0","70bfcbf96e64a0f4f4c530ab351bde095707e6344c0d1568129a83ab3a8159f2","arctic","arctic","2215","","<p>You will now complete a short headphone check.</p><p>On each trial, you will hear three tones. One of these tones will be quieter than the others. Your task is to identify whether the quiet tone occurred first, second, or third.</p><p>There are six trials in total.<p></p><p></p>(Press SPACEBAR to begin)","","32","","","","","","","","","","","","","","","","","","","",""
"html-keyboard-response","6","19363","0.0-3.0-1.0-0.0","70bfcbf96e64a0f4f4c530ab351bde095707e6344c0d1568129a83ab3a8159f2","arctic","arctic","null","","<div style=""font-size:60px;"">+</div>","","null","","","","","","","","","","","","","","","","","","","",""
"audio-button-response","7","25041","0.0-3.0-1.0-1.0","70bfcbf96e64a0f4f4c530ab351bde095707e6344c0d1568129a83ab3a8159f2","arctic","arctic","5677","","audio/t2_2.mp3","1","","1","1","headphone-test","","","","","","","","","","","","","","","","",""
"html-keyboard-response","8","25544","0.0-3.0-1.0-2.0","70bfcbf96e64a0f4f4c530ab351bde095707e6344c0d1568129a83ab3a8159f2","arctic","arctic","null","","<p>Correct</p>","","null","","","","","","","","","","","","","","","","","","","",""
"html-keyboard-response","9","26046","0.0-3.0-1.0-0.1","70bfcbf96e64a0f4f4c530ab351bde095707e6344c0d1568129a83ab3a8159f2","arctic","arctic","null","","<div style=""font-size:60px;"">+</div>","","null","","","","","","","","","","","","","","","","","","","",""
"audio-button-response","10","30348","0.0-3.0-1.0-1.1","70bfcbf96e64a0f4f4c530ab351bde095707e6344c0d1568129a83ab3a8159f2","arctic","arctic","4302","","audio/t3_2.mp3","2","","2","1","headphone-test","","","","","","","","","","","","","","","","",""
"html-keyboard-response","11","30849","0.0-3.0-1.0-2.1","70bfcbf96e64a0f4f4c530ab351bde095707e6344c0d1568129a83ab3a8159f2","arctic","arctic","null","","<p>Correct</p>","","null","","","","","","","","","","","","","","","","","","","",""
"html-keyboard-response","12","31362","0.0-3.0-1.0-0.2","70bfcbf96e64a0f4f4c530ab351bde095707e6344c0d1568129a83ab3a8159f2","arctic","arctic","null","","<div style=""font-size:60px;"">+</div>","","null","","","","","","","","","","","","","","","","","","","",""
"audio-button-response","13","35518","0.0-3.0-1.0-1.2","70bfcbf96e64a0f4f4c530ab351bde095707e6344c0d1568129a83ab3a8159f2","arctic","arctic","4154","","audio/t2_1.mp3","1","","1","1","headphone-test","","","","","","","","","","","","","","","","",""
"html-keyboard-response","14","36020","0.0-3.0-1.0-2.2","70bfcbf96e64a0f4f4c530ab351bde095707e6344c0d1568129a83ab3a8159f2","arctic","arctic","null","","<p>Correct</p>","","null","","","","","","","","","","","","","","","","","","","",""
"html-keyboard-response","15","36521","0.0-3.0-1.0-0.3","70bfcbf96e64a0f4f4c530ab351bde095707e6344c0d1568129a83ab3a8159f2","arctic","arctic","null","","<div style=""font-size:60px;"">+</div>","","null","","","","","","","","","","","","","","","","","","","",""
"audio-button-response","16","40639","0.0-3.0-1.0-1.3","70bfcbf96e64a0f4f4c530ab351bde095707e6344c0d1568129a83ab3a8159f2","arctic","arctic","4116","","audio/t3_1.mp3","2","","2","1","headphone-test","","","","","","","","","","","","","","","","",""
"html-keyboard-response","17","41149","0.0-3.0-1.0-2.3","70bfcbf96e64a0f4f4c530ab351bde095707e6344c0d1568129a83ab3a8159f2","arctic","arctic","null","","<p>Correct</p>","","null","","","","","","","","","","","","","","","","","","","",""
"html-keyboard-response","18","41658","0.0-3.0-1.0-0.4","70bfcbf96e64a0f4f4c530ab351bde095707e6344c0d1568129a83ab3a8159f2","arctic","arctic","null","","<div style=""font-size:60px;"">+</div>","","null","","","","","","","","","","","","","","","","","","","",""
"audio-button-response","19","49437","0.0-3.0-1.0-1.4","70bfcbf96e64a0f4f4c530ab351bde095707e6344c0d1568129a83ab3a8159f2","arctic","arctic","7778","","audio/t1_1.mp3","0","","0","1","headphone-test","","","","","","","","","","","","","","","","",""
"html-keyboard-response","20","49938","0.0-3.0-1.0-2.4","70bfcbf96e64a0f4f4c530ab351bde095707e6344c0d1568129a83ab3a8159f2","arctic","arctic","null","","<p>Correct</p>","","null","","","","","","","","","","","","","","","","","","","",""
"html-keyboard-response","21","50439","0.0-3.0-1.0-0.5","70bfcbf96e64a0f4f4c530ab351bde095707e6344c0d1568129a83ab3a8159f2","arctic","arctic","null","","<div style=""font-size:60px;"">+</div>","","null","","","","","","","","","","","","","","","","","","","",""
"audio-button-response","22","54946","0.0-3.0-1.0-1.5","70bfcbf96e64a0f4f4c530ab351bde095707e6344c0d1568129a83ab3a8159f2","arctic","arctic","4505","","audio/t1_2.mp3","0","","0","1","headphone-test","","","","","","","","","","","","","","","","",""
"html-keyboard-response","23","55457","0.0-3.0-1.0-2.5","70bfcbf96e64a0f4f4c530ab351bde095707e6344c0d1568129a83ab3a8159f2","arctic","arctic","null","","<p>Correct</p>","","null","","","","","","","","","","","","","","","","","","","",""
"fullscreen","24","57940","0.0-4.0","70bfcbf96e64a0f4f4c530ab351bde095707e6344c0d1568129a83ab3a8159f2","arctic","arctic","","","","","","","","","true","","","","","","","","","","","","","","","",""
"html-button-response","25","63517","0.0-5.0-0.0","70bfcbf96e64a0f4f4c530ab351bde095707e6344c0d1568129a83ab3a8159f2","arctic","arctic","5575","","<p>There are two blocks to this experiment.</p><p>In each block, you will hear a ~13.5 minute story. One of the stories will be scrambled. Please listen carefully to both stories and understand them as best you can.</p><p>After each story, you will be asked some questions to assess your comprehension.</p>","0","","","","","","","","","","","","","","","","","","","","",""
"html-button-response","26","77506","0.0-5.0-1.0","70bfcbf96e64a0f4f4c530ab351bde095707e6344c0d1568129a83ab3a8159f2","arctic","arctic","13989","","<p>During each story, there will be an additional task.</p><p>A letter will occasionally appear on the screen.</br>Your job is to - as quickly as you can - decide whether the letter is lowercase or uppercase and press one of two keys on the keyboard:</p><p>If the letter is <b>lowercase</b>, press key &lt;<b>x</b>&gt;.</p><p>If the letter is <b>uppercase</b>, press key &lt;<b>m</b>&gt;.</p>","0","","","","","","","","","","","","","","","","","","","","",""
"html-keyboard-response","27","88912","0.0-5.0-2.0","70bfcbf96e64a0f4f4c530ab351bde095707e6344c0d1568129a83ab3a8159f2","arctic","arctic","11406","","<p>Because we want your responses to be as quick as possible, please keep your index fingers over the keys while listening.</p><p>Each block lasts about 20 minutes.</p><p><b>Press &lt;x&gt; or &lt;m&gt; to start the first block!</b></p>","","88","","","","","","","","","","","","","","","","","","","",""
"html-keyboard-response","28","89414","0.0-6.0-0.0-0.0","70bfcbf96e64a0f4f4c530ab351bde095707e6344c0d1568129a83ab3a8159f2","arctic","arctic","null","","<div style=""font-size:60px;"" tabindex=""0"">+</div>","","null","","","","","","","","","","","","","","","","","","","",""
"dual-task","null","null","null","","arctic","arctic","1826.6000000238419","","G","null","77","77","1","arctic-dual-task","","G","uppercase","16000","0","4","70bfcbf96e64a0f4f4c530ab351bde095707e6344c0d1568129a83ab3a8159f2","16002.300000011921","1826.6000000238419","77","1","arctic","","","","",""
"dual-task","null","null","null","","arctic","arctic","1037.9000000357628","","D","null","77","77","1","arctic-dual-task","","D","uppercase","22000","0","4","70bfcbf96e64a0f4f4c530ab351bde095707e6344c0d1568129a83ab3a8159f2","22014.899999976158","1037.9000000357628","77","1","arctic","","","","",""
"dual-task","null","null","null","","arctic","arctic","827.1999999880791","","b","null","88","88","1","arctic-dual-task","","b","lowercase","30000","0","4","70bfcbf96e64a0f4f4c530ab351bde095707e6344c0d1568129a83ab3a8159f2","30010","827.1999999880791","88","1","arctic","","","","",""
"dual-task","null","null","null","","arctic","arctic","1030","","B","null","77","77","1","arctic-dual-task","","B","uppercase","40000","0","4","70bfcbf96e64a0f4f4c530ab351bde095707e6344c0d1568129a83ab3a8159f2","40014.59999996424","1030","77","1","arctic","","","","",""
"dual-task","null","null","null","","arctic","arctic","909.7999999523163","","h","null","88","88","1","arctic-dual-task","","h","lowercase","52000","0","4","70bfcbf96e64a0f4f4c530ab351bde095707e6344c0d1568129a83ab3a8159f2","52008.19999998808","909.7999999523163","88","1","arctic","","","","",""
"dual-task","null","null","null","","arctic","arctic","1845.9000000357628","","n","null","88","88","1","arctic-dual-task","","n","lowercase","60000","0","4","70bfcbf96e64a0f4f4c530ab351bde095707e6344c0d1568129a83ab3a8159f2","60012.89999997616","1845.9000000357628","88","1","arctic","","","","",""
"dual-task","null","null","null","","arctic","arctic","727.3000000119209","","F","null","77","77","1","arctic-dual-task","","F","uppercase","66000","0","4","70bfcbf96e64a0f4f4c530ab351bde095707e6344c0d1568129a83ab3a8159f2","66012.09999996424","727.3000000119209","77","1","arctic","","","","",""
"dual-task","null","null","null","","arctic","arctic","971.1000000238419","","b","null","77","88","0","arctic-dual-task","","b","lowercase","74000","0","4","70bfcbf96e64a0f4f4c530ab351bde095707e6344c0d1568129a83ab3a8159f2","74013.89999997616","971.1000000238419","77","0","arctic","","","","",""
"dual-task","null","null","null","","arctic","arctic","972.8000000119209","","D","null","77","77","1","arctic-dual-task","","D","uppercase","80000","0","4","70bfcbf96e64a0f4f4c530ab351bde095707e6344c0d1568129a83ab3a8159f2","80010.69999998808","972.8000000119209","77","1","arctic","","","","",""
"dual-task","null","null","null","","arctic","arctic","1367.3999999761581","","A","null","77","77","1","arctic-dual-task","","A","uppercase","94000","0","4","70bfcbf96e64a0f4f4c530ab351bde095707e6344c0d1568129a83ab3a8159f2","94011.59999996424","1367.3999999761581","77","1","arctic","","","","",""
"dual-task","null","null","null","","arctic","arctic","858.1000000238419","","B","null","77","77","1","arctic-dual-task","","B","uppercase","106000","0","4","70bfcbf96e64a0f4f4c530ab351bde095707e6344c0d1568129a83ab3a8159f2","106001.5","858.1000000238419","77","1","arctic","","","","",""
"dual-task","null","null","null","","arctic","arctic","965","","H","null","77","77","1","arctic-dual-task","","H","uppercase","118000","0","4","70bfcbf96e64a0f4f4c530ab351bde095707e6344c0d1568129a83ab3a8159f2","118004.80000001192","965","77","1","arctic","","","","",""
"dual-task","null","null","null","","arctic","arctic","1039","","q","null","88","88","1","arctic-dual-task","","q","lowercase","130000","0","4","70bfcbf96e64a0f4f4c530ab351bde095707e6344c0d1568129a83ab3a8159f2","130012.69999998808","1039","88","1","arctic","","","","",""
"dual-task","null","null","null","","arctic","arctic","788.3000000119209","","N","null","77","77","1","arctic-dual-task","","N","uppercase","142000","0","4","70bfcbf96e64a0f4f4c530ab351bde095707e6344c0d1568129a83ab3a8159f2","142003.39999997616","788.3000000119209","77","1","arctic","","","","",""
"dual-task","null","null","null","","arctic","arctic","1229.8999999761581","","f","null","88","88","1","arctic-dual-task","","f","lowercase","156000","0","4","70bfcbf96e64a0f4f4c530ab351bde095707e6344c0d1568129a83ab3a8159f2","156003.69999998808","1229.8999999761581","88","1","arctic","","","","",""
"dual-task","null","null","null","","arctic","arctic","839.6999999880791","","g","null","88","88","1","arctic-dual-task","","g","lowercase","162000","0","4","70bfcbf96e64a0f4f4c530ab351bde095707e6344c0d1568129a83ab3a8159f2","162004.5","839.6999999880791","88","1","arctic","","","","",""
"dual-task","null","null","null","","arctic","arctic","900.8000000119209","","g","null","88","88","1","arctic-dual-task","","g","lowercase","176000","0","4","70bfcbf96e64a0f4f4c530ab351bde095707e6344c0d1568129a83ab3a8159f2","176001.09999996424","900.8000000119209","88","1","arctic","","","","",""
"dual-task","null","null","null","","arctic","arctic","739.1999999880791","","H","null","77","77","1","arctic-dual-task","","H","uppercase","184000","0","4","70bfcbf96e64a0f4f4c530ab351bde095707e6344c0d1568129a83ab3a8159f2","184002.69999998808","739.1999999880791","77","1","arctic","","","","",""
"dual-task","null","null","null","","arctic","arctic","885.5","","a","null","88","88","1","arctic-dual-task","","a","lowercase","192000","0","4","70bfcbf96e64a0f4f4c530ab351bde095707e6344c0d1568129a83ab3a8159f2","192011.80000001192","885.5","88","1","arctic","","","","",""
"dual-task","null","null","null","","arctic","arctic","825.8999999761581","","h","null","88","88","1","arctic-dual-task","","h","lowercase","206000","0","4","70bfcbf96e64a0f4f4c530ab351bde095707e6344c0d1568129a83ab3a8159f2","206014.5","825.8999999761581","88","1","arctic","","","","",""
"dual-task","null","null","null","","arctic","arctic","912.5999999642372","","e","null","88","88","1","arctic-dual-task","","e","lowercase","216000","0","4","70bfcbf96e64a0f4f4c530ab351bde095707e6344c0d1568129a83ab3a8159f2","216011.69999998808","912.5999999642372","88","1","arctic","","","","",""
"dual-task","null","null","null","","arctic","arctic","896.6999999880791","","e","null","88","88","1","arctic-dual-task","","e","lowercase","226000","0","4","70bfcbf96e64a0f4f4c530ab351bde095707e6344c0d1568129a83ab3a8159f2","226014.30000001192","896.6999999880791","88","1","arctic","","","","",""
"dual-task","null","null","null","","arctic","arctic","875.8000000119209","","d","null","88","88","1","arctic-dual-task","","d","lowercase","238000","0","4","70bfcbf96e64a0f4f4c530ab351bde095707e6344c0d1568129a83ab3a8159f2","238010.5","875.8000000119209","88","1","arctic","","","","",""
"dual-task","null","null","null","","arctic","arctic","957.2999999523163","","t","null","88","88","1","arctic-dual-task","","t","lowercase","252000","0","4","70bfcbf96e64a0f4f4c530ab351bde095707e6344c0d1568129a83ab3a8159f2","252013.30000001192","957.2999999523163","88","1","arctic","","","","",""
"dual-task","null","null","null","","arctic","arctic","900.5","","T","null","77","77","1","arctic-dual-task","","T","uppercase","262000","0","4","70bfcbf96e64a0f4f4c530ab351bde095707e6344c0d1568129a83ab3a8159f2","262009.09999996424","900.5","77","1","arctic","","","","",""
"dual-task","null","null","null","","arctic","arctic","945.6000000238419","","h","null","88","88","1","arctic-dual-task","","h","lowercase","272000","0","4","70bfcbf96e64a0f4f4c530ab351bde095707e6344c0d1568129a83ab3a8159f2","272003.09999996424","945.6000000238419","88","1","arctic","","","","",""
"dual-task","null","null","null","","arctic","arctic","863.5","","G","null","77","77","1","arctic-dual-task","","G","uppercase","280000","0","4","70bfcbf96e64a0f4f4c530ab351bde095707e6344c0d1568129a83ab3a8159f2","280005.09999996424","863.5","77","1","arctic","","","","",""
"dual-task","null","null","null","","arctic","arctic","762","","q","null","88","88","1","arctic-dual-task","","q","lowercase","288000","0","4","70bfcbf96e64a0f4f4c530ab351bde095707e6344c0d1568129a83ab3a8159f2","288013.6999999881","762","88","1","arctic","","","","",""
"dual-task","null","null","null","","arctic","arctic","938.4000000357628","","F","null","77","77","1","arctic-dual-task","","F","uppercase","294000","0","4","70bfcbf96e64a0f4f4c530ab351bde095707e6344c0d1568129a83ab3a8159f2","294005.09999996424","938.4000000357628","77","1","arctic","","","","",""
"dual-task","null","null","null","","arctic","arctic","719.7000000476837","","E","null","77","77","1","arctic-dual-task","","E","uppercase","302000","0","4","70bfcbf96e64a0f4f4c530ab351bde095707e6344c0d1568129a83ab3a8159f2","302003","719.7000000476837","77","1","arctic","","","","",""
"dual-task","null","null","null","","arctic","arctic","741.8000000119209","","A","null","77","77","1","arctic-dual-task","","A","uppercase","308000","0","4","70bfcbf96e64a0f4f4c530ab351bde095707e6344c0d1568129a83ab3a8159f2","308010.8000000119","741.8000000119209","77","1","arctic","","","","",""
"dual-task","null","null","null","","arctic","arctic","734.6999999880791","","b","null","88","88","1","arctic-dual-task","","b","lowercase","318000","0","4","70bfcbf96e64a0f4f4c530ab351bde095707e6344c0d1568129a83ab3a8159f2","318005.3000000119","734.6999999880791","88","1","arctic","","","","",""
"dual-task","null","null","null","","arctic","arctic","1170.0999999642372","","B","null","77","77","1","arctic-dual-task","","B","uppercase","324000","0","4","70bfcbf96e64a0f4f4c530ab351bde095707e6344c0d1568129a83ab3a8159f2","324014.89999997616","1170.0999999642372","77","1","arctic","","","","",""
"dual-task","null","null","null","","arctic","arctic","1083.6000000238419","","f","null","88","88","1","arctic-dual-task","","f","lowercase","330000","0","4","70bfcbf96e64a0f4f4c530ab351bde095707e6344c0d1568129a83ab3a8159f2","330001.09999996424","1083.6000000238419","88","1","arctic","","","","",""
"dual-task","null","null","null","","arctic","arctic","1111.3999999761581","","t","null","88","88","1","arctic-dual-task","","t","lowercase","338000","0","4","70bfcbf96e64a0f4f4c530ab351bde095707e6344c0d1568129a83ab3a8159f2","338014.3000000119","1111.3999999761581","88","1","arctic","","","","",""
"dual-task","null","null","null","","arctic","arctic","1321.8999999761581","","n","null","88","88","1","arctic-dual-task","","n","lowercase","348000","0","4","70bfcbf96e64a0f4f4c530ab351bde095707e6344c0d1568129a83ab3a8159f2","348010.39999997616","1321.8999999761581","88","1","arctic","","","","",""
"dual-task","null","null","null","","arctic","arctic","868.6000000238419","","T","null","77","77","1","arctic-dual-task","","T","uppercase","362000","0","4","70bfcbf96e64a0f4f4c530ab351bde095707e6344c0d1568129a83ab3a8159f2","362006.6999999881","868.6000000238419","77","1","arctic","","","","",""
"dual-task","null","null","null","","arctic","arctic","1057.800000011921","","R","null","77","77","1","arctic-dual-task","","R","uppercase","374000","0","4","70bfcbf96e64a0f4f4c530ab351bde095707e6344c0d1568129a83ab3a8159f2","374008.8000000119","1057.800000011921","77","1","arctic","","","","",""
"dual-task","null","null","null","","arctic","arctic","989.9000000357628","","D","null","77","77","1","arctic-dual-task","","D","uppercase","384000","0","4","70bfcbf96e64a0f4f4c530ab351bde095707e6344c0d1568129a83ab3a8159f2","384001.89999997616","989.9000000357628","77","1","arctic","","","","",""
"dual-task","null","null","null","","arctic","arctic","699.8999999761581","","A","null","77","77","1","arctic-dual-task","","A","uppercase","390000","0","4","70bfcbf96e64a0f4f4c530ab351bde095707e6344c0d1568129a83ab3a8159f2","390013.5","699.8999999761581","77","1","arctic","","","","",""
"dual-task","null","null","null","","arctic","arctic","731.8999999761581","","N","null","77","77","1","arctic-dual-task","","N","uppercase","402000","0","4","70bfcbf96e64a0f4f4c530ab351bde095707e6344c0d1568129a83ab3a8159f2","402003.1999999881","731.8999999761581","77","1","arctic","","","","",""
"dual-task","null","null","null","","arctic","arctic","1080.6000000238419","","R","null","77","77","1","arctic-dual-task","","R","uppercase","410000","0","4","70bfcbf96e64a0f4f4c530ab351bde095707e6344c0d1568129a83ab3a8159f2","410013.6999999881","1080.6000000238419","77","1","arctic","","","","",""
"dual-task","null","null","null","","arctic","arctic","1080.699999988079","","a","null","88","88","1","arctic-dual-task","","a","lowercase","416000","0","4","70bfcbf96e64a0f4f4c530ab351bde095707e6344c0d1568129a83ab3a8159f2","416009.6999999881","1080.699999988079","88","1","arctic","","","","",""
"dual-task","null","null","null","","arctic","arctic","1282.5","","r","null","88","88","1","arctic-dual-task","","r","lowercase","426000","0","4","70bfcbf96e64a0f4f4c530ab351bde095707e6344c0d1568129a83ab3a8159f2","426010","1282.5","88","1","arctic","","","","",""
"dual-task","null","null","null","","arctic","arctic","886.4000000357628","","E","null","77","77","1","arctic-dual-task","","E","uppercase","434000","0","4","70bfcbf96e64a0f4f4c530ab351bde095707e6344c0d1568129a83ab3a8159f2","434010.3000000119","886.4000000357628","77","1","arctic","","","","",""
"dual-task","null","null","null","","arctic","arctic","1085.800000011921","","a","null","88","88","1","arctic-dual-task","","a","lowercase","444000","0","4","70bfcbf96e64a0f4f4c530ab351bde095707e6344c0d1568129a83ab3a8159f2","444007.09999996424","1085.800000011921","88","1","arctic","","","","",""
"dual-task","null","null","null","","arctic","arctic","1004.1999999880791","","H","null","77","77","1","arctic-dual-task","","H","uppercase","458000","0","4","70bfcbf96e64a0f4f4c530ab351bde095707e6344c0d1568129a83ab3a8159f2","458012.8000000119","1004.1999999880791","77","1","arctic","","","","",""
"dual-task","null","null","null","","arctic","arctic","786.6000000238419","","G","null","77","77","1","arctic-dual-task","","G","uppercase","466000","0","4","70bfcbf96e64a0f4f4c530ab351bde095707e6344c0d1568129a83ab3a8159f2","466010.3000000119","786.6000000238419","77","1","arctic","","","","",""
"dual-task","null","null","null","","arctic","arctic","755.8000000119209","","Q","null","77","77","1","arctic-dual-task","","Q","uppercase","478000","0","4","70bfcbf96e64a0f4f4c530ab351bde095707e6344c0d1568129a83ab3a8159f2","478012.39999997616","755.8000000119209","77","1","arctic","","","","",""
"dual-task","null","null","null","","arctic","arctic","845.5","","R","null","77","77","1","arctic-dual-task","","R","uppercase","492000","0","4","70bfcbf96e64a0f4f4c530ab351bde095707e6344c0d1568129a83ab3a8159f2","492013.89999997616","845.5","77","1","arctic","","","","",""
"dual-task","null","null","null","","arctic","arctic","1126.800000011921","","e","null","88","88","1","arctic-dual-task","","e","lowercase","506000","0","4","70bfcbf96e64a0f4f4c530ab351bde095707e6344c0d1568129a83ab3a8159f2","506014.39999997616","1126.800000011921","88","1","arctic","","","","",""
"dual-task","null","null","null","","arctic","arctic","767.5","","G","null","77","77","1","arctic-dual-task","","G","uppercase","520000","0","4","70bfcbf96e64a0f4f4c530ab351bde095707e6344c0d1568129a83ab3a8159f2","520009.59999996424","767.5","77","1","arctic","","","","",""
"dual-task","null","null","null","","arctic","arctic","831.9000000357628","","d","null","88","88","1","arctic-dual-task","","d","lowercase","532000","0","4","70bfcbf96e64a0f4f4c530ab351bde095707e6344c0d1568129a83ab3a8159f2","532007.5999999642","831.9000000357628","88","1","arctic","","","","",""
"dual-task","null","null","null","","arctic","arctic","784.4000000357628","","A","null","77","77","1","arctic-dual-task","","A","uppercase","544000","0","4","70bfcbf96e64a0f4f4c530ab351bde095707e6344c0d1568129a83ab3a8159f2","544004.8999999762","784.4000000357628","77","1","arctic","","","","",""
"dual-task","null","null","null","","arctic","arctic","1448.5","","r","null","88","88","1","arctic-dual-task","","r","lowercase","550000","0","4","70bfcbf96e64a0f4f4c530ab351bde095707e6344c0d1568129a83ab3a8159f2","550002.5999999642","1448.5","88","1","arctic","","","","",""
"dual-task","null","null","null","","arctic","arctic","860.8999999761581","","E","null","77","77","1","arctic-dual-task","","E","uppercase","558000","0","4","70bfcbf96e64a0f4f4c530ab351bde095707e6344c0d1568129a83ab3a8159f2","558015.5","860.8999999761581","77","1","arctic","","","","",""
"dual-task","null","null","null","","arctic","arctic","1277.2000000476837","","f","null","88","88","1","arctic-dual-task","","f","lowercase","566000","0","4","70bfcbf96e64a0f4f4c530ab351bde095707e6344c0d1568129a83ab3a8159f2","566010.0999999642","1277.2000000476837","88","1","arctic","","","","",""
"dual-task","null","null","null","","arctic","arctic","1044","","F","null","77","77","1","arctic-dual-task","","F","uppercase","580000","0","4","70bfcbf96e64a0f4f4c530ab351bde095707e6344c0d1568129a83ab3a8159f2","580008.6999999881","1044","77","1","arctic","","","","",""
"dual-task","null","null","null","","arctic","arctic","1193.5","","d","null","88","88","1","arctic-dual-task","","d","lowercase","588000","0","4","70bfcbf96e64a0f4f4c530ab351bde095707e6344c0d1568129a83ab3a8159f2","588002.3999999762","1193.5","88","1","arctic","","","","",""
"dual-task","null","null","null","","arctic","arctic","784","","r","null","88","88","1","arctic-dual-task","","r","lowercase","598000","0","4","70bfcbf96e64a0f4f4c530ab351bde095707e6344c0d1568129a83ab3a8159f2","598007","784","88","1","arctic","","","","",""
"dual-task","null","null","null","","arctic","arctic","886.6000000238419","","N","null","77","77","1","arctic-dual-task","","N","uppercase","606000","0","4","70bfcbf96e64a0f4f4c530ab351bde095707e6344c0d1568129a83ab3a8159f2","606012.5","886.6000000238419","77","1","arctic","","","","",""
"dual-task","null","null","null","","arctic","arctic","978.5999999642372","","Q","null","77","77","1","arctic-dual-task","","Q","uppercase","616000","0","4","70bfcbf96e64a0f4f4c530ab351bde095707e6344c0d1568129a83ab3a8159f2","616015","978.5999999642372","77","1","arctic","","","","",""
"dual-task","null","null","null","","arctic","arctic","1233","","h","null","88","88","1","arctic-dual-task","","h","lowercase","630000","0","4","70bfcbf96e64a0f4f4c530ab351bde095707e6344c0d1568129a83ab3a8159f2","630012.8000000119","1233","88","1","arctic","","","","",""
"dual-task","null","null","null","","arctic","arctic","902.6999999880791","","D","null","77","77","1","arctic-dual-task","","D","uppercase","640000","0","4","70bfcbf96e64a0f4f4c530ab351bde095707e6344c0d1568129a83ab3a8159f2","640002.3000000119","902.6999999880791","77","1","arctic","","","","",""
"dual-task","null","null","null","","arctic","arctic","852.4000000357628","","b","null","88","88","1","arctic-dual-task","","b","lowercase","652000","0","4","70bfcbf96e64a0f4f4c530ab351bde095707e6344c0d1568129a83ab3a8159f2","652010.0999999642","852.4000000357628","88","1","arctic","","","","",""
"dual-task","null","null","null","","arctic","arctic","1191.5","","E","null","77","77","1","arctic-dual-task","","E","uppercase","666000","0","4","70bfcbf96e64a0f4f4c530ab351bde095707e6344c0d1568129a83ab3a8159f2","666006.3999999762","1191.5","77","1","arctic","","","","",""
"dual-task","null","null","null","","arctic","arctic","711","","R","null","77","77","1","arctic-dual-task","","R","uppercase","676000","0","4","70bfcbf96e64a0f4f4c530ab351bde095707e6344c0d1568129a83ab3a8159f2","676012","711","77","1","arctic","","","","",""
"dual-task","null","null","null","","arctic","arctic","NA","","e","null","NA","88","0","arctic-dual-task","","e","lowercase","684000","1","4","70bfcbf96e64a0f4f4c530ab351bde095707e6344c0d1568129a83ab3a8159f2","684014.8000000119","NA","NA","0","arctic","","","","",""
"dual-task","null","null","null","","arctic","arctic","777.5","","B","null","77","77","1","arctic-dual-task","","B","uppercase","694000","0","4","70bfcbf96e64a0f4f4c530ab351bde095707e6344c0d1568129a83ab3a8159f2","694002.5","777.5","77","1","arctic","","","","",""
"dual-task","null","null","null","","arctic","arctic","NA","","g","null","NA","88","0","arctic-dual-task","","g","lowercase","706000","1","4","70bfcbf96e64a0f4f4c530ab351bde095707e6344c0d1568129a83ab3a8159f2","706013.5999999642","NA","NA","0","arctic","","","","",""
"dual-task","null","null","null","","arctic","arctic","915.6000000238419","","Q","null","77","77","1","arctic-dual-task","","Q","uppercase","714000","0","4","70bfcbf96e64a0f4f4c530ab351bde095707e6344c0d1568129a83ab3a8159f2","714004.5999999642","915.6000000238419","77","1","arctic","","","","",""
"dual-task","null","null","null","","arctic","arctic","769.4000000357628","","g","null","88","88","1","arctic-dual-task","","g","lowercase","728000","0","4","70bfcbf96e64a0f4f4c530ab351bde095707e6344c0d1568129a83ab3a8159f2","728009.8999999762","769.4000000357628","88","1","arctic","","","","",""
"dual-task","null","null","null","","arctic","arctic","769","","d","null","88","88","1","arctic-dual-task","","d","lowercase","742000","0","4","70bfcbf96e64a0f4f4c530ab351bde095707e6344c0d1568129a83ab3a8159f2","742001.5","769","88","1","arctic","","","","",""
"dual-task","null","null","null","","arctic","arctic","848.0999999642372","","H","null","77","77","1","arctic-dual-task","","H","uppercase","756000","0","4","70bfcbf96e64a0f4f4c530ab351bde095707e6344c0d1568129a83ab3a8159f2","756009.3000000119","848.0999999642372","77","1","arctic","","","","",""
"dual-task","null","null","null","","arctic","arctic","832.6000000238419","","a","null","88","88","1","arctic-dual-task","","a","lowercase","762000","0","4","70bfcbf96e64a0f4f4c530ab351bde095707e6344c0d1568129a83ab3a8159f2","762011","832.6000000238419","88","1","arctic","","","","",""
"dual-task","null","null","null","","arctic","arctic","878.3999999761581","","f","null","88","88","1","arctic-dual-task","","f","lowercase","770000","0","4","70bfcbf96e64a0f4f4c530ab351bde095707e6344c0d1568129a83ab3a8159f2","770009.3000000119","878.3999999761581","88","1","arctic","","","","",""
"dual-task","null","null","null","","arctic","arctic","722.9000000357628","","N","null","77","77","1","arctic-dual-task","","N","uppercase","776000","0","4","70bfcbf96e64a0f4f4c530ab351bde095707e6344c0d1568129a83ab3a8159f2","776007.5999999642","722.9000000357628","77","1","arctic","","","","",""
"dual-task","null","null","null","","arctic","arctic","996.5","","q","null","88","88","1","arctic-dual-task","","q","lowercase","784000","0","4","70bfcbf96e64a0f4f4c530ab351bde095707e6344c0d1568129a83ab3a8159f2","784002.0999999642","996.5","88","1","arctic","","","","",""
"audio-keyboard-response","29","887412","0.0-6.0-0.0-1.0","70bfcbf96e64a0f4f4c530ab351bde095707e6344c0d1568129a83ab3a8159f2","arctic","arctic","null","","audio/story_arctic_scrambled.mp3","","null","","","","","","","","","","","","","","","","","","","",""
"html-button-response","30","992234","0.0-6.0-0.0-2.0","70bfcbf96e64a0f4f4c530ab351bde095707e6344c0d1568129a83ab3a8159f2","arctic","arctic","104820","","<p>This concludes the story. Thank you for listening.</p><p>You will now answer some questions about the content of the story.</p>","0","","","","","","","","","","","","","","","","","","","","",""
"survey-multi-choice","31","1000473","0.0-6.0-0.0-3.0-0.0","70bfcbf96e64a0f4f4c530ab351bde095707e6344c0d1568129a83ab3a8159f2","arctic","arctic","8236","","<b>What is the name of the narrator&#39;s neighbour?</b>","","","","1","arctic-comprehension","","","","","","","","","","","","","{""Q0"":""Dave""}","","","",""
"survey-multi-choice","32","1011390","0.0-6.0-0.0-3.0-0.1","70bfcbf96e64a0f4f4c530ab351bde095707e6344c0d1568129a83ab3a8159f2","arctic","arctic","10664","","<b>Which dog on the narrator&#39;s dog team never followed instructions?</b>","","","","1","arctic-comprehension","","","","","","","","","","","","","{""Q0"":""Robert""}","","","",""
"survey-multi-choice","33","1027147","0.0-6.0-0.0-3.0-0.2","70bfcbf96e64a0f4f4c530ab351bde095707e6344c0d1568129a83ab3a8159f2","arctic","arctic","15498","","<b>How did the narrator&#39;s encounter with the polar bears end?</b>","","","","1","arctic-comprehension","","","","","","","","","","","","","{""Q0"":""The bears walked back to their den.""}","","","",""
"survey-multi-choice","34","1041045","0.0-6.0-0.0-3.0-0.3","70bfcbf96e64a0f4f4c530ab351bde095707e6344c0d1568129a83ab3a8159f2","arctic","arctic","13644","","<b>How did the narrator&#39;s neighbour respond when she told him about her expedition?</b>","","","","0","arctic-comprehension","","","","","","","","","","","","","{""Q0"":""He offered to cover all expenses.""}","","","",""
"survey-multi-choice","35","1050039","0.0-6.0-0.0-3.0-0.4","70bfcbf96e64a0f4f4c530ab351bde095707e6344c0d1568129a83ab3a8159f2","arctic","arctic","8736","","<b>What was the objective of the narrator&#39;s expedition?</b>","","","","1","arctic-comprehension","","","","","","","","","","","","","{""Q0"":""Dogsled across Arctic America""}","","","",""
"survey-multi-choice","36","1058157","0.0-6.0-0.0-3.0-0.5","70bfcbf96e64a0f4f4c530ab351bde095707e6344c0d1568129a83ab3a8159f2","arctic","arctic","7864","","<b>How many sponsorships did the narrator receive to support her expedition?</b>","","","","0","arctic-comprehension","","","","","","","","","","","","","{""Q0"":""One""}","","","",""
"survey-multi-choice","37","1068071","0.0-6.0-0.0-3.0-0.6","70bfcbf96e64a0f4f4c530ab351bde095707e6344c0d1568129a83ab3a8159f2","arctic","arctic","9651","","<b>What did the narrator do for leisure while in her tent?</b>","","","","1","arctic-comprehension","","","","","","","","","","","","","{""Q0"":""Read""}","","","",""
"survey-multi-choice","38","1079309","0.0-6.0-0.0-3.0-0.7","70bfcbf96e64a0f4f4c530ab351bde095707e6344c0d1568129a83ab3a8159f2","arctic","arctic","10983","","<b>How did the dogs respond when they saw the bears?</b>","","","","0","arctic-comprehension","","","","","","","","","","","","","{""Q0"":""Barked aggressively""}","","","",""
"survey-multi-choice","39","1089893","0.0-6.0-0.0-3.0-0.8","70bfcbf96e64a0f4f4c530ab351bde095707e6344c0d1568129a83ab3a8159f2","arctic","arctic","10330","","<b>How did the narrator prepare for her expedition?</b>","","","","1","arctic-comprehension","","","","","","","","","","","","","{""Q0"":""Trained in Alaska learning how to dogsled""}","","","",""
"survey-multi-choice","40","1108582","0.0-6.0-0.0-3.0-0.9","70bfcbf96e64a0f4f4c530ab351bde095707e6344c0d1568129a83ab3a8159f2","arctic","arctic","18436","","<b>What were the weather conditions in the Arctic like the winter of the narrator&#39;s expedition?</b>","","","","0","arctic-comprehension","","","","","","","","","","","","","{""Q0"":""It was the warmest winter in recorded history.""}","","","",""
"html-button-response","41","1112648","0.0-6.0-0.0-4.0","70bfcbf96e64a0f4f4c530ab351bde095707e6344c0d1568129a83ab3a8159f2","arctic","arctic","3814","","<p>Thank you for your responses.</p><p>You will now answer some questions about your impressions of the story.</p>","0","","","","","","","","","","","","","","","","","","","","",""
"html-button-response","42","1118948","0.0-6.0-0.0-5.0-0.0","70bfcbf96e64a0f4f4c530ab351bde095707e6344c0d1568129a83ab3a8159f2","arctic","arctic","6300","","MS3","3","","","","arctic-engagement","","","","","","","","","","","","","","4","mental-sim","",""
"html-button-response","43","1127604","0.0-6.0-0.0-5.0-0.1","70bfcbf96e64a0f4f4c530ab351bde095707e6344c0d1568129a83ab3a8159f2","arctic","arctic","8404","","MS2","0","","","","arctic-engagement","","","","","","","","","","","","","","1","mental-sim","",""
"html-button-response","44","1134074","0.0-6.0-0.0-5.0-0.2","70bfcbf96e64a0f4f4c530ab351bde095707e6344c0d1568129a83ab3a8159f2","arctic","arctic","6218","","E6","0","","","","arctic-engagement","","","","","","","","","","","","","","1","enjoyment","",""
"html-button-response","45","1135961","0.0-6.0-0.0-5.0-0.3","70bfcbf96e64a0f4f4c530ab351bde095707e6344c0d1568129a83ab3a8159f2","arctic","arctic","1635","","E1","0","","","","arctic-engagement","","","","","","","","","","","","","","1","enjoyment","",""
"html-button-response","46","1141414","0.0-6.0-0.0-5.0-0.4","70bfcbf96e64a0f4f4c530ab351bde095707e6344c0d1568129a83ab3a8159f2","arctic","arctic","5201","","E10","0","","","","arctic-engagement","","","","","","","","","","","","","","1","enjoyment","",""
"html-button-response","47","1146622","0.0-6.0-0.0-5.0-0.5","70bfcbf96e64a0f4f4c530ab351bde095707e6344c0d1568129a83ab3a8159f2","arctic","arctic","4955","","EE2","0","","","","arctic-engagement","","","","","","","","","","","","","","1","emo-engage","",""
"html-button-response","48","1150273","0.0-6.0-0.0-5.0-0.6","70bfcbf96e64a0f4f4c530ab351bde095707e6344c0d1568129a83ab3a8159f2","arctic","arctic","3400","","EE1","0","","","","arctic-engagement","","","","","","","","","","","","","","1","emo-engage","",""
"html-button-response","49","1154139","0.0-6.0-0.0-5.0-0.7","70bfcbf96e64a0f4f4c530ab351bde095707e6344c0d1568129a83ab3a8159f2","arctic","arctic","3614","","A2","2","","","","arctic-engagement","","","","","","","","","","","","","","3","absorption","",""
"html-button-response","50","1157680","0.0-6.0-0.0-5.0-0.8","70bfcbf96e64a0f4f4c530ab351bde095707e6344c0d1568129a83ab3a8159f2","arctic","arctic","3286","","EE5","2","","","","arctic-engagement","","","","","","","","","","","","","","3","emo-engage","",""
"html-button-response","51","1163102","0.0-6.0-0.0-5.0-0.9","70bfcbf96e64a0f4f4c530ab351bde095707e6344c0d1568129a83ab3a8159f2","arctic","arctic","5170","","E7","2","","","","arctic-engagement","","","","","","","","","","","","","","3","enjoyment","",""
"html-button-response","52","1169075","0.0-6.0-0.0-5.0-0.10","70bfcbf96e64a0f4f4c530ab351bde095707e6344c0d1568129a83ab3a8159f2","arctic","arctic","5722","","A4","0","","","","arctic-engagement","","","","","","","","","","","","","","1","absorption","",""
"html-button-response","53","1171120","0.0-6.0-0.0-5.0-0.11","70bfcbf96e64a0f4f4c530ab351bde095707e6344c0d1568129a83ab3a8159f2","arctic","arctic","1792","","A3","0","","","","arctic-engagement","","","","","","","","","","","","","","1","absorption","",""
"html-button-response","54","1180706","0.0-6.0-0.0-5.0-0.12","70bfcbf96e64a0f4f4c530ab351bde095707e6344c0d1568129a83ab3a8159f2","arctic","arctic","9335","","MS1","3","","","","arctic-engagement","","","","","","","","","","","","","","4","mental-sim","",""
"html-button-response","55","1185883","0.0-6.0-0.0-5.0-0.13","70bfcbf96e64a0f4f4c530ab351bde095707e6344c0d1568129a83ab3a8159f2","arctic","arctic","4927","","A5","0","","","","arctic-engagement","","","","","","","","","","","","","","1","absorption","",""
"html-button-response","56","1188336","0.0-6.0-0.0-5.0-0.14","70bfcbf96e64a0f4f4c530ab351bde095707e6344c0d1568129a83ab3a8159f2","arctic","arctic","2201","","E8","0","","","","arctic-engagement","","","","","","","","","","","","","","1","enjoyment","",""
"html-button-response","57","1195492","0.0-6.0-0.0-5.0-0.15","70bfcbf96e64a0f4f4c530ab351bde095707e6344c0d1568129a83ab3a8159f2","arctic","arctic","6904","","A1","0","","","","arctic-engagement","","","","","","","","","","","","","","1","absorption","",""
"html-button-response","58","1198043","0.0-6.0-0.0-5.0-0.16","70bfcbf96e64a0f4f4c530ab351bde095707e6344c0d1568129a83ab3a8159f2","arctic","arctic","2299","","EE3","1","","","","arctic-engagement","","","","","","","","","","","","","","2","emo-engage","",""
"html-button-response","59","1204941","0.0-6.0-0.0-5.0-0.17","70bfcbf96e64a0f4f4c530ab351bde095707e6344c0d1568129a83ab3a8159f2","arctic","arctic","6647","","EE4","2","","","","arctic-engagement","","","","","","","","","","","","","","3","emo-engage","",""
"html-keyboard-response","60","1222625","0.0-6.0-1.0","70bfcbf96e64a0f4f4c530ab351bde095707e6344c0d1568129a83ab3a8159f2","arctic","arctic","17430","","<p>Thank you for your responses. You will now listen to the second story.</p><p>Remember, as you listen to the story you will see letters appear on the screen.</br>As quickly as possible, press <b>&lt;x&gt;</b> if the letter is lowercase and <b>&lt;m&gt;</b> if the letter is uppercase.</p><p>Press <b>&lt;x&gt;</b> or <b>&lt;m&gt;</b> to begin listening!</p>","","88","","","","","","","","","","","","","","","","","","","",""
"html-keyboard-response","61","1223127","0.0-6.0-2.0-0.0","70bfcbf96e64a0f4f4c530ab351bde095707e6344c0d1568129a83ab3a8159f2","arctic","arctic","null","","<div style=""font-size:60px;"" tabindex=""0"">+</div>","","null","","","","","","","","","","","","","","","","","","","",""
"dual-task","null","null","null","","arctic","arctic","1353.199999988079","","G","null","77","77","1","swim-dual-task","","G","uppercase","16000","0","4","70bfcbf96e64a0f4f4c530ab351bde095707e6344c0d1568129a83ab3a8159f2","16009.5","1353.199999988079","77","1","swim","","","","",""
"dual-task","null","null","null","","arctic","arctic","866.8000000119209","","h","null","88","88","1","swim-dual-task","","h","lowercase","22000","0","4","70bfcbf96e64a0f4f4c530ab351bde095707e6344c0d1568129a83ab3a8159f2","22000.30000001192","866.8000000119209","88","1","swim","","","","",""
"dual-task","null","null","null","","arctic","arctic","672.5999999642372","","r","null","88","88","1","swim-dual-task","","r","lowercase","36000","0","4","70bfcbf96e64a0f4f4c530ab351bde095707e6344c0d1568129a83ab3a8159f2","36003.200000047684","672.5999999642372","88","1","swim","","","","",""
"dual-task","null","null","null","","arctic","arctic","1267.5","","D","null","77","77","1","swim-dual-task","","D","uppercase","46000","0","4","70bfcbf96e64a0f4f4c530ab351bde095707e6344c0d1568129a83ab3a8159f2","45999.40000003576","1267.5","77","1","swim","","","","",""
"dual-task","null","null","null","","arctic","arctic","860.3999999761581","","A","null","77","77","1","swim-dual-task","","A","uppercase","52000","0","4","70bfcbf96e64a0f4f4c530ab351bde095707e6344c0d1568129a83ab3a8159f2","52011.60000002384","860.3999999761581","77","1","swim","","","","",""
"dual-task","null","null","null","","arctic","arctic","1261.300000011921","","D","null","77","77","1","swim-dual-task","","D","uppercase","60000","0","4","70bfcbf96e64a0f4f4c530ab351bde095707e6344c0d1568129a83ab3a8159f2","60012.80000001192","1261.300000011921","77","1","swim","","","","",""
"dual-task","null","null","null","","arctic","arctic","923.8999999761581","","F","null","77","77","1","swim-dual-task","","F","uppercase","70000","0","4","70bfcbf96e64a0f4f4c530ab351bde095707e6344c0d1568129a83ab3a8159f2","69999.80000001192","923.8999999761581","77","1","swim","","","","",""
"dual-task","null","null","null","","arctic","arctic","738.5999999642372","","e","null","88","88","1","swim-dual-task","","e","lowercase","84000","0","4","70bfcbf96e64a0f4f4c530ab351bde095707e6344c0d1568129a83ab3a8159f2","84005.60000002384","738.5999999642372","88","1","swim","","","","",""
"dual-task","null","null","null","","arctic","arctic","838","","r","null","88","88","1","swim-dual-task","","r","lowercase","90000","0","4","70bfcbf96e64a0f4f4c530ab351bde095707e6344c0d1568129a83ab3a8159f2","89999.90000003576","838","88","1","swim","","","","",""
"dual-task","null","null","null","","arctic","arctic","1021.1999999880791","","G","null","77","77","1","swim-dual-task","","G","uppercase","102000","0","4","70bfcbf96e64a0f4f4c530ab351bde095707e6344c0d1568129a83ab3a8159f2","101999.60000002384","1021.1999999880791","77","1","swim","","","","",""
"dual-task","null","null","null","","arctic","arctic","745.5","","N","null","77","77","1","swim-dual-task","","N","uppercase","114000","0","4","70bfcbf96e64a0f4f4c530ab351bde095707e6344c0d1568129a83ab3a8159f2","114005.40000003576","745.5","77","1","swim","","","","",""
"dual-task","null","null","null","","arctic","arctic","835.1000000238419","","t","null","88","88","1","swim-dual-task","","t","lowercase","122000","0","4","70bfcbf96e64a0f4f4c530ab351bde095707e6344c0d1568129a83ab3a8159f2","122007.40000003576","835.1000000238419","88","1","swim","","","","",""
"dual-task","null","null","null","","arctic","arctic","711.6999999880791","","H","null","77","77","1","swim-dual-task","","H","uppercase","130000","0","4","70bfcbf96e64a0f4f4c530ab351bde095707e6344c0d1568129a83ab3a8159f2","130004.30000001192","711.6999999880791","77","1","swim","","","","",""
"dual-task","null","null","null","","arctic","arctic","786.5","","h","null","88","88","1","swim-dual-task","","h","lowercase","142000","0","4","70bfcbf96e64a0f4f4c530ab351bde095707e6344c0d1568129a83ab3a8159f2","141999","786.5","88","1","swim","","","","",""
"dual-task","null","null","null","","arctic","arctic","865.1000000238419","","H","null","77","77","1","swim-dual-task","","H","uppercase","148000","0","4","70bfcbf96e64a0f4f4c530ab351bde095707e6344c0d1568129a83ab3a8159f2","148000.60000002384","865.1000000238419","77","1","swim","","","","",""
"dual-task","null","null","null","","arctic","arctic","726","","g","null","88","88","1","swim-dual-task","","g","lowercase","158000","0","4","70bfcbf96e64a0f4f4c530ab351bde095707e6344c0d1568129a83ab3a8159f2","158002.90000003576","726","88","1","swim","","","","",""
"dual-task","null","null","null","","arctic","arctic","794.4000000357628","","q","null","88","88","1","swim-dual-task","","q","lowercase","166000","0","4","70bfcbf96e64a0f4f4c530ab351bde095707e6344c0d1568129a83ab3a8159f2","166000.40000003576","794.4000000357628","88","1","swim","","","","",""
"dual-task","null","null","null","","arctic","arctic","942.5","","t","null","88","88","1","swim-dual-task","","t","lowercase","180000","0","4","70bfcbf96e64a0f4f4c530ab351bde095707e6344c0d1568129a83ab3a8159f2","180002.80000001192","942.5","88","1","swim","","","","",""
"dual-task","null","null","null","","arctic","arctic","950.2000000476837","","e","null","88","88","1","swim-dual-task","","e","lowercase","192000","0","4","70bfcbf96e64a0f4f4c530ab351bde095707e6344c0d1568129a83ab3a8159f2","192000.5","950.2000000476837","88","1","swim","","","","",""
"dual-task","null","null","null","","arctic","arctic","929.5999999642372","","b","null","88","88","1","swim-dual-task","","b","lowercase","200000","0","4","70bfcbf96e64a0f4f4c530ab351bde095707e6344c0d1568129a83ab3a8159f2","199999.30000001192","929.5999999642372","88","1","swim","","","","",""
"dual-task","null","null","null","","arctic","arctic","1107","","G","null","77","77","1","swim-dual-task","","G","uppercase","206000","0","4","70bfcbf96e64a0f4f4c530ab351bde095707e6344c0d1568129a83ab3a8159f2","206001.40000003576","1107","77","1","swim","","","","",""
"dual-task","null","null","null","","arctic","arctic","1235.699999988079","","r","null","88","88","1","swim-dual-task","","r","lowercase","216000","0","4","70bfcbf96e64a0f4f4c530ab351bde095707e6344c0d1568129a83ab3a8159f2","216001.30000001192","1235.699999988079","88","1","swim","","","","",""
"dual-task","null","null","null","","arctic","arctic","1654","","R","null","77","77","1","swim-dual-task","","R","uppercase","222000","0","4","70bfcbf96e64a0f4f4c530ab351bde095707e6344c0d1568129a83ab3a8159f2","222008.10000002384","1654","77","1","swim","","","","",""
"dual-task","null","null","null","","arctic","arctic","992","","d","null","88","88","1","swim-dual-task","","d","lowercase","232000","0","4","70bfcbf96e64a0f4f4c530ab351bde095707e6344c0d1568129a83ab3a8159f2","232014.20000004768","992","88","1","swim","","","","",""
"dual-task","null","null","null","","arctic","arctic","1251.699999988079","","f","null","88","88","1","swim-dual-task","","f","lowercase","244000","0","4","70bfcbf96e64a0f4f4c530ab351bde095707e6344c0d1568129a83ab3a8159f2","244000.10000002384","1251.699999988079","88","1","swim","","","","",""
"dual-task","null","null","null","","arctic","arctic","1116.8999999761581","","Q","null","77","77","1","swim-dual-task","","Q","uppercase","250000","0","4","70bfcbf96e64a0f4f4c530ab351bde095707e6344c0d1568129a83ab3a8159f2","250007.20000004768","1116.8999999761581","77","1","swim","","","","",""
"dual-task","null","null","null","","arctic","arctic","819.7999999523163","","b","null","88","88","1","swim-dual-task","","b","lowercase","262000","0","4","70bfcbf96e64a0f4f4c530ab351bde095707e6344c0d1568129a83ab3a8159f2","262007.10000002384","819.7999999523163","88","1","swim","","","","",""
"dual-task","null","null","null","","arctic","arctic","756.8999999761581","","a","null","88","88","1","swim-dual-task","","a","lowercase","272000","0","4","70bfcbf96e64a0f4f4c530ab351bde095707e6344c0d1568129a83ab3a8159f2","272010.5","756.8999999761581","88","1","swim","","","","",""
"dual-task","null","null","null","","arctic","arctic","927.8999999761581","","A","null","77","77","1","swim-dual-task","","A","uppercase","278000","0","4","70bfcbf96e64a0f4f4c530ab351bde095707e6344c0d1568129a83ab3a8159f2","278009.90000003576","927.8999999761581","77","1","swim","","","","",""
"dual-task","null","null","null","","arctic","arctic","777","","q","null","88","88","1","swim-dual-task","","q","lowercase","292000","0","4","70bfcbf96e64a0f4f4c530ab351bde095707e6344c0d1568129a83ab3a8159f2","292013.5","777","88","1","swim","","","","",""
"dual-task","null","null","null","","arctic","arctic","1156.1000000238419","","F","null","77","77","1","swim-dual-task","","F","uppercase","304000","0","4","70bfcbf96e64a0f4f4c530ab351bde095707e6344c0d1568129a83ab3a8159f2","304002.5","1156.1000000238419","77","1","swim","","","","",""
"dual-task","null","null","null","","arctic","arctic","904","","B","null","77","77","1","swim-dual-task","","B","uppercase","316000","0","4","70bfcbf96e64a0f4f4c530ab351bde095707e6344c0d1568129a83ab3a8159f2","316013.8000000119","904","77","1","swim","","","","",""
"dual-task","null","null","null","","arctic","arctic","693.5999999642372","","F","null","77","77","1","swim-dual-task","","F","uppercase","324000","0","4","70bfcbf96e64a0f4f4c530ab351bde095707e6344c0d1568129a83ab3a8159f2","324004.2000000477","693.5999999642372","77","1","swim","","","","",""
"dual-task","null","null","null","","arctic","arctic","831.6999999880791","","d","null","88","88","1","swim-dual-task","","d","lowercase","336000","0","4","70bfcbf96e64a0f4f4c530ab351bde095707e6344c0d1568129a83ab3a8159f2","336012.60000002384","831.6999999880791","88","1","swim","","","","",""
"dual-task","null","null","null","","arctic","arctic","1027.5","","F","null","77","77","1","swim-dual-task","","F","uppercase","346000","0","4","70bfcbf96e64a0f4f4c530ab351bde095707e6344c0d1568129a83ab3a8159f2","346002.5","1027.5","77","1","swim","","","","",""
"dual-task","null","null","null","","arctic","arctic","982.3000000119209","","h","null","88","88","1","swim-dual-task","","h","lowercase","360000","0","4","70bfcbf96e64a0f4f4c530ab351bde095707e6344c0d1568129a83ab3a8159f2","360002.7000000477","982.3000000119209","88","1","swim","","","","",""
"dual-task","null","null","null","","arctic","arctic","739.1999999880791","","q","null","88","88","1","swim-dual-task","","q","lowercase","368000","0","4","70bfcbf96e64a0f4f4c530ab351bde095707e6344c0d1568129a83ab3a8159f2","368003.3000000119","739.1999999880791","88","1","swim","","","","",""
"dual-task","null","null","null","","arctic","arctic","732.1999999880791","","f","null","88","88","1","swim-dual-task","","f","lowercase","378000","0","4","70bfcbf96e64a0f4f4c530ab351bde095707e6344c0d1568129a83ab3a8159f2","378005.7000000477","732.1999999880791","88","1","swim","","","","",""
"dual-task","null","null","null","","arctic","arctic","831.8000000119209","","g","null","88","88","1","swim-dual-task","","g","lowercase","386000","0","4","70bfcbf96e64a0f4f4c530ab351bde095707e6344c0d1568129a83ab3a8159f2","386010.2000000477","831.8000000119209","88","1","swim","","","","",""
"dual-task","null","null","null","","arctic","arctic","837.7000000476837","","Q","null","77","77","1","swim-dual-task","","Q","uppercase","398000","0","4","70bfcbf96e64a0f4f4c530ab351bde095707e6344c0d1568129a83ab3a8159f2","398006.40000003576","837.7000000476837","77","1","swim","","","","",""
"dual-task","null","null","null","","arctic","arctic","881.1999999880791","","b","null","88","88","1","swim-dual-task","","b","lowercase","408000","0","4","70bfcbf96e64a0f4f4c530ab351bde095707e6344c0d1568129a83ab3a8159f2","408015.10000002384","881.1999999880791","88","1","swim","","","","",""
"dual-task","null","null","null","","arctic","arctic","923.3000000119209","","n","null","88","88","1","swim-dual-task","","n","lowercase","418000","0","4","70bfcbf96e64a0f4f4c530ab351bde095707e6344c0d1568129a83ab3a8159f2","418008.90000003576","923.3000000119209","88","1","swim","","","","",""
"dual-task","null","null","null","","arctic","arctic","764.1999999880791","","a","null","88","88","1","swim-dual-task","","a","lowercase","426000","0","4","70bfcbf96e64a0f4f4c530ab351bde095707e6344c0d1568129a83ab3a8159f2","426007.7000000477","764.1999999880791","88","1","swim","","","","",""
"dual-task","null","null","null","","arctic","arctic","672.6999999880791","","R","null","77","77","1","swim-dual-task","","R","uppercase","432000","0","4","70bfcbf96e64a0f4f4c530ab351bde095707e6344c0d1568129a83ab3a8159f2","432014.60000002384","672.6999999880791","77","1","swim","","","","",""
"dual-task","null","null","null","","arctic","arctic","893.7999999523163","","H","null","77","77","1","swim-dual-task","","H","uppercase","440000","0","4","70bfcbf96e64a0f4f4c530ab351bde095707e6344c0d1568129a83ab3a8159f2","440009.7000000477","893.7999999523163","77","1","swim","","","","",""
"dual-task","null","null","null","","arctic","arctic","930.5","","N","null","77","77","1","swim-dual-task","","N","uppercase","448000","0","4","70bfcbf96e64a0f4f4c530ab351bde095707e6344c0d1568129a83ab3a8159f2","448005.3000000119","930.5","77","1","swim","","","","",""
"dual-task","null","null","null","","arctic","arctic","751.3000000119209","","a","null","88","88","1","swim-dual-task","","a","lowercase","458000","0","4","70bfcbf96e64a0f4f4c530ab351bde095707e6344c0d1568129a83ab3a8159f2","458007.90000003576","751.3000000119209","88","1","swim","","","","",""
"dual-task","null","null","null","","arctic","arctic","957.3999999761581","","d","null","88","88","1","swim-dual-task","","d","lowercase","472000","0","4","70bfcbf96e64a0f4f4c530ab351bde095707e6344c0d1568129a83ab3a8159f2","471999.7000000477","957.3999999761581","88","1","swim","","","","",""
"dual-task","null","null","null","","arctic","arctic","919.6000000238419","","E","null","77","77","1","swim-dual-task","","E","uppercase","484000","0","4","70bfcbf96e64a0f4f4c530ab351bde095707e6344c0d1568129a83ab3a8159f2","484012.60000002384","919.6000000238419","77","1","swim","","","","",""
"dual-task","null","null","null","","arctic","arctic","782.4000000357628","","e","null","88","88","1","swim-dual-task","","e","lowercase","492000","0","4","70bfcbf96e64a0f4f4c530ab351bde095707e6344c0d1568129a83ab3a8159f2","492015","782.4000000357628","88","1","swim","","","","",""
"dual-task","null","null","null","","arctic","arctic","813","","b","null","88","88","1","swim-dual-task","","b","lowercase","502000","0","4","70bfcbf96e64a0f4f4c530ab351bde095707e6344c0d1568129a83ab3a8159f2","502002.2000000477","813","88","1","swim","","","","",""
"dual-task","null","null","null","","arctic","arctic","1051.1000000238419","","T","null","77","77","1","swim-dual-task","","T","uppercase","514000","0","4","70bfcbf96e64a0f4f4c530ab351bde095707e6344c0d1568129a83ab3a8159f2","514011.7000000477","1051.1000000238419","77","1","swim","","","","",""
"dual-task","null","null","null","","arctic","arctic","976","","B","null","77","77","1","swim-dual-task","","B","uppercase","526000","0","4","70bfcbf96e64a0f4f4c530ab351bde095707e6344c0d1568129a83ab3a8159f2","526012.7000000477","976","77","1","swim","","","","",""
"dual-task","null","null","null","","arctic","arctic","884.0999999642372","","f","null","88","88","1","swim-dual-task","","f","lowercase","538000","0","4","70bfcbf96e64a0f4f4c530ab351bde095707e6344c0d1568129a83ab3a8159f2","538009.7000000477","884.0999999642372","88","1","swim","","","","",""
"dual-task","null","null","null","","arctic","arctic","1266.699999988079","","G","null","77","77","1","swim-dual-task","","G","uppercase","548000","0","4","70bfcbf96e64a0f4f4c530ab351bde095707e6344c0d1568129a83ab3a8159f2","548012.6000000238","1266.699999988079","77","1","swim","","","","",""
"dual-task","null","null","null","","arctic","arctic","810.3000000119209","","A","null","77","77","1","swim-dual-task","","A","uppercase","560000","0","4","70bfcbf96e64a0f4f4c530ab351bde095707e6344c0d1568129a83ab3a8159f2","560003.2000000477","810.3000000119209","77","1","swim","","","","",""
"dual-task","null","null","null","","arctic","arctic","918.5999999642372","","T","null","77","77","1","swim-dual-task","","T","uppercase","570000","0","4","70bfcbf96e64a0f4f4c530ab351bde095707e6344c0d1568129a83ab3a8159f2","570010.4000000358","918.5999999642372","77","1","swim","","","","",""
"dual-task","null","null","null","","arctic","arctic","633.5","","H","null","77","77","1","swim-dual-task","","H","uppercase","576000","0","4","70bfcbf96e64a0f4f4c530ab351bde095707e6344c0d1568129a83ab3a8159f2","576007.2000000477","633.5","77","1","swim","","","","",""
"dual-task","null","null","null","","arctic","arctic","738.9000000357628","","E","null","77","77","1","swim-dual-task","","E","uppercase","584000","0","4","70bfcbf96e64a0f4f4c530ab351bde095707e6344c0d1568129a83ab3a8159f2","584011.3000000119","738.9000000357628","77","1","swim","","","","",""
"dual-task","null","null","null","","arctic","arctic","948.3999999761581","","n","null","88","88","1","swim-dual-task","","n","lowercase","596000","0","4","70bfcbf96e64a0f4f4c530ab351bde095707e6344c0d1568129a83ab3a8159f2","596016","948.3999999761581","88","1","swim","","","","",""
"dual-task","null","null","null","","arctic","arctic","917","","D","null","77","77","1","swim-dual-task","","D","uppercase","608000","0","4","70bfcbf96e64a0f4f4c530ab351bde095707e6344c0d1568129a83ab3a8159f2","608002.8000000119","917","77","1","swim","","","","",""
"dual-task","null","null","null","","arctic","arctic","913.1000000238419","","g","null","88","88","1","swim-dual-task","","g","lowercase","618000","0","4","70bfcbf96e64a0f4f4c530ab351bde095707e6344c0d1568129a83ab3a8159f2","618009.9000000358","913.1000000238419","88","1","swim","","","","",""
"dual-task","null","null","null","","arctic","arctic","723.4000000357628","","Q","null","77","77","1","swim-dual-task","","Q","uppercase","626000","0","4","70bfcbf96e64a0f4f4c530ab351bde095707e6344c0d1568129a83ab3a8159f2","626005.8000000119","723.4000000357628","77","1","swim","","","","",""
"dual-task","null","null","null","","arctic","arctic","787","","d","null","88","88","1","swim-dual-task","","d","lowercase","638000","0","4","70bfcbf96e64a0f4f4c530ab351bde095707e6344c0d1568129a83ab3a8159f2","638002.8000000119","787","88","1","swim","","","","",""
"dual-task","null","null","null","","arctic","arctic","1093.4000000357628","","E","null","77","77","1","swim-dual-task","","E","uppercase","644000","0","4","70bfcbf96e64a0f4f4c530ab351bde095707e6344c0d1568129a83ab3a8159f2","644011.3000000119","1093.4000000357628","77","1","swim","","","","",""
"dual-task","null","null","null","","arctic","arctic","873.5","","R","null","77","77","1","swim-dual-task","","R","uppercase","658000","0","4","70bfcbf96e64a0f4f4c530ab351bde095707e6344c0d1568129a83ab3a8159f2","658003.1000000238","873.5","77","1","swim","","","","",""
"dual-task","null","null","null","","arctic","arctic","NA","","t","null","NA","88","0","swim-dual-task","","t","lowercase","668000","1","4","70bfcbf96e64a0f4f4c530ab351bde095707e6344c0d1568129a83ab3a8159f2","668010.5","NA","NA","0","swim","","","","",""
"dual-task","null","null","null","","arctic","arctic","776.1999999880791","","E","null","77","77","1","swim-dual-task","","E","uppercase","678000","0","4","70bfcbf96e64a0f4f4c530ab351bde095707e6344c0d1568129a83ab3a8159f2","678003.4000000358","776.1999999880791","77","1","swim","","","","",""
"dual-task","null","null","null","","arctic","arctic","778.1000000238419","","r","null","88","88","1","swim-dual-task","","r","lowercase","686000","0","4","70bfcbf96e64a0f4f4c530ab351bde095707e6344c0d1568129a83ab3a8159f2","686012.3000000119","778.1000000238419","88","1","swim","","","","",""
"dual-task","null","null","null","","arctic","arctic","695.6999999880791","","h","null","88","88","1","swim-dual-task","","h","lowercase","698000","0","4","70bfcbf96e64a0f4f4c530ab351bde095707e6344c0d1568129a83ab3a8159f2","698005.2000000477","695.6999999880791","88","1","swim","","","","",""
"dual-task","null","null","null","","arctic","arctic","765.3999999761581","","n","null","88","88","1","swim-dual-task","","n","lowercase","706000","0","4","70bfcbf96e64a0f4f4c530ab351bde095707e6344c0d1568129a83ab3a8159f2","706003.9000000358","765.3999999761581","88","1","swim","","","","",""
"dual-task","null","null","null","","arctic","arctic","865.6000000238419","","t","null","88","88","1","swim-dual-task","","t","lowercase","714000","0","4","70bfcbf96e64a0f4f4c530ab351bde095707e6344c0d1568129a83ab3a8159f2","714000.6000000238","865.6000000238419","88","1","swim","","","","",""
"dual-task","null","null","null","","arctic","arctic","966.8000000119209","","a","null","88","88","1","swim-dual-task","","a","lowercase","728000","0","4","70bfcbf96e64a0f4f4c530ab351bde095707e6344c0d1568129a83ab3a8159f2","728002.5","966.8000000119209","88","1","swim","","","","",""
"dual-task","null","null","null","","arctic","arctic","846.0999999642372","","D","null","77","77","1","swim-dual-task","","D","uppercase","738000","0","4","70bfcbf96e64a0f4f4c530ab351bde095707e6344c0d1568129a83ab3a8159f2","738000.4000000358","846.0999999642372","77","1","swim","","","","",""
"dual-task","null","null","null","","arctic","arctic","792.1999999880791","","N","null","77","77","1","swim-dual-task","","N","uppercase","750000","0","4","70bfcbf96e64a0f4f4c530ab351bde095707e6344c0d1568129a83ab3a8159f2","750008.5","792.1999999880791","77","1","swim","","","","",""
"dual-task","null","null","null","","arctic","arctic","974.5","","B","null","77","77","1","swim-dual-task","","B","uppercase","758000","0","4","70bfcbf96e64a0f4f4c530ab351bde095707e6344c0d1568129a83ab3a8159f2","758010.3000000119","974.5","77","1","swim","","","","",""
"dual-task","null","null","null","","arctic","arctic","933.1999999880791","","q","null","88","88","1","swim-dual-task","","q","lowercase","764000","0","4","70bfcbf96e64a0f4f4c530ab351bde095707e6344c0d1568129a83ab3a8159f2","764010.2000000477","933.1999999880791","88","1","swim","","","","",""
"dual-task","null","null","null","","arctic","arctic","897","","g","null","88","88","1","swim-dual-task","","g","lowercase","774000","0","4","70bfcbf96e64a0f4f4c530ab351bde095707e6344c0d1568129a83ab3a8159f2","774014","897","88","1","swim","","","","",""
"dual-task","null","null","null","","arctic","arctic","696.8999999761581","","e","null","88","88","1","swim-dual-task","","e","lowercase","780000","0","4","70bfcbf96e64a0f4f4c530ab351bde095707e6344c0d1568129a83ab3a8159f2","780014.7000000477","696.8999999761581","88","1","swim","","","","",""
"dual-task","null","null","null","","arctic","arctic","947.6000000238419","","f","null","88","88","1","swim-dual-task","","f","lowercase","786000","0","4","70bfcbf96e64a0f4f4c530ab351bde095707e6344c0d1568129a83ab3a8159f2","786003.8000000119","947.6000000238419","88","1","swim","","","","",""
"dual-task","null","null","null","","arctic","arctic","907.6000000238419","","T","null","77","77","1","swim-dual-task","","T","uppercase","796000","0","4","70bfcbf96e64a0f4f4c530ab351bde095707e6344c0d1568129a83ab3a8159f2","796015.5","907.6000000238419","77","1","swim","","","","",""
"audio-keyboard-response","62","2033173","0.0-6.0-2.0-1.0","70bfcbf96e64a0f4f4c530ab351bde095707e6344c0d1568129a83ab3a8159f2","arctic","arctic","null","","audio/story_swim.mp3","","null","","","","","","","","","","","","","","","","","","","",""
"html-button-response","63","2045490","0.0-6.0-2.0-2.0","70bfcbf96e64a0f4f4c530ab351bde095707e6344c0d1568129a83ab3a8159f2","arctic","arctic","12315","","<p>This concludes the story. Thank you for listening.</p><p>You will now answer some questions about the content of the story.</p>","0","","","","","","","","","","","","","","","","","","","","",""
"survey-multi-choice","64","2053211","0.0-6.0-2.0-3.0-0.0","70bfcbf96e64a0f4f4c530ab351bde095707e6344c0d1568129a83ab3a8159f2","arctic","arctic","7720","","<b>What is the narrator afraid of, aside from the water?</b>","","","","1","swim-comprehension","","","","","","","","","","","","","{""Q0"":""Heights""}","","","",""
"survey-multi-choice","65","2066250","0.0-6.0-2.0-3.0-0.1","70bfcbf96e64a0f4f4c530ab351bde095707e6344c0d1568129a83ab3a8159f2","arctic","arctic","12776","","<b>How many astronaut candidates reported for duty at the Johnson Space Center?</b>","","","","1","swim-comprehension","","","","","","","","","","","","","{""Q0"":""Forty-four""}","","","",""
"survey-multi-choice","66","2083166","0.0-6.0-2.0-3.0-0.2","70bfcbf96e64a0f4f4c530ab351bde095707e6344c0d1568129a83ab3a8159f2","arctic","arctic","16657","","<b>How many times did the astronaut candidates have to complete the final exercise to pass?</b>","","","","0","swim-comprehension","","","","","","","","","","","","","{""Q0"":""One""}","","","",""
"survey-multi-choice","67","2120904","0.0-6.0-2.0-3.0-0.3","70bfcbf96e64a0f4f4c530ab351bde095707e6344c0d1568129a83ab3a8159f2","arctic","arctic","37485","","<b>Where is the home of naval aviation?</b>","","","","1","swim-comprehension","","","","","","","","","","","","","{""Q0"":""Pensacola""}","","","",""
"survey-multi-choice","68","2128524","0.0-6.0-2.0-3.0-0.4","70bfcbf96e64a0f4f4c530ab351bde095707e6344c0d1568129a83ab3a8159f2","arctic","arctic","7367","","<b>How often does the narrator swim, now that he is a good swimmer?</b>","","","","1","swim-comprehension","","","","","","","","","","","","","{""Q0"":""Never swam again in his life""}","","","",""
"survey-multi-choice","69","2139397","0.0-6.0-2.0-3.0-0.5","70bfcbf96e64a0f4f4c530ab351bde095707e6344c0d1568129a83ab3a8159f2","arctic","arctic","10621","","<b>How did the narrator train for his swim test?</b>","","","","1","swim-comprehension","","","","","","","","","","","","","{""Q0"":""Took his kids to the pool every day""}","","","",""
"survey-multi-choice","70","2154364","0.0-6.0-2.0-3.0-0.6","70bfcbf96e64a0f4f4c530ab351bde095707e6344c0d1568129a83ab3a8159f2","arctic","arctic","14715","","<b>What was the final step of the first swim test in the pool?</b>","","","","1","swim-comprehension","","","","","","","","","","","","","{""Q0"":""Tread water with hands above the water""}","","","",""
"survey-multi-choice","71","2167626","0.0-6.0-2.0-3.0-0.7","70bfcbf96e64a0f4f4c530ab351bde095707e6344c0d1568129a83ab3a8159f2","arctic","arctic","13006","","<b>What were the astronaut candidates trained to do at the naval air station?</b>","","","","1","swim-comprehension","","","","","","","","","","","","","{""Q0"":""Eject out of aircraft and survive in water long enough to be rescued""}","","","",""
"survey-multi-choice","72","2175940","0.0-6.0-2.0-3.0-0.8","70bfcbf96e64a0f4f4c530ab351bde095707e6344c0d1568129a83ab3a8159f2","arctic","arctic","8062","","<b>How many astronaut candidates passed the first swim test?</b>","","","","1","swim-comprehension","","","","","","","","","","","","","{""Q0"":""All of them""}","","","",""
"survey-multi-choice","73","2190900","0.0-6.0-2.0-3.0-0.9","70bfcbf96e64a0f4f4c530ab351bde095707e6344c0d1568129a83ab3a8159f2","arctic","arctic","14703","","<b>What gave the narrator his greatest feeling of accomplishment?</b>","","","","1","swim-comprehension","","","","","","","","","","","","","{""Q0"":""Passing the water survival course""}","","","",""
"html-button-response","74","2193660","0.0-6.0-2.0-4.0","70bfcbf96e64a0f4f4c530ab351bde095707e6344c0d1568129a83ab3a8159f2","arctic","arctic","2509","","<p>Thank you for your responses.</p><p>You will now answer some questions about your impressions of the story.</p>","0","","","","","","","","","","","","","","","","","","","","",""
"html-button-response","75","2196416","0.0-6.0-2.0-5.0-0.0","70bfcbf96e64a0f4f4c530ab351bde095707e6344c0d1568129a83ab3a8159f2","arctic","arctic","2756","","MS3","6","","","","swim-engagement","","","","","","","","","","","","","","7","mental-sim","",""
"html-button-response","76","2200491","0.0-6.0-2.0-5.0-0.1","70bfcbf96e64a0f4f4c530ab351bde095707e6344c0d1568129a83ab3a8159f2","arctic","arctic","3824","","MS1","6","","","","swim-engagement","","","","","","","","","","","","","","7","mental-sim","",""
"html-button-response","77","2202588","0.0-6.0-2.0-5.0-0.2","70bfcbf96e64a0f4f4c530ab351bde095707e6344c0d1568129a83ab3a8159f2","arctic","arctic","1845","","E6","5","","","","swim-engagement","","","","","","","","","","","","","","6","enjoyment","",""
"html-button-response","78","2205787","0.0-6.0-2.0-5.0-0.3","70bfcbf96e64a0f4f4c530ab351bde095707e6344c0d1568129a83ab3a8159f2","arctic","arctic","2948","","E7","6","","","","swim-engagement","","","","","","","","","","","","","","7","enjoyment","",""
"html-button-response","79","2210270","0.0-6.0-2.0-5.0-0.4","70bfcbf96e64a0f4f4c530ab351bde095707e6344c0d1568129a83ab3a8159f2","arctic","arctic","4231","","MS2","6","","","","swim-engagement","","","","","","","","","","","","","","7","mental-sim","",""
"html-button-response","80","2212810","0.0-6.0-2.0-5.0-0.5","70bfcbf96e64a0f4f4c530ab351bde095707e6344c0d1568129a83ab3a8159f2","arctic","arctic","2287","","EE3","6","","","","swim-engagement","","","","","","","","","","","","","","7","emo-engage","",""
"html-button-response","81","2215848","0.0-6.0-2.0-5.0-0.6","70bfcbf96e64a0f4f4c530ab351bde095707e6344c0d1568129a83ab3a8159f2","arctic","arctic","2785","","EE5","4","","","","swim-engagement","","","","","","","","","","","","","","5","emo-engage","",""
"html-button-response","82","2219486","0.0-6.0-2.0-5.0-0.7","70bfcbf96e64a0f4f4c530ab351bde095707e6344c0d1568129a83ab3a8159f2","arctic","arctic","3384","","A2","6","","","","swim-engagement","","","","","","","","","","","","","","7","absorption","",""
"html-button-response","83","2222926","0.0-6.0-2.0-5.0-0.8","70bfcbf96e64a0f4f4c530ab351bde095707e6344c0d1568129a83ab3a8159f2","arctic","arctic","3190","","EE4","6","","","","swim-engagement","","","","","","","","","","","","","","7","emo-engage","",""
"html-button-response","84","2232760","0.0-6.0-2.0-5.0-0.9","70bfcbf96e64a0f4f4c530ab351bde095707e6344c0d1568129a83ab3a8159f2","arctic","arctic","9581","","E1","6","","","","swim-engagement","","","","","","","","","","","","","","7","enjoyment","",""
"html-button-response","85","2235390","0.0-6.0-2.0-5.0-0.10","70bfcbf96e64a0f4f4c530ab351bde095707e6344c0d1568129a83ab3a8159f2","arctic","arctic","2378","","E10","6","","","","swim-engagement","","","","","","","","","","","","","","7","enjoyment","",""
"html-button-response","86","2240237","0.0-6.0-2.0-5.0-0.11","70bfcbf96e64a0f4f4c530ab351bde095707e6344c0d1568129a83ab3a8159f2","arctic","arctic","4596","","A5","6","","","","swim-engagement","","","","","","","","","","","","","","7","absorption","",""
"html-button-response","87","2243528","0.0-6.0-2.0-5.0-0.12","70bfcbf96e64a0f4f4c530ab351bde095707e6344c0d1568129a83ab3a8159f2","arctic","arctic","3037","","E8","3","","","","swim-engagement","","","","","","","","","","","","","","4","enjoyment","",""
"html-button-response","88","2249460","0.0-6.0-2.0-5.0-0.13","70bfcbf96e64a0f4f4c530ab351bde095707e6344c0d1568129a83ab3a8159f2","arctic","arctic","5681","","EE1","6","","","","swim-engagement","","","","","","","","","","","","","","7","emo-engage","",""
"html-button-response","89","2253804","0.0-6.0-2.0-5.0-0.14","70bfcbf96e64a0f4f4c530ab351bde095707e6344c0d1568129a83ab3a8159f2","arctic","arctic","4092","","EE2","3","","","","swim-engagement","","","","","","","","","","","","","","4","emo-engage","",""
"html-button-response","90","2255744","0.0-6.0-2.0-5.0-0.15","70bfcbf96e64a0f4f4c530ab351bde095707e6344c0d1568129a83ab3a8159f2","arctic","arctic","1687","","A3","6","","","","swim-engagement","","","","","","","","","","","","","","7","absorption","",""
"html-button-response","91","2259570","0.0-6.0-2.0-5.0-0.16","70bfcbf96e64a0f4f4c530ab351bde095707e6344c0d1568129a83ab3a8159f2","arctic","arctic","3575","","A1","6","","","","swim-engagement","","","","","","","","","","","","","","7","absorption","",""
"html-button-response","92","2263830","0.0-6.0-2.0-5.0-0.17","70bfcbf96e64a0f4f4c530ab351bde095707e6344c0d1568129a83ab3a8159f2","arctic","arctic","4007","","A4","6","","","","swim-engagement","","","","","","","","","","","","","","7","absorption","",""
"html-button-response","93","2267681","0.0-8.0","70bfcbf96e64a0f4f4c530ab351bde095707e6344c0d1568129a83ab3a8159f2","arctic","arctic","3600","","<p>Thank you for your responses.</p><p>You will now answer some demographic, hearing, and general health questions.</p>","0","","","","","","","","","","","","","","","","","","","","",""
"survey-multi-choice","94","2272927","0.0-9.0-0.0","70bfcbf96e64a0f4f4c530ab351bde095707e6344c0d1568129a83ab3a8159f2","arctic","arctic","5244","","","","","","","survey","","","","","","","","","","","","","{""Q0"":""Chrome""}","","","browser",""
"survey-text","95","2276658","0.0-9.0-1.0","70bfcbf96e64a0f4f4c530ab351bde095707e6344c0d1568129a83ab3a8159f2","arctic","arctic","3472.5","","","","","","","survey","","","","","","","","","","","","","{""AGE"":""32""}","","","age","32"
"survey-multi-choice","96","2279284","0.0-9.0-2.0","70bfcbf96e64a0f4f4c530ab351bde095707e6344c0d1568129a83ab3a8159f2","arctic","arctic","2374","","","","","","","survey","","","","","","","","","","","","","{""Q0"":""Female""}","","","gender","Female"
"survey-multi-choice","97","2282956","0.0-9.0-4.0","70bfcbf96e64a0f4f4c530ab351bde095707e6344c0d1568129a83ab3a8159f2","arctic","arctic","3416","","","","","","","survey","","","","","","","","","","","","","{""Q0"":""Left""}","","","handedness","Left"
"survey-multi-choice","98","2286898","0.0-9.0-5.0","70bfcbf96e64a0f4f4c530ab351bde095707e6344c0d1568129a83ab3a8159f2","arctic","arctic","3686","","","","","","","survey","","","","","","","","","","","","","{""Q0"":""High school""}","","","education","High school"
"survey-text","99","2298642","0.0-10.0-0.0","70bfcbf96e64a0f4f4c530ab351bde095707e6344c0d1568129a83ab3a8159f2","arctic","arctic","11489.900000035763","","","","","","","survey","","","","","","","","","","","","","{""L1"":""english""}","","","first-language","english"
"survey-text","100","2308486","0.0-10.0-1.0","70bfcbf96e64a0f4f4c530ab351bde095707e6344c0d1568129a83ab3a8159f2","arctic","arctic","9587.699999988079","","","","","","","survey","","","","","","","","","","","","","{""L2name"":"""",""L2fluency"":"""",""L3name"":"""",""L3fluency"":"""",""L4name"":"""",""L4fluency"":""""}","","","additional-languages","{""L2name"":"""",""L2fluency"":"""",""L3name"":"""",""L3fluency"":"""",""L4name"":"""",""L4fluency"":""""}"
"survey-multi-choice","101","2312156","0.0-10.0-2.0","70bfcbf96e64a0f4f4c530ab351bde095707e6344c0d1568129a83ab3a8159f2","arctic","arctic","3413","","","","","","","survey","","","","","","","","","","","","","{""Q0"":""No""}","","","hearing-aid","No"
"survey-multi-choice","102","2318762","0.0-10.0-3.0","70bfcbf96e64a0f4f4c530ab351bde095707e6344c0d1568129a83ab3a8159f2","arctic","arctic","6355","","","","","","","survey","","","","","","","","","","","","","{""Q0"":""Sometimes""}","","","ringing-ears","Sometimes"
"survey-multi-choice","103","2325594","0.0-10.0-4.0-0.0","70bfcbf96e64a0f4f4c530ab351bde095707e6344c0d1568129a83ab3a8159f2","arctic","arctic","6580","","","","","","","survey","","","","","","","","","","","","","{""Q0"":""Both Ears""}","","","ringing-ear-loc","Both Ears"
"survey-multi-choice","104","2329521","0.0-10.0-5.0","70bfcbf96e64a0f4f4c530ab351bde095707e6344c0d1568129a83ab3a8159f2","arctic","arctic","3675","","","","","","","survey","","","","","","","","","","","","","{""Q0"":""No""}","","","neuro-disease","No"
"survey-multi-choice","105","2338365","0.0-10.0-7.0","70bfcbf96e64a0f4f4c530ab351bde095707e6344c0d1568129a83ab3a8159f2","arctic","arctic","8593","","","","","","","survey","","","","","","","","","","","","","{""Q0"":""No""}","","","take-meds","No"
"survey-text","106","2345425","0.0-10.0-9.0","70bfcbf96e64a0f4f4c530ab351bde095707e6344c0d1568129a83ab3a8159f2","arctic","arctic","6785.399999976158","","","","","","","survey","","","","","","","","","","","","","{""HC"":""""}","","","health-concerns",""
"html-button-response","107","2351365","0.0-11.0-0.0","70bfcbf96e64a0f4f4c530ab351bde095707e6344c0d1568129a83ab3a8159f2","arctic","arctic","5688","","<p>How would you describe your musical skills/experiences?</p>","2","","","","survey","","","","","","","","","","","","","","","","music-skill","3"
"survey-multi-choice","108","2355341","0.0-11.0-1.0","70bfcbf96e64a0f4f4c530ab351bde095707e6344c0d1568129a83ab3a8159f2","arctic","arctic","3724","","","","","","","survey","","","","","","","","","","","","","{""Q0"":""No""}","","","music-instrument","No"
"html-button-response","109","2357919","0.0-12.0-0.0","70bfcbf96e64a0f4f4c530ab351bde095707e6344c0d1568129a83ab3a8159f2","arctic","arctic","2326","","<p>How would you describe your general hearing abilities?</p>","5","","","","survey","","","","","","","","","","","","","","","","ssq-01","6"
"html-button-response","110","2368323","0.0-12.0-1.0","70bfcbf96e64a0f4f4c530ab351bde095707e6344c0d1568129a83ab3a8159f2","arctic","arctic","10154","","<p>When you talk with someone at a place that strongly reverberates/echoes (e.g., in a church or train station),</br>can you understand what the person says?</p>","7","","","","survey","","","","","","","","","","","","","","","","ssq-02","7"
"html-button-response","111","2373765","0.0-12.0-2.0","70bfcbf96e64a0f4f4c530ab351bde095707e6344c0d1568129a83ab3a8159f2","arctic","arctic","5190","","<p>When you are with a group (~5 people) in a lively restaurant, can you follow the group's conversation?</p>","3","","","","survey","","","","","","","","","","","","","","","","ssq-03","3"
"html-button-response","112","2379969","0.0-12.0-3.0","70bfcbf96e64a0f4f4c530ab351bde095707e6344c0d1568129a83ab3a8159f2","arctic","arctic","5953","","<p>Based on the sound of a bus or truck, can you tell whether it is moving towards or away from you?</p>","6","","","","survey","","","","","","","","","","","","","","","","ssq-04","6"
"html-button-response","113","2386499","0.0-12.0-4.0","70bfcbf96e64a0f4f4c530ab351bde095707e6344c0d1568129a83ab3a8159f2","arctic","arctic","6279","","<p>When you are in an unknown environment, can you tell from which direction a brief sound originates?</p>","5","","","","survey","","","","","","","","","","","","","","","","ssq-05","5"
"html-button-response","114","2396734","0.0-12.0-5.0","70bfcbf96e64a0f4f4c530ab351bde095707e6344c0d1568129a83ab3a8159f2","arctic","arctic","9983","","<p>Are you able to ignore distracting sounds when you concentrate on a specific aspect of your acoustic surrounding?</p>","6","","","","survey","","","","","","","","","","","","","","","","ssq-06","6"
"fullscreen","115","2397985","0.0-13.0","70bfcbf96e64a0f4f4c530ab351bde095707e6344c0d1568129a83ab3a8159f2","arctic","arctic","","","","","","","","","true","","","","","","","","","","","","","","","",""
