"trial_type","trial_index","time_elapsed","internal_node_id","ParticipantID","firstStory","scramStory","rt","url","stimulus","button_pressed","key_press","correctRESP","correct","designation","success","letterStim","letterType","ONSET","TIMEOUT","CONDITION","Participant","ONSET_ACTUAL","RT","RESP","ACC","STORY","responses","response","type","surveyQuestion","QRESP"
"pavlovia","0","7","0.0-0.0","a40770080031f58eea6699af8955881a50abb171f6b4b550797844809d2024e0","swim","swim","","","","","","","","","","","","","","","","","","","","","","","","",""
"external-html","1","15905","0.0-1.0","a40770080031f58eea6699af8955881a50abb171f6b4b550797844809d2024e0","swim","swim","15713","consent/consent_updated.html","","","","","","","","","","","","","","","","","","","","","","",""
"html-button-response","2","20268","0.0-2.0-0.0","a40770080031f58eea6699af8955881a50abb171f6b4b550797844809d2024e0","swim","swim","4362","","<p>Before we begin the main task, you will complete a short volume calibration and headphone check.</p><p>Please make sure you are in a quiet listening environment, that you are wearing headphones, and that your computer's volume is turned on.<p></p>","0","","","","","","","","","","","","","","","","","","","","",""
"html-button-response","3","27262","0.0-2.0-1.0","a40770080031f58eea6699af8955881a50abb171f6b4b550797844809d2024e0","swim","swim","6741","","<p>The volume calibration will be first.</p><p>You will hear a thirty-second noise. Please adjust your computer's volume so that this noise is being presented at a comfortable level.<p></p>","0","","","","","","","","","","","","","","","","","","","","",""
"audio-button-response","4","31016","0.0-2.0-2.0","a40770080031f58eea6699af8955881a50abb171f6b4b550797844809d2024e0","swim","swim","3498","","audio/volumetest.mp3","0","","","","","","","","","","","","","","","","","","","","",""
"html-keyboard-response","5","39015","0.0-3.0-0.0","a40770080031f58eea6699af8955881a50abb171f6b4b550797844809d2024e0","swim","swim","7997","","<p>You will now complete a short headphone check.</p><p>On each trial, you will hear three tones. One of these tones will be quieter than the others. Your task is to identify whether the quiet tone occurred first, second, or third.</p><p>There are six trials in total.<p></p><p></p>(Press SPACEBAR to begin)","","32","","","","","","","","","","","","","","","","","","","",""
"html-keyboard-response","6","39788","0.0-3.0-1.0-0.0","a40770080031f58eea6699af8955881a50abb171f6b4b550797844809d2024e0","swim","swim","null","","<div style=""font-size:60px;"">+</div>","","null","","","","","","","","","","","","","","","","","","","",""
"audio-button-response","7","41278","0.0-3.0-1.0-1.0","a40770080031f58eea6699af8955881a50abb171f6b4b550797844809d2024e0","swim","swim","1487","","audio/t1_1.mp3","0","","0","1","headphone-test","","","","","","","","","","","","","","","","",""
"html-keyboard-response","8","41785","0.0-3.0-1.0-2.0","a40770080031f58eea6699af8955881a50abb171f6b4b550797844809d2024e0","swim","swim","null","","<p>Correct</p>","","null","","","","","","","","","","","","","","","","","","","",""
"html-keyboard-response","9","42296","0.0-3.0-1.0-0.1","a40770080031f58eea6699af8955881a50abb171f6b4b550797844809d2024e0","swim","swim","null","","<div style=""font-size:60px;"">+</div>","","null","","","","","","","","","","","","","","","","","","","",""
"audio-button-response","10","46756","0.0-3.0-1.0-1.1","a40770080031f58eea6699af8955881a50abb171f6b4b550797844809d2024e0","swim","swim","4459","","audio/t3_2.mp3","1","","2","0","headphone-test","","","","","","","","","","","","","","","","",""
"html-keyboard-response","11","47267","0.0-3.0-1.0-2.1","a40770080031f58eea6699af8955881a50abb171f6b4b550797844809d2024e0","swim","swim","null","","<p>Incorrect</p>","","null","","","","","","","","","","","","","","","","","","","",""
"html-keyboard-response","12","47775","0.0-3.0-1.0-0.2","a40770080031f58eea6699af8955881a50abb171f6b4b550797844809d2024e0","swim","swim","null","","<div style=""font-size:60px;"">+</div>","","null","","","","","","","","","","","","","","","","","","","",""
"audio-button-response","13","53904","0.0-3.0-1.0-1.2","a40770080031f58eea6699af8955881a50abb171f6b4b550797844809d2024e0","swim","swim","6128","","audio/t2_1.mp3","0","","1","0","headphone-test","","","","","","","","","","","","","","","","",""
"html-keyboard-response","14","54407","0.0-3.0-1.0-2.2","a40770080031f58eea6699af8955881a50abb171f6b4b550797844809d2024e0","swim","swim","null","","<p>Incorrect</p>","","null","","","","","","","","","","","","","","","","","","","",""
"html-keyboard-response","15","54909","0.0-3.0-1.0-0.3","a40770080031f58eea6699af8955881a50abb171f6b4b550797844809d2024e0","swim","swim","null","","<div style=""font-size:60px;"">+</div>","","null","","","","","","","","","","","","","","","","","","","",""
"audio-button-response","16","59482","0.0-3.0-1.0-1.3","a40770080031f58eea6699af8955881a50abb171f6b4b550797844809d2024e0","swim","swim","4571","","audio/t1_2.mp3","2","","0","0","headphone-test","","","","","","","","","","","","","","","","",""
"html-keyboard-response","17","59988","0.0-3.0-1.0-2.3","a40770080031f58eea6699af8955881a50abb171f6b4b550797844809d2024e0","swim","swim","null","","<p>Incorrect</p>","","null","","","","","","","","","","","","","","","","","","","",""
"html-keyboard-response","18","60502","0.0-3.0-1.0-0.4","a40770080031f58eea6699af8955881a50abb171f6b4b550797844809d2024e0","swim","swim","null","","<div style=""font-size:60px;"">+</div>","","null","","","","","","","","","","","","","","","","","","","",""
"audio-button-response","19","103944","0.0-3.0-1.0-1.4","a40770080031f58eea6699af8955881a50abb171f6b4b550797844809d2024e0","swim","swim","43440","","audio/t2_2.mp3","1","","1","1","headphone-test","","","","","","","","","","","","","","","","",""
"html-keyboard-response","20","104451","0.0-3.0-1.0-2.4","a40770080031f58eea6699af8955881a50abb171f6b4b550797844809d2024e0","swim","swim","null","","<p>Correct</p>","","null","","","","","","","","","","","","","","","","","","","",""
"html-keyboard-response","21","104959","0.0-3.0-1.0-0.5","a40770080031f58eea6699af8955881a50abb171f6b4b550797844809d2024e0","swim","swim","null","","<div style=""font-size:60px;"">+</div>","","null","","","","","","","","","","","","","","","","","","","",""
"audio-button-response","22","108743","0.0-3.0-1.0-1.5","a40770080031f58eea6699af8955881a50abb171f6b4b550797844809d2024e0","swim","swim","3782","","audio/t3_1.mp3","2","","2","1","headphone-test","","","","","","","","","","","","","","","","",""
"html-keyboard-response","23","109251","0.0-3.0-1.0-2.5","a40770080031f58eea6699af8955881a50abb171f6b4b550797844809d2024e0","swim","swim","null","","<p>Correct</p>","","null","","","","","","","","","","","","","","","","","","","",""
"fullscreen","24","111301","0.0-4.0","a40770080031f58eea6699af8955881a50abb171f6b4b550797844809d2024e0","swim","swim","","","","","","","","","true","","","","","","","","","","","","","","","",""
"html-button-response","25","126924","0.0-5.0-0.0","a40770080031f58eea6699af8955881a50abb171f6b4b550797844809d2024e0","swim","swim","15622","","<p>There are two blocks to this experiment.</p><p>In each block, you will hear a ~13.5 minute story. One of the stories will be scrambled. Please listen carefully to both stories and understand them as best you can.</p><p>After each story, you will be asked some questions to assess your comprehension.</p>","0","","","","","","","","","","","","","","","","","","","","",""
"html-button-response","26","142058","0.0-5.0-1.0","a40770080031f58eea6699af8955881a50abb171f6b4b550797844809d2024e0","swim","swim","15133","","<p>During each story, there will be an additional task.</p><p>A letter will occasionally appear on the screen.</br>Your job is to - as quickly as you can - decide whether the letter is lowercase or uppercase and press one of two keys on the keyboard:</p><p>If the letter is <b>lowercase</b>, press key &lt;<b>x</b>&gt;.</p><p>If the letter is <b>uppercase</b>, press key &lt;<b>m</b>&gt;.</p>","0","","","","","","","","","","","","","","","","","","","","",""
"html-keyboard-response","27","156299","0.0-5.0-2.0","a40770080031f58eea6699af8955881a50abb171f6b4b550797844809d2024e0","swim","swim","14241","","<p>Because we want your responses to be as quick as possible, please keep your index fingers over the keys while listening.</p><p>Each block lasts about 20 minutes.</p><p><b>Press &lt;x&gt; or &lt;m&gt; to start the first block!</b></p>","","88","","","","","","","","","","","","","","","","","","","",""
"html-keyboard-response","28","156801","0.0-7.0-0.0-0.0","a40770080031f58eea6699af8955881a50abb171f6b4b550797844809d2024e0","swim","swim","null","","<div style=""font-size:60px;"" tabindex=""0"">+</div>","","null","","","","","","","","","","","","","","","","","","","",""
"dual-task","null","null","null","","swim","swim","NA","","A","null","NA","77","0","swim-dual-task","","A","uppercase","14000","1","3","a40770080031f58eea6699af8955881a50abb171f6b4b550797844809d2024e0","14006.299999952316","NA","NA","0","swim","","","","",""
"dual-task","null","null","null","","swim","swim","NA","","t","null","NA","88","0","swim-dual-task","","t","lowercase","20000","1","3","a40770080031f58eea6699af8955881a50abb171f6b4b550797844809d2024e0","20003.599999904633","NA","NA","0","swim","","","","",""
"dual-task","null","null","null","","swim","swim","808","","T","null","88","77","0","swim-dual-task","","T","uppercase","32000","0","3","a40770080031f58eea6699af8955881a50abb171f6b4b550797844809d2024e0","32013.599999904633","808","88","0","swim","","","","",""
"dual-task","null","null","null","","swim","swim","NA","","g","null","NA","88","0","swim-dual-task","","g","lowercase","44000","1","3","a40770080031f58eea6699af8955881a50abb171f6b4b550797844809d2024e0","44014.39999997616","NA","NA","0","swim","","","","",""
"dual-task","null","null","null","","swim","swim","938.3000000715256","","f","null","88","88","1","swim-dual-task","","f","lowercase","56000","0","3","a40770080031f58eea6699af8955881a50abb171f6b4b550797844809d2024e0","56003.799999952316","938.3000000715256","88","1","swim","","","","",""
"dual-task","null","null","null","","swim","swim","1522.3000000715256","","h","null","88","88","1","swim-dual-task","","h","lowercase","66000","0","3","a40770080031f58eea6699af8955881a50abb171f6b4b550797844809d2024e0","65998.69999992847","1522.3000000715256","88","1","swim","","","","",""
"dual-task","null","null","null","","swim","swim","NA","","h","null","NA","88","0","swim-dual-task","","h","lowercase","80000","1","3","a40770080031f58eea6699af8955881a50abb171f6b4b550797844809d2024e0","80003.29999995232","NA","NA","0","swim","","","","",""
"dual-task","null","null","null","","swim","swim","91.40000009536743","","n","null","88","88","1","swim-dual-task","","n","lowercase","88000","0","3","a40770080031f58eea6699af8955881a50abb171f6b4b550797844809d2024e0","88003.39999997616","91.40000009536743","88","1","swim","","","","",""
"dual-task","null","null","null","","swim","swim","NA","","E","null","NA","77","0","swim-dual-task","","E","uppercase","96000","1","3","a40770080031f58eea6699af8955881a50abb171f6b4b550797844809d2024e0","96000.5","NA","NA","0","swim","","","","",""
"dual-task","null","null","null","","swim","swim","173.89999997615814","","t","null","88","88","1","swim-dual-task","","t","lowercase","106000","0","3","a40770080031f58eea6699af8955881a50abb171f6b4b550797844809d2024e0","106001.39999997616","173.89999997615814","88","1","swim","","","","",""
"dual-task","null","null","null","","swim","swim","124.5","","G","null","88","77","0","swim-dual-task","","G","uppercase","112000","0","3","a40770080031f58eea6699af8955881a50abb171f6b4b550797844809d2024e0","112000.79999995232","124.5","88","0","swim","","","","",""
"dual-task","null","null","null","","swim","swim","113.30000007152557","","H","null","88","77","0","swim-dual-task","","H","uppercase","120000","0","3","a40770080031f58eea6699af8955881a50abb171f6b4b550797844809d2024e0","120000.79999995232","113.30000007152557","88","0","swim","","","","",""
"dual-task","null","null","null","","swim","swim","1065.8999999761581","","r","null","88","88","1","swim-dual-task","","r","lowercase","134000","0","3","a40770080031f58eea6699af8955881a50abb171f6b4b550797844809d2024e0","134009.29999995232","1065.8999999761581","88","1","swim","","","","",""
"dual-task","null","null","null","","swim","swim","1106.6999999284744","","r","null","88","88","1","swim-dual-task","","r","lowercase","144000","0","3","a40770080031f58eea6699af8955881a50abb171f6b4b550797844809d2024e0","144001","1106.6999999284744","88","1","swim","","","","",""
"dual-task","null","null","null","","swim","swim","1591.1000000238419","","n","null","88","88","1","swim-dual-task","","n","lowercase","152000","0","3","a40770080031f58eea6699af8955881a50abb171f6b4b550797844809d2024e0","151999.69999992847","1591.1000000238419","88","1","swim","","","","",""
"dual-task","null","null","null","","swim","swim","852.2000000476837","","D","null","77","77","1","swim-dual-task","","D","uppercase","164000","0","3","a40770080031f58eea6699af8955881a50abb171f6b4b550797844809d2024e0","164006.89999997616","852.2000000476837","77","1","swim","","","","",""
"dual-task","null","null","null","","swim","swim","766.3000000715256","","Q","null","77","77","1","swim-dual-task","","Q","uppercase","176000","0","3","a40770080031f58eea6699af8955881a50abb171f6b4b550797844809d2024e0","176000.69999992847","766.3000000715256","77","1","swim","","","","",""
"dual-task","null","null","null","","swim","swim","1632.3000000715256","","H","null","77","77","1","swim-dual-task","","H","uppercase","188000","0","3","a40770080031f58eea6699af8955881a50abb171f6b4b550797844809d2024e0","188000.5","1632.3000000715256","77","1","swim","","","","",""
"dual-task","null","null","null","","swim","swim","569.5","","F","null","77","77","1","swim-dual-task","","F","uppercase","198000","0","3","a40770080031f58eea6699af8955881a50abb171f6b4b550797844809d2024e0","198004.39999997616","569.5","77","1","swim","","","","",""
"dual-task","null","null","null","","swim","swim","641.7000000476837","","d","null","88","88","1","swim-dual-task","","d","lowercase","208000","0","3","a40770080031f58eea6699af8955881a50abb171f6b4b550797844809d2024e0","207999.89999997616","641.7000000476837","88","1","swim","","","","",""
"dual-task","null","null","null","","swim","swim","546.6999999284744","","R","null","77","77","1","swim-dual-task","","R","uppercase","218000","0","3","a40770080031f58eea6699af8955881a50abb171f6b4b550797844809d2024e0","218004.79999995232","546.6999999284744","77","1","swim","","","","",""
"dual-task","null","null","null","","swim","swim","610.2000000476837","","a","null","88","88","1","swim-dual-task","","a","lowercase","228000","0","3","a40770080031f58eea6699af8955881a50abb171f6b4b550797844809d2024e0","228009.39999997616","610.2000000476837","88","1","swim","","","","",""
"dual-task","null","null","null","","swim","swim","907.3000000715256","","A","null","77","77","1","swim-dual-task","","A","uppercase","240000","0","3","a40770080031f58eea6699af8955881a50abb171f6b4b550797844809d2024e0","240004","907.3000000715256","77","1","swim","","","","",""
"dual-task","null","null","null","","swim","swim","576.5","","d","null","88","88","1","swim-dual-task","","d","lowercase","252000","0","3","a40770080031f58eea6699af8955881a50abb171f6b4b550797844809d2024e0","251999.79999995232","576.5","88","1","swim","","","","",""
"dual-task","null","null","null","","swim","swim","1227.6999999284744","","B","null","77","77","1","swim-dual-task","","B","uppercase","260000","0","3","a40770080031f58eea6699af8955881a50abb171f6b4b550797844809d2024e0","260010.5","1227.6999999284744","77","1","swim","","","","",""
"dual-task","null","null","null","","swim","swim","699.5999999046326","","e","null","88","88","1","swim-dual-task","","e","lowercase","274000","0","3","a40770080031f58eea6699af8955881a50abb171f6b4b550797844809d2024e0","274004.59999990463","699.5999999046326","88","1","swim","","","","",""
"dual-task","null","null","null","","swim","swim","918.2000000476837","","d","null","88","88","1","swim-dual-task","","d","lowercase","284000","0","3","a40770080031f58eea6699af8955881a50abb171f6b4b550797844809d2024e0","284008.2999999523","918.2000000476837","88","1","swim","","","","",""
"dual-task","null","null","null","","swim","swim","643.2999999523163","","N","null","77","77","1","swim-dual-task","","N","uppercase","296000","0","3","a40770080031f58eea6699af8955881a50abb171f6b4b550797844809d2024e0","296003","643.2999999523163","77","1","swim","","","","",""
"dual-task","null","null","null","","swim","swim","1078.0999999046326","","f","null","88","88","1","swim-dual-task","","f","lowercase","310000","0","3","a40770080031f58eea6699af8955881a50abb171f6b4b550797844809d2024e0","310005.1999999285","1078.0999999046326","88","1","swim","","","","",""
"dual-task","null","null","null","","swim","swim","NA","","b","null","NA","88","0","swim-dual-task","","b","lowercase","318000","1","3","a40770080031f58eea6699af8955881a50abb171f6b4b550797844809d2024e0","318004.39999997616","NA","NA","0","swim","","","","",""
"dual-task","null","null","null","","swim","swim","NA","","B","null","NA","77","0","swim-dual-task","","B","uppercase","328000","1","3","a40770080031f58eea6699af8955881a50abb171f6b4b550797844809d2024e0","328000","NA","NA","0","swim","","","","",""
"dual-task","null","null","null","","swim","swim","NA","","R","null","NA","77","0","swim-dual-task","","R","uppercase","334000","1","3","a40770080031f58eea6699af8955881a50abb171f6b4b550797844809d2024e0","334014.1999999285","NA","NA","0","swim","","","","",""
"dual-task","null","null","null","","swim","swim","410.2000000476837","","G","null","77","77","1","swim-dual-task","","G","uppercase","344000","0","3","a40770080031f58eea6699af8955881a50abb171f6b4b550797844809d2024e0","343999.2999999523","410.2000000476837","77","1","swim","","","","",""
"dual-task","null","null","null","","swim","swim","638.6000000238419","","a","null","88","88","1","swim-dual-task","","a","lowercase","352000","0","3","a40770080031f58eea6699af8955881a50abb171f6b4b550797844809d2024e0","352006.2999999523","638.6000000238419","88","1","swim","","","","",""
"dual-task","null","null","null","","swim","swim","733.1999999284744","","E","null","77","77","1","swim-dual-task","","E","uppercase","366000","0","3","a40770080031f58eea6699af8955881a50abb171f6b4b550797844809d2024e0","366003.1999999285","733.1999999284744","77","1","swim","","","","",""
"dual-task","null","null","null","","swim","swim","555.8999999761581","","D","null","77","77","1","swim-dual-task","","D","uppercase","374000","0","3","a40770080031f58eea6699af8955881a50abb171f6b4b550797844809d2024e0","374004.6999999285","555.8999999761581","77","1","swim","","","","",""
"dual-task","null","null","null","","swim","swim","742.3000000715256","","h","null","88","88","1","swim-dual-task","","h","lowercase","382000","0","3","a40770080031f58eea6699af8955881a50abb171f6b4b550797844809d2024e0","382004.59999990463","742.3000000715256","88","1","swim","","","","",""
"dual-task","null","null","null","","swim","swim","800.4000000953674","","Q","null","77","77","1","swim-dual-task","","Q","uppercase","392000","0","3","a40770080031f58eea6699af8955881a50abb171f6b4b550797844809d2024e0","392003.89999997616","800.4000000953674","77","1","swim","","","","",""
"dual-task","null","null","null","","swim","swim","NA","","d","null","NA","88","0","swim-dual-task","","d","lowercase","400000","1","3","a40770080031f58eea6699af8955881a50abb171f6b4b550797844809d2024e0","399999.5","NA","NA","0","swim","","","","",""
"dual-task","null","null","null","","swim","swim","NA","","g","null","NA","88","0","swim-dual-task","","g","lowercase","414000","1","3","a40770080031f58eea6699af8955881a50abb171f6b4b550797844809d2024e0","414005.2999999523","NA","NA","0","swim","","","","",""
"dual-task","null","null","null","","swim","swim","NA","","D","null","NA","77","0","swim-dual-task","","D","uppercase","424000","1","3","a40770080031f58eea6699af8955881a50abb171f6b4b550797844809d2024e0","424004.89999997616","NA","NA","0","swim","","","","",""
"dual-task","null","null","null","","swim","swim","NA","","g","null","NA","88","0","swim-dual-task","","g","lowercase","434000","1","3","a40770080031f58eea6699af8955881a50abb171f6b4b550797844809d2024e0","434004.1999999285","NA","NA","0","swim","","","","",""
"dual-task","null","null","null","","swim","swim","NA","","e","null","NA","88","0","swim-dual-task","","e","lowercase","446000","1","3","a40770080031f58eea6699af8955881a50abb171f6b4b550797844809d2024e0","446004.39999997616","NA","NA","0","swim","","","","",""
"dual-task","null","null","null","","swim","swim","750.1000000238419","","n","null","77","88","0","swim-dual-task","","n","lowercase","456000","0","3","a40770080031f58eea6699af8955881a50abb171f6b4b550797844809d2024e0","456010.1999999285","750.1000000238419","77","0","swim","","","","",""
"dual-task","null","null","null","","swim","swim","811.2000000476837","","t","null","88","88","1","swim-dual-task","","t","lowercase","466000","0","3","a40770080031f58eea6699af8955881a50abb171f6b4b550797844809d2024e0","466000.5","811.2000000476837","88","1","swim","","","","",""
"dual-task","null","null","null","","swim","swim","972.8999999761581","","t","null","88","88","1","swim-dual-task","","t","lowercase","478000","0","3","a40770080031f58eea6699af8955881a50abb171f6b4b550797844809d2024e0","478010.5","972.8999999761581","88","1","swim","","","","",""
"dual-task","null","null","null","","swim","swim","688.8999999761581","","Q","null","77","77","1","swim-dual-task","","Q","uppercase","488000","0","3","a40770080031f58eea6699af8955881a50abb171f6b4b550797844809d2024e0","488010.39999997616","688.8999999761581","77","1","swim","","","","",""
"dual-task","null","null","null","","swim","swim","548.8000000715256","","F","null","77","77","1","swim-dual-task","","F","uppercase","498000","0","3","a40770080031f58eea6699af8955881a50abb171f6b4b550797844809d2024e0","498005.1999999285","548.8000000715256","77","1","swim","","","","",""
"dual-task","null","null","null","","swim","swim","680","","h","null","88","88","1","swim-dual-task","","h","lowercase","512000","0","3","a40770080031f58eea6699af8955881a50abb171f6b4b550797844809d2024e0","512009.7999999523","680","88","1","swim","","","","",""
"dual-task","null","null","null","","swim","swim","569","","q","null","88","88","1","swim-dual-task","","q","lowercase","518000","0","3","a40770080031f58eea6699af8955881a50abb171f6b4b550797844809d2024e0","518004.7999999523","569","88","1","swim","","","","",""
"dual-task","null","null","null","","swim","swim","678.6999999284744","","e","null","88","88","1","swim-dual-task","","e","lowercase","524000","0","3","a40770080031f58eea6699af8955881a50abb171f6b4b550797844809d2024e0","524006.5","678.6999999284744","88","1","swim","","","","",""
"dual-task","null","null","null","","swim","swim","426.5","","g","null","77","88","0","swim-dual-task","","g","lowercase","536000","0","3","a40770080031f58eea6699af8955881a50abb171f6b4b550797844809d2024e0","536013.1999999285","426.5","77","0","swim","","","","",""
"dual-task","null","null","null","","swim","swim","521.1000000238419","","q","null","88","88","1","swim-dual-task","","q","lowercase","550000","0","3","a40770080031f58eea6699af8955881a50abb171f6b4b550797844809d2024e0","550004.8999999762","521.1000000238419","88","1","swim","","","","",""
"dual-task","null","null","null","","swim","swim","NA","","b","null","NA","88","0","swim-dual-task","","b","lowercase","556000","1","3","a40770080031f58eea6699af8955881a50abb171f6b4b550797844809d2024e0","556010.0999999046","NA","NA","0","swim","","","","",""
"dual-task","null","null","null","","swim","swim","697.3999999761581","","f","null","88","88","1","swim-dual-task","","f","lowercase","562000","0","3","a40770080031f58eea6699af8955881a50abb171f6b4b550797844809d2024e0","562004.7999999523","697.3999999761581","88","1","swim","","","","",""
"dual-task","null","null","null","","swim","swim","752.5","","n","null","88","88","1","swim-dual-task","","n","lowercase","568000","0","3","a40770080031f58eea6699af8955881a50abb171f6b4b550797844809d2024e0","568010.3999999762","752.5","88","1","swim","","","","",""
"dual-task","null","null","null","","swim","swim","688","","A","null","77","77","1","swim-dual-task","","A","uppercase","580000","0","3","a40770080031f58eea6699af8955881a50abb171f6b4b550797844809d2024e0","580010.0999999046","688","77","1","swim","","","","",""
"dual-task","null","null","null","","swim","swim","601.2000000476837","","q","null","88","88","1","swim-dual-task","","q","lowercase","590000","0","3","a40770080031f58eea6699af8955881a50abb171f6b4b550797844809d2024e0","590002.0999999046","601.2000000476837","88","1","swim","","","","",""
"dual-task","null","null","null","","swim","swim","NA","","N","null","NA","77","0","swim-dual-task","","N","uppercase","604000","1","3","a40770080031f58eea6699af8955881a50abb171f6b4b550797844809d2024e0","604004.1999999285","NA","NA","0","swim","","","","",""
"dual-task","null","null","null","","swim","swim","NA","","D","null","NA","77","0","swim-dual-task","","D","uppercase","614000","1","3","a40770080031f58eea6699af8955881a50abb171f6b4b550797844809d2024e0","614004.8999999762","NA","NA","0","swim","","","","",""
"dual-task","null","null","null","","swim","swim","1370.5","","f","null","88","88","1","swim-dual-task","","f","lowercase","624000","0","3","a40770080031f58eea6699af8955881a50abb171f6b4b550797844809d2024e0","624010.3999999762","1370.5","88","1","swim","","","","",""
"dual-task","null","null","null","","swim","swim","564.8000000715256","","E","null","77","77","1","swim-dual-task","","E","uppercase","632000","0","3","a40770080031f58eea6699af8955881a50abb171f6b4b550797844809d2024e0","632009.6999999285","564.8000000715256","77","1","swim","","","","",""
"dual-task","null","null","null","","swim","swim","645.3000000715256","","H","null","88","77","0","swim-dual-task","","H","uppercase","642000","0","3","a40770080031f58eea6699af8955881a50abb171f6b4b550797844809d2024e0","642014.3999999762","645.3000000715256","88","0","swim","","","","",""
"dual-task","null","null","null","","swim","swim","485.90000009536743","","F","null","77","77","1","swim-dual-task","","F","uppercase","648000","0","3","a40770080031f58eea6699af8955881a50abb171f6b4b550797844809d2024e0","648008.6999999285","485.90000009536743","77","1","swim","","","","",""
"dual-task","null","null","null","","swim","swim","609.1000000238419","","T","null","77","77","1","swim-dual-task","","T","uppercase","660000","0","3","a40770080031f58eea6699af8955881a50abb171f6b4b550797844809d2024e0","660008.5999999046","609.1000000238419","77","1","swim","","","","",""
"dual-task","null","null","null","","swim","swim","NA","","T","null","NA","77","0","swim-dual-task","","T","uppercase","670000","1","3","a40770080031f58eea6699af8955881a50abb171f6b4b550797844809d2024e0","670004.5","NA","NA","0","swim","","","","",""
"dual-task","null","null","null","","swim","swim","461.60000002384186","","R","null","77","77","1","swim-dual-task","","R","uppercase","680000","0","3","a40770080031f58eea6699af8955881a50abb171f6b4b550797844809d2024e0","680009.8999999762","461.60000002384186","77","1","swim","","","","",""
"dual-task","null","null","null","","swim","swim","497.89999997615814","","q","null","88","88","1","swim-dual-task","","q","lowercase","692000","0","3","a40770080031f58eea6699af8955881a50abb171f6b4b550797844809d2024e0","692009.7999999523","497.89999997615814","88","1","swim","","","","",""
"dual-task","null","null","null","","swim","swim","658.7000000476837","","b","null","77","88","0","swim-dual-task","","b","lowercase","702000","0","3","a40770080031f58eea6699af8955881a50abb171f6b4b550797844809d2024e0","702004.8999999762","658.7000000476837","77","0","swim","","","","",""
"dual-task","null","null","null","","swim","swim","618.3999999761581","","a","null","88","88","1","swim-dual-task","","a","lowercase","710000","0","3","a40770080031f58eea6699af8955881a50abb171f6b4b550797844809d2024e0","710004.7999999523","618.3999999761581","88","1","swim","","","","",""
"dual-task","null","null","null","","swim","swim","531","","a","null","88","88","1","swim-dual-task","","a","lowercase","718000","0","3","a40770080031f58eea6699af8955881a50abb171f6b4b550797844809d2024e0","718004.5999999046","531","88","1","swim","","","","",""
"dual-task","null","null","null","","swim","swim","463.89999997615814","","H","null","77","77","1","swim-dual-task","","H","uppercase","730000","0","3","a40770080031f58eea6699af8955881a50abb171f6b4b550797844809d2024e0","730015.3999999762","463.89999997615814","77","1","swim","","","","",""
"dual-task","null","null","null","","swim","swim","585.3999999761581","","r","null","88","88","1","swim-dual-task","","r","lowercase","742000","0","3","a40770080031f58eea6699af8955881a50abb171f6b4b550797844809d2024e0","742003.8999999762","585.3999999761581","88","1","swim","","","","",""
"dual-task","null","null","null","","swim","swim","549.8999999761581","","G","null","77","77","1","swim-dual-task","","G","uppercase","748000","0","3","a40770080031f58eea6699af8955881a50abb171f6b4b550797844809d2024e0","748010.1999999285","549.8999999761581","77","1","swim","","","","",""
"dual-task","null","null","null","","swim","swim","644.5","","e","null","88","88","1","swim-dual-task","","e","lowercase","762000","0","3","a40770080031f58eea6699af8955881a50abb171f6b4b550797844809d2024e0","762008","644.5","88","1","swim","","","","",""
"dual-task","null","null","null","","swim","swim","626.5","","r","null","88","88","1","swim-dual-task","","r","lowercase","772000","0","3","a40770080031f58eea6699af8955881a50abb171f6b4b550797844809d2024e0","772002.2999999523","626.5","88","1","swim","","","","",""
"dual-task","null","null","null","","swim","swim","668.2000000476837","","E","null","77","77","1","swim-dual-task","","E","uppercase","784000","0","3","a40770080031f58eea6699af8955881a50abb171f6b4b550797844809d2024e0","784012.8999999762","668.2000000476837","77","1","swim","","","","",""
"dual-task","null","null","null","","swim","swim","684.8999999761581","","F","null","77","77","1","swim-dual-task","","F","uppercase","792000","0","3","a40770080031f58eea6699af8955881a50abb171f6b4b550797844809d2024e0","792010.1999999285","684.8999999761581","77","1","swim","","","","",""
"audio-keyboard-response","29","966822","0.0-7.0-0.0-1.0","a40770080031f58eea6699af8955881a50abb171f6b4b550797844809d2024e0","swim","swim","null","","audio/story_swim_scrambled.mp3","","null","","","","","","","","","","","","","","","","","","","",""
"html-button-response","30","970418","0.0-7.0-0.0-2.0","a40770080031f58eea6699af8955881a50abb171f6b4b550797844809d2024e0","swim","swim","3594","","<p>This concludes the story. Thank you for listening.</p><p>You will now answer some questions about the content of the story.</p>","0","","","","","","","","","","","","","","","","","","","","",""
"survey-multi-choice","31","1911711","0.0-7.0-0.0-3.0-0.0","a40770080031f58eea6699af8955881a50abb171f6b4b550797844809d2024e0","swim","swim","941281","","<b>How did the narrator train for his swim test?</b>","","","","0","swim-comprehension","","","","","","","","","","","","","{""Q0"":""Swam at the lake every day""}","","","",""
"survey-multi-choice","32","1928699","0.0-7.0-0.0-3.0-0.1","a40770080031f58eea6699af8955881a50abb171f6b4b550797844809d2024e0","swim","swim","16733","","<b>How many astronaut candidates passed the first swim test?</b>","","","","1","swim-comprehension","","","","","","","","","","","","","{""Q0"":""All of them""}","","","",""
"survey-multi-choice","33","1953073","0.0-7.0-0.0-3.0-0.2","a40770080031f58eea6699af8955881a50abb171f6b4b550797844809d2024e0","swim","swim","24121","","<b>What was the final step of the first swim test in the pool?</b>","","","","1","swim-comprehension","","","","","","","","","","","","","{""Q0"":""Tread water with hands above the water""}","","","",""
"survey-multi-choice","34","1967246","0.0-7.0-0.0-3.0-0.3","a40770080031f58eea6699af8955881a50abb171f6b4b550797844809d2024e0","swim","swim","13919","","<b>What were the astronaut candidates trained to do at the naval air station?</b>","","","","1","swim-comprehension","","","","","","","","","","","","","{""Q0"":""Eject out of aircraft and survive in water long enough to be rescued""}","","","",""
"survey-multi-choice","35","2069706","0.0-7.0-0.0-3.0-0.4","a40770080031f58eea6699af8955881a50abb171f6b4b550797844809d2024e0","swim","swim","102205","","<b>How many astronaut candidates reported for duty at the Johnson Space Center?</b>","","","","0","swim-comprehension","","","","","","","","","","","","","{""Q0"":""One hundred""}","","","",""
"survey-multi-choice","36","2074274","0.0-7.0-0.0-3.0-0.5","a40770080031f58eea6699af8955881a50abb171f6b4b550797844809d2024e0","swim","swim","4316","","<b>How often does the narrator swim, now that he is a good swimmer?</b>","","","","0","swim-comprehension","","","","","","","","","","","","","{""Q0"":""Every weekend with his kids""}","","","",""
"survey-multi-choice","37","2080650","0.0-7.0-0.0-3.0-0.6","a40770080031f58eea6699af8955881a50abb171f6b4b550797844809d2024e0","swim","swim","6123","","<b>What gave the narrator his greatest feeling of accomplishment?</b>","","","","0","swim-comprehension","","","","","","","","","","","","","{""Q0"":""Seeing Earth from space""}","","","",""
"survey-multi-choice","38","2085358","0.0-7.0-0.0-3.0-0.7","a40770080031f58eea6699af8955881a50abb171f6b4b550797844809d2024e0","swim","swim","4454","","<b>What is the narrator afraid of, aside from the water?</b>","","","","1","swim-comprehension","","","","","","","","","","","","","{""Q0"":""Heights""}","","","",""
"survey-multi-choice","39","2092158","0.0-7.0-0.0-3.0-0.8","a40770080031f58eea6699af8955881a50abb171f6b4b550797844809d2024e0","swim","swim","6547","","<b>How many times did the astronaut candidates have to complete the final exercise to pass?</b>","","","","0","swim-comprehension","","","","","","","","","","","","","{""Q0"":""Five""}","","","",""
"survey-multi-choice","40","2123408","0.0-7.0-0.0-3.0-0.9","a40770080031f58eea6699af8955881a50abb171f6b4b550797844809d2024e0","swim","swim","30995","","<b>Where is the home of naval aviation?</b>","","","","0","swim-comprehension","","","","","","","","","","","","","{""Q0"":""Los Angeles""}","","","",""
"html-button-response","41","2128191","0.0-7.0-0.0-4.0","a40770080031f58eea6699af8955881a50abb171f6b4b550797844809d2024e0","swim","swim","4532","","<p>Thank you for your responses.</p><p>You will now answer some questions about your impressions of the story.</p>","0","","","","","","","","","","","","","","","","","","","","",""
"html-button-response","42","2131399","0.0-7.0-0.0-5.0-0.0","a40770080031f58eea6699af8955881a50abb171f6b4b550797844809d2024e0","swim","swim","3206","","A1","6","","","","swim-engagement","","","","","","","","","","","","","","7","absorption","",""
"html-button-response","43","2133567","0.0-7.0-0.0-5.0-0.1","a40770080031f58eea6699af8955881a50abb171f6b4b550797844809d2024e0","swim","swim","1915","","EE5","6","","","","swim-engagement","","","","","","","","","","","","","","7","emo-engage","",""
"html-button-response","44","2137337","0.0-7.0-0.0-5.0-0.2","a40770080031f58eea6699af8955881a50abb171f6b4b550797844809d2024e0","swim","swim","3518","","MS1","6","","","","swim-engagement","","","","","","","","","","","","","","7","mental-sim","",""
"html-button-response","45","2142184","0.0-7.0-0.0-5.0-0.3","a40770080031f58eea6699af8955881a50abb171f6b4b550797844809d2024e0","swim","swim","4594","","A5","6","","","","swim-engagement","","","","","","","","","","","","","","7","absorption","",""
"html-button-response","46","2144797","0.0-7.0-0.0-5.0-0.4","a40770080031f58eea6699af8955881a50abb171f6b4b550797844809d2024e0","swim","swim","2362","","E1","6","","","","swim-engagement","","","","","","","","","","","","","","7","enjoyment","",""
"html-button-response","47","2148322","0.0-7.0-0.0-5.0-0.5","a40770080031f58eea6699af8955881a50abb171f6b4b550797844809d2024e0","swim","swim","3272","","A2","6","","","","swim-engagement","","","","","","","","","","","","","","7","absorption","",""
"html-button-response","48","2151229","0.0-7.0-0.0-5.0-0.6","a40770080031f58eea6699af8955881a50abb171f6b4b550797844809d2024e0","swim","swim","2653","","MS3","6","","","","swim-engagement","","","","","","","","","","","","","","7","mental-sim","",""
"html-button-response","49","2153365","0.0-7.0-0.0-5.0-0.7","a40770080031f58eea6699af8955881a50abb171f6b4b550797844809d2024e0","swim","swim","1885","","E7","6","","","","swim-engagement","","","","","","","","","","","","","","7","enjoyment","",""
"html-button-response","50","2155691","0.0-7.0-0.0-5.0-0.8","a40770080031f58eea6699af8955881a50abb171f6b4b550797844809d2024e0","swim","swim","2074","","EE3","6","","","","swim-engagement","","","","","","","","","","","","","","7","emo-engage","",""
"html-button-response","51","2161360","0.0-7.0-0.0-5.0-0.9","a40770080031f58eea6699af8955881a50abb171f6b4b550797844809d2024e0","swim","swim","5415","","EE2","6","","","","swim-engagement","","","","","","","","","","","","","","7","emo-engage","",""
"html-button-response","52","2164841","0.0-7.0-0.0-5.0-0.10","a40770080031f58eea6699af8955881a50abb171f6b4b550797844809d2024e0","swim","swim","3230","","E10","6","","","","swim-engagement","","","","","","","","","","","","","","7","enjoyment","",""
"html-button-response","53","2166644","0.0-7.0-0.0-5.0-0.11","a40770080031f58eea6699af8955881a50abb171f6b4b550797844809d2024e0","swim","swim","1549","","E6","6","","","","swim-engagement","","","","","","","","","","","","","","7","enjoyment","",""
"html-button-response","54","2167630","0.0-7.0-0.0-5.0-0.12","a40770080031f58eea6699af8955881a50abb171f6b4b550797844809d2024e0","swim","swim","733","","EE4","6","","","","swim-engagement","","","","","","","","","","","","","","7","emo-engage","",""
"html-button-response","55","2168520","0.0-7.0-0.0-5.0-0.13","a40770080031f58eea6699af8955881a50abb171f6b4b550797844809d2024e0","swim","swim","630","","MS2","6","","","","swim-engagement","","","","","","","","","","","","","","7","mental-sim","",""
"html-button-response","56","2169825","0.0-7.0-0.0-5.0-0.14","a40770080031f58eea6699af8955881a50abb171f6b4b550797844809d2024e0","swim","swim","1046","","E8","6","","","","swim-engagement","","","","","","","","","","","","","","7","enjoyment","",""
"html-button-response","57","2173844","0.0-7.0-0.0-5.0-0.15","a40770080031f58eea6699af8955881a50abb171f6b4b550797844809d2024e0","swim","swim","3766","","EE1","5","","","","swim-engagement","","","","","","","","","","","","","","6","emo-engage","",""
"html-button-response","58","2175825","0.0-7.0-0.0-5.0-0.16","a40770080031f58eea6699af8955881a50abb171f6b4b550797844809d2024e0","swim","swim","1729","","A3","6","","","","swim-engagement","","","","","","","","","","","","","","7","absorption","",""
"html-button-response","59","2178800","0.0-7.0-0.0-5.0-0.17","a40770080031f58eea6699af8955881a50abb171f6b4b550797844809d2024e0","swim","swim","2722","","A4","6","","","","swim-engagement","","","","","","","","","","","","","","7","absorption","",""
"html-keyboard-response","60","2336974","0.0-7.0-1.0","a40770080031f58eea6699af8955881a50abb171f6b4b550797844809d2024e0","swim","swim","157919","","<p>Thank you for your responses. You will now listen to the second story.</p><p>Remember, as you listen to the story you will see letters appear on the screen.</br>As quickly as possible, press <b>&lt;x&gt;</b> if the letter is lowercase and <b>&lt;m&gt;</b> if the letter is uppercase.</p><p>Press <b>&lt;x&gt;</b> or <b>&lt;m&gt;</b> to begin listening!</p>","","88","","","","","","","","","","","","","","","","","","","",""
"html-keyboard-response","61","2337475","0.0-7.0-2.0-0.0","a40770080031f58eea6699af8955881a50abb171f6b4b550797844809d2024e0","swim","swim","null","","<div style=""font-size:60px;"" tabindex=""0"">+</div>","","null","","","","","","","","","","","","","","","","","","","",""
"dual-task","null","null","null","","swim","swim","NA","","R","null","NA","77","0","arctic-dual-task","","R","uppercase","14000","1","3","a40770080031f58eea6699af8955881a50abb171f6b4b550797844809d2024e0","14014.200000047684","NA","NA","0","arctic","","","","",""
"dual-task","null","null","null","","swim","swim","NA","","b","null","NA","88","0","arctic-dual-task","","b","lowercase","28000","1","3","a40770080031f58eea6699af8955881a50abb171f6b4b550797844809d2024e0","28008.300000071526","NA","NA","0","arctic","","","","",""
"dual-task","null","null","null","","swim","swim","729.1000000238419","","f","null","88","88","1","arctic-dual-task","","f","lowercase","38000","0","3","a40770080031f58eea6699af8955881a50abb171f6b4b550797844809d2024e0","38014.200000047684","729.1000000238419","88","1","arctic","","","","",""
"dual-task","null","null","null","","swim","swim","615.3999999761581","","e","null","88","88","1","arctic-dual-task","","e","lowercase","50000","0","3","a40770080031f58eea6699af8955881a50abb171f6b4b550797844809d2024e0","50005.800000071526","615.3999999761581","88","1","arctic","","","","",""
"dual-task","null","null","null","","swim","swim","864.6000000238419","","b","null","88","88","1","arctic-dual-task","","b","lowercase","58000","0","3","a40770080031f58eea6699af8955881a50abb171f6b4b550797844809d2024e0","58012.10000002384","864.6000000238419","88","1","arctic","","","","",""
"dual-task","null","null","null","","swim","swim","829.1000000238419","","e","null","88","88","1","arctic-dual-task","","e","lowercase","70000","0","3","a40770080031f58eea6699af8955881a50abb171f6b4b550797844809d2024e0","70013","829.1000000238419","88","1","arctic","","","","",""
"dual-task","null","null","null","","swim","swim","550.8000000715256","","F","null","77","77","1","arctic-dual-task","","F","uppercase","84000","0","3","a40770080031f58eea6699af8955881a50abb171f6b4b550797844809d2024e0","84006.10000002384","550.8000000715256","77","1","arctic","","","","",""
"dual-task","null","null","null","","swim","swim","637.3999999761581","","F","null","77","77","1","arctic-dual-task","","F","uppercase","98000","0","3","a40770080031f58eea6699af8955881a50abb171f6b4b550797844809d2024e0","98011.20000004768","637.3999999761581","77","1","arctic","","","","",""
"dual-task","null","null","null","","swim","swim","760.3999999761581","","n","null","88","88","1","arctic-dual-task","","n","lowercase","112000","0","3","a40770080031f58eea6699af8955881a50abb171f6b4b550797844809d2024e0","112007.20000004768","760.3999999761581","88","1","arctic","","","","",""
"dual-task","null","null","null","","swim","swim","503.7999999523163","","Q","null","77","77","1","arctic-dual-task","","Q","uppercase","120000","0","3","a40770080031f58eea6699af8955881a50abb171f6b4b550797844809d2024e0","120012.5","503.7999999523163","77","1","arctic","","","","",""
"dual-task","null","null","null","","swim","swim","797.5","","h","null","88","88","1","arctic-dual-task","","h","lowercase","132000","0","3","a40770080031f58eea6699af8955881a50abb171f6b4b550797844809d2024e0","132015.39999997616","797.5","88","1","arctic","","","","",""
"dual-task","null","null","null","","swim","swim","656.5999999046326","","T","null","77","77","1","arctic-dual-task","","T","uppercase","146000","0","3","a40770080031f58eea6699af8955881a50abb171f6b4b550797844809d2024e0","146001.70000004768","656.5999999046326","77","1","arctic","","","","",""
"dual-task","null","null","null","","swim","swim","537.4000000953674","","B","null","77","77","1","arctic-dual-task","","B","uppercase","154000","0","3","a40770080031f58eea6699af8955881a50abb171f6b4b550797844809d2024e0","154000.20000004768","537.4000000953674","77","1","arctic","","","","",""
"dual-task","null","null","null","","swim","swim","448.5","","T","null","77","77","1","arctic-dual-task","","T","uppercase","164000","0","3","a40770080031f58eea6699af8955881a50abb171f6b4b550797844809d2024e0","164008.30000007153","448.5","77","1","arctic","","","","",""
"dual-task","null","null","null","","swim","swim","523.3999999761581","","R","null","77","77","1","arctic-dual-task","","R","uppercase","178000","0","3","a40770080031f58eea6699af8955881a50abb171f6b4b550797844809d2024e0","178008","523.3999999761581","77","1","arctic","","","","",""
"dual-task","null","null","null","","swim","swim","849.6999999284744","","d","null","88","88","1","arctic-dual-task","","d","lowercase","186000","0","3","a40770080031f58eea6699af8955881a50abb171f6b4b550797844809d2024e0","186007.39999997616","849.6999999284744","88","1","arctic","","","","",""
"dual-task","null","null","null","","swim","swim","478","","T","null","77","77","1","arctic-dual-task","","T","uppercase","200000","0","3","a40770080031f58eea6699af8955881a50abb171f6b4b550797844809d2024e0","200002.70000004768","478","77","1","arctic","","","","",""
"dual-task","null","null","null","","swim","swim","649.9000000953674","","h","null","77","88","0","arctic-dual-task","","h","lowercase","212000","0","3","a40770080031f58eea6699af8955881a50abb171f6b4b550797844809d2024e0","212007.70000004768","649.9000000953674","77","0","arctic","","","","",""
"dual-task","null","null","null","","swim","swim","433.1999999284744","","a","null","88","88","1","arctic-dual-task","","a","lowercase","220000","0","3","a40770080031f58eea6699af8955881a50abb171f6b4b550797844809d2024e0","220002.5","433.1999999284744","88","1","arctic","","","","",""
"dual-task","null","null","null","","swim","swim","778.7000000476837","","r","null","88","88","1","arctic-dual-task","","r","lowercase","234000","0","3","a40770080031f58eea6699af8955881a50abb171f6b4b550797844809d2024e0","234007.60000002384","778.7000000476837","88","1","arctic","","","","",""
"dual-task","null","null","null","","swim","swim","518.3999999761581","","Q","null","77","77","1","arctic-dual-task","","Q","uppercase","246000","0","3","a40770080031f58eea6699af8955881a50abb171f6b4b550797844809d2024e0","246007.70000004768","518.3999999761581","77","1","arctic","","","","",""
"dual-task","null","null","null","","swim","swim","775.3999999761581","","r","null","88","88","1","arctic-dual-task","","r","lowercase","256000","0","3","a40770080031f58eea6699af8955881a50abb171f6b4b550797844809d2024e0","256002.5","775.3999999761581","88","1","arctic","","","","",""
"dual-task","null","null","null","","swim","swim","829.3999999761581","","b","null","88","88","1","arctic-dual-task","","b","lowercase","264000","0","3","a40770080031f58eea6699af8955881a50abb171f6b4b550797844809d2024e0","264002.89999997616","829.3999999761581","88","1","arctic","","","","",""
"dual-task","null","null","null","","swim","swim","577.3000000715256","","H","null","77","77","1","arctic-dual-task","","H","uppercase","274000","0","3","a40770080031f58eea6699af8955881a50abb171f6b4b550797844809d2024e0","274005.10000002384","577.3000000715256","77","1","arctic","","","","",""
"dual-task","null","null","null","","swim","swim","693.3000000715256","","B","null","77","77","1","arctic-dual-task","","B","uppercase","286000","0","3","a40770080031f58eea6699af8955881a50abb171f6b4b550797844809d2024e0","286004.60000002384","693.3000000715256","77","1","arctic","","","","",""
"dual-task","null","null","null","","swim","swim","594.6999999284744","","r","null","88","88","1","arctic-dual-task","","r","lowercase","296000","0","3","a40770080031f58eea6699af8955881a50abb171f6b4b550797844809d2024e0","296002.39999997616","594.6999999284744","88","1","arctic","","","","",""
"dual-task","null","null","null","","swim","swim","1041.9000000953674","","D","null","77","77","1","arctic-dual-task","","D","uppercase","306000","0","3","a40770080031f58eea6699af8955881a50abb171f6b4b550797844809d2024e0","306007.5","1041.9000000953674","77","1","arctic","","","","",""
"dual-task","null","null","null","","swim","swim","820.2999999523163","","r","null","88","88","1","arctic-dual-task","","r","lowercase","314000","0","3","a40770080031f58eea6699af8955881a50abb171f6b4b550797844809d2024e0","314007.8000000715","820.2999999523163","88","1","arctic","","","","",""
"dual-task","null","null","null","","swim","swim","1431.8999999761581","","G","null","77","77","1","arctic-dual-task","","G","uppercase","326000","0","3","a40770080031f58eea6699af8955881a50abb171f6b4b550797844809d2024e0","326012.5","1431.8999999761581","77","1","arctic","","","","",""
"dual-task","null","null","null","","swim","swim","550.5","","A","null","88","77","0","arctic-dual-task","","A","uppercase","334000","0","3","a40770080031f58eea6699af8955881a50abb171f6b4b550797844809d2024e0","334007","550.5","88","0","arctic","","","","",""
"dual-task","null","null","null","","swim","swim","1257.6999999284744","","B","null","77","77","1","arctic-dual-task","","B","uppercase","346000","0","3","a40770080031f58eea6699af8955881a50abb171f6b4b550797844809d2024e0","346007.3000000715","1257.6999999284744","77","1","arctic","","","","",""
"dual-task","null","null","null","","swim","swim","735.6000000238419","","f","null","88","88","1","arctic-dual-task","","f","lowercase","356000","0","3","a40770080031f58eea6699af8955881a50abb171f6b4b550797844809d2024e0","356002.2000000477","735.6000000238419","88","1","arctic","","","","",""
"dual-task","null","null","null","","swim","swim","561","","t","null","88","88","1","arctic-dual-task","","t","lowercase","366000","0","3","a40770080031f58eea6699af8955881a50abb171f6b4b550797844809d2024e0","366007.8000000715","561","88","1","arctic","","","","",""
"dual-task","null","null","null","","swim","swim","657","","d","null","88","88","1","arctic-dual-task","","d","lowercase","376000","0","3","a40770080031f58eea6699af8955881a50abb171f6b4b550797844809d2024e0","376002.10000002384","657","88","1","arctic","","","","",""
"dual-task","null","null","null","","swim","swim","1442.6000000238419","","n","null","88","88","1","arctic-dual-task","","n","lowercase","386000","0","3","a40770080031f58eea6699af8955881a50abb171f6b4b550797844809d2024e0","386007.89999997616","1442.6000000238419","88","1","arctic","","","","",""
"dual-task","null","null","null","","swim","swim","496.59999990463257","","R","null","77","77","1","arctic-dual-task","","R","uppercase","398000","0","3","a40770080031f58eea6699af8955881a50abb171f6b4b550797844809d2024e0","398007.39999997616","496.59999990463257","77","1","arctic","","","","",""
"dual-task","null","null","null","","swim","swim","571.2999999523163","","q","null","88","88","1","arctic-dual-task","","q","lowercase","404000","0","3","a40770080031f58eea6699af8955881a50abb171f6b4b550797844809d2024e0","404002.39999997616","571.2999999523163","88","1","arctic","","","","",""
"dual-task","null","null","null","","swim","swim","662.6000000238419","","E","null","77","77","1","arctic-dual-task","","E","uppercase","418000","0","3","a40770080031f58eea6699af8955881a50abb171f6b4b550797844809d2024e0","418007.3000000715","662.6000000238419","77","1","arctic","","","","",""
"dual-task","null","null","null","","swim","swim","NA","","g","null","NA","88","0","arctic-dual-task","","g","lowercase","424000","1","3","a40770080031f58eea6699af8955881a50abb171f6b4b550797844809d2024e0","424001.2000000477","NA","NA","0","arctic","","","","",""
"dual-task","null","null","null","","swim","swim","NA","","F","null","NA","77","0","arctic-dual-task","","F","uppercase","436000","1","3","a40770080031f58eea6699af8955881a50abb171f6b4b550797844809d2024e0","436009.8000000715","NA","NA","0","arctic","","","","",""
"dual-task","null","null","null","","swim","swim","NA","","D","null","NA","77","0","arctic-dual-task","","D","uppercase","446000","1","3","a40770080031f58eea6699af8955881a50abb171f6b4b550797844809d2024e0","446004.5","NA","NA","0","arctic","","","","",""
"dual-task","null","null","null","","swim","swim","NA","","t","null","NA","88","0","arctic-dual-task","","t","lowercase","452000","1","3","a40770080031f58eea6699af8955881a50abb171f6b4b550797844809d2024e0","452000.60000002384","NA","NA","0","arctic","","","","",""
"dual-task","null","null","null","","swim","swim","NA","","E","null","NA","77","0","arctic-dual-task","","E","uppercase","460000","1","3","a40770080031f58eea6699af8955881a50abb171f6b4b550797844809d2024e0","460011.39999997616","NA","NA","0","arctic","","","","",""
"dual-task","null","null","null","","swim","swim","NA","","G","null","NA","77","0","arctic-dual-task","","G","uppercase","468000","1","3","a40770080031f58eea6699af8955881a50abb171f6b4b550797844809d2024e0","468001.60000002384","NA","NA","0","arctic","","","","",""
"dual-task","null","null","null","","swim","swim","NA","","g","null","NA","88","0","arctic-dual-task","","g","lowercase","474000","1","3","a40770080031f58eea6699af8955881a50abb171f6b4b550797844809d2024e0","474007.7000000477","NA","NA","0","arctic","","","","",""
"dual-task","null","null","null","","swim","swim","NA","","t","null","NA","88","0","arctic-dual-task","","t","lowercase","484000","1","3","a40770080031f58eea6699af8955881a50abb171f6b4b550797844809d2024e0","484000","NA","NA","0","arctic","","","","",""
"dual-task","null","null","null","","swim","swim","NA","","E","null","NA","77","0","arctic-dual-task","","E","uppercase","498000","1","3","a40770080031f58eea6699af8955881a50abb171f6b4b550797844809d2024e0","498007.39999997616","NA","NA","0","arctic","","","","",""
"dual-task","null","null","null","","swim","swim","NA","","A","null","NA","77","0","arctic-dual-task","","A","uppercase","504000","1","3","a40770080031f58eea6699af8955881a50abb171f6b4b550797844809d2024e0","504007.10000002384","NA","NA","0","arctic","","","","",""
"dual-task","null","null","null","","swim","swim","NA","","T","null","NA","77","0","arctic-dual-task","","T","uppercase","512000","1","3","a40770080031f58eea6699af8955881a50abb171f6b4b550797844809d2024e0","512009.5","NA","NA","0","arctic","","","","",""
"dual-task","null","null","null","","swim","swim","NA","","A","null","NA","77","0","arctic-dual-task","","A","uppercase","518000","1","3","a40770080031f58eea6699af8955881a50abb171f6b4b550797844809d2024e0","518002.2000000477","NA","NA","0","arctic","","","","",""
"dual-task","null","null","null","","swim","swim","NA","","H","null","NA","77","0","arctic-dual-task","","H","uppercase","528000","1","3","a40770080031f58eea6699af8955881a50abb171f6b4b550797844809d2024e0","528001.5","NA","NA","0","arctic","","","","",""
"dual-task","null","null","null","","swim","swim","NA","","B","null","NA","77","0","arctic-dual-task","","B","uppercase","536000","1","3","a40770080031f58eea6699af8955881a50abb171f6b4b550797844809d2024e0","536001.5","NA","NA","0","arctic","","","","",""
"dual-task","null","null","null","","swim","swim","NA","","e","null","NA","88","0","arctic-dual-task","","e","lowercase","548000","1","3","a40770080031f58eea6699af8955881a50abb171f6b4b550797844809d2024e0","548000.8999999762","NA","NA","0","arctic","","","","",""
"dual-task","null","null","null","","swim","swim","NA","","n","null","NA","88","0","arctic-dual-task","","n","lowercase","556000","1","3","a40770080031f58eea6699af8955881a50abb171f6b4b550797844809d2024e0","556001.3000000715","NA","NA","0","arctic","","","","",""
"dual-task","null","null","null","","swim","swim","NA","","D","null","NA","77","0","arctic-dual-task","","D","uppercase","568000","1","3","a40770080031f58eea6699af8955881a50abb171f6b4b550797844809d2024e0","568007.7000000477","NA","NA","0","arctic","","","","",""
"dual-task","null","null","null","","swim","swim","NA","","E","null","NA","77","0","arctic-dual-task","","E","uppercase","576000","1","3","a40770080031f58eea6699af8955881a50abb171f6b4b550797844809d2024e0","576015.1000000238","NA","NA","0","arctic","","","","",""
"dual-task","null","null","null","","swim","swim","NA","","N","null","NA","77","0","arctic-dual-task","","N","uppercase","584000","1","3","a40770080031f58eea6699af8955881a50abb171f6b4b550797844809d2024e0","584004","NA","NA","0","arctic","","","","",""
"dual-task","null","null","null","","swim","swim","NA","","a","null","NA","88","0","arctic-dual-task","","a","lowercase","592000","1","3","a40770080031f58eea6699af8955881a50abb171f6b4b550797844809d2024e0","592001.5","NA","NA","0","arctic","","","","",""
"dual-task","null","null","null","","swim","swim","NA","","d","null","NA","88","0","arctic-dual-task","","d","lowercase","600000","1","3","a40770080031f58eea6699af8955881a50abb171f6b4b550797844809d2024e0","600002.1000000238","NA","NA","0","arctic","","","","",""
"dual-task","null","null","null","","swim","swim","NA","","H","null","NA","77","0","arctic-dual-task","","H","uppercase","614000","1","3","a40770080031f58eea6699af8955881a50abb171f6b4b550797844809d2024e0","614007","NA","NA","0","arctic","","","","",""
"dual-task","null","null","null","","swim","swim","NA","","g","null","NA","88","0","arctic-dual-task","","g","lowercase","622000","1","3","a40770080031f58eea6699af8955881a50abb171f6b4b550797844809d2024e0","622011.1000000238","NA","NA","0","arctic","","","","",""
"dual-task","null","null","null","","swim","swim","NA","","q","null","NA","88","0","arctic-dual-task","","q","lowercase","628000","1","3","a40770080031f58eea6699af8955881a50abb171f6b4b550797844809d2024e0","628001","NA","NA","0","arctic","","","","",""
"dual-task","null","null","null","","swim","swim","NA","","D","null","NA","77","0","arctic-dual-task","","D","uppercase","636000","1","3","a40770080031f58eea6699af8955881a50abb171f6b4b550797844809d2024e0","636013.3999999762","NA","NA","0","arctic","","","","",""
"dual-task","null","null","null","","swim","swim","NA","","a","null","NA","88","0","arctic-dual-task","","a","lowercase","642000","1","3","a40770080031f58eea6699af8955881a50abb171f6b4b550797844809d2024e0","642010.3000000715","NA","NA","0","arctic","","","","",""
"dual-task","null","null","null","","swim","swim","NA","","R","null","NA","77","0","arctic-dual-task","","R","uppercase","650000","1","3","a40770080031f58eea6699af8955881a50abb171f6b4b550797844809d2024e0","650006.7000000477","NA","NA","0","arctic","","","","",""
"dual-task","null","null","null","","swim","swim","NA","","g","null","NA","88","0","arctic-dual-task","","g","lowercase","662000","1","3","a40770080031f58eea6699af8955881a50abb171f6b4b550797844809d2024e0","662006.6000000238","NA","NA","0","arctic","","","","",""
"dual-task","null","null","null","","swim","swim","NA","","q","null","NA","88","0","arctic-dual-task","","q","lowercase","668000","1","3","a40770080031f58eea6699af8955881a50abb171f6b4b550797844809d2024e0","668001.5","NA","NA","0","arctic","","","","",""
"dual-task","null","null","null","","swim","swim","1468.1999999284744","","N","null","77","77","1","arctic-dual-task","","N","uppercase","674000","0","3","a40770080031f58eea6699af8955881a50abb171f6b4b550797844809d2024e0","674007.8000000715","1468.1999999284744","77","1","arctic","","","","",""
"dual-task","null","null","null","","swim","swim","592.2999999523163","","A","null","77","77","1","arctic-dual-task","","A","uppercase","682000","0","3","a40770080031f58eea6699af8955881a50abb171f6b4b550797844809d2024e0","682006.8000000715","592.2999999523163","77","1","arctic","","","","",""
"dual-task","null","null","null","","swim","swim","515.6999999284744","","G","null","77","77","1","arctic-dual-task","","G","uppercase","696000","0","3","a40770080031f58eea6699af8955881a50abb171f6b4b550797844809d2024e0","696008.8999999762","515.6999999284744","77","1","arctic","","","","",""
"dual-task","null","null","null","","swim","swim","467.2000000476837","","F","null","77","77","1","arctic-dual-task","","F","uppercase","704000","0","3","a40770080031f58eea6699af8955881a50abb171f6b4b550797844809d2024e0","704006.8000000715","467.2000000476837","77","1","arctic","","","","",""
"dual-task","null","null","null","","swim","swim","718.1999999284744","","h","null","88","88","1","arctic-dual-task","","h","lowercase","710000","0","3","a40770080031f58eea6699af8955881a50abb171f6b4b550797844809d2024e0","710007.3999999762","718.1999999284744","88","1","arctic","","","","",""
"dual-task","null","null","null","","swim","swim","743.6000000238419","","n","null","88","88","1","arctic-dual-task","","n","lowercase","722000","0","3","a40770080031f58eea6699af8955881a50abb171f6b4b550797844809d2024e0","722007.7000000477","743.6000000238419","88","1","arctic","","","","",""
"dual-task","null","null","null","","swim","swim","660.6000000238419","","q","null","88","88","1","arctic-dual-task","","q","lowercase","730000","0","3","a40770080031f58eea6699af8955881a50abb171f6b4b550797844809d2024e0","730005.3000000715","660.6000000238419","88","1","arctic","","","","",""
"dual-task","null","null","null","","swim","swim","529.1999999284744","","e","null","77","88","0","arctic-dual-task","","e","lowercase","740000","0","3","a40770080031f58eea6699af8955881a50abb171f6b4b550797844809d2024e0","740002.3999999762","529.1999999284744","77","0","arctic","","","","",""
"dual-task","null","null","null","","swim","swim","711.6999999284744","","G","null","88","77","0","arctic-dual-task","","G","uppercase","750000","0","3","a40770080031f58eea6699af8955881a50abb171f6b4b550797844809d2024e0","750006.8999999762","711.6999999284744","88","0","arctic","","","","",""
"dual-task","null","null","null","","swim","swim","NA","","t","null","NA","88","0","arctic-dual-task","","t","lowercase","758000","1","3","a40770080031f58eea6699af8955881a50abb171f6b4b550797844809d2024e0","758009.1000000238","NA","NA","0","arctic","","","","",""
"dual-task","null","null","null","","swim","swim","611.2999999523163","","N","null","77","77","1","arctic-dual-task","","N","uppercase","772000","0","3","a40770080031f58eea6699af8955881a50abb171f6b4b550797844809d2024e0","772001.8999999762","611.2999999523163","77","1","arctic","","","","",""
"dual-task","null","null","null","","swim","swim","757.1999999284744","","f","null","88","88","1","arctic-dual-task","","f","lowercase","782000","0","3","a40770080031f58eea6699af8955881a50abb171f6b4b550797844809d2024e0","782007.3999999762","757.1999999284744","88","1","arctic","","","","",""
"audio-keyboard-response","62","3135539","0.0-7.0-2.0-1.0","a40770080031f58eea6699af8955881a50abb171f6b4b550797844809d2024e0","swim","swim","null","","audio/story_arctic.mp3","","null","","","","","","","","","","","","","","","","","","","",""
"html-button-response","63","3140601","0.0-7.0-2.0-2.0","a40770080031f58eea6699af8955881a50abb171f6b4b550797844809d2024e0","swim","swim","5061","","<p>This concludes the story. Thank you for listening.</p><p>You will now answer some questions about the content of the story.</p>","0","","","","","","","","","","","","","","","","","","","","",""
"survey-multi-choice","64","3150582","0.0-7.0-2.0-3.0-0.0","a40770080031f58eea6699af8955881a50abb171f6b4b550797844809d2024e0","swim","swim","9977","","<b>What did the narrator do for leisure while in her tent?</b>","","","","1","arctic-comprehension","","","","","","","","","","","","","{""Q0"":""Read""}","","","",""
"survey-multi-choice","65","3155760","0.0-7.0-2.0-3.0-0.1","a40770080031f58eea6699af8955881a50abb171f6b4b550797844809d2024e0","swim","swim","4922","","<b>How many sponsorships did the narrator receive to support her expedition?</b>","","","","1","arctic-comprehension","","","","","","","","","","","","","{""Q0"":""None""}","","","",""
"survey-multi-choice","66","3173762","0.0-7.0-2.0-3.0-0.2","a40770080031f58eea6699af8955881a50abb171f6b4b550797844809d2024e0","swim","swim","17732","","<b>How did the narrator prepare for her expedition?</b>","","","","1","arctic-comprehension","","","","","","","","","","","","","{""Q0"":""Trained in Alaska learning how to dogsled""}","","","",""
"survey-multi-choice","67","3182122","0.0-7.0-2.0-3.0-0.3","a40770080031f58eea6699af8955881a50abb171f6b4b550797844809d2024e0","swim","swim","8107","","<b>What were the weather conditions in the Arctic like the winter of the narrator&#39;s expedition?</b>","","","","0","arctic-comprehension","","","","","","","","","","","","","{""Q0"":""It was the coldest winter in recorded history.""}","","","",""
"survey-multi-choice","68","3195641","0.0-7.0-2.0-3.0-0.4","a40770080031f58eea6699af8955881a50abb171f6b4b550797844809d2024e0","swim","swim","13265","","<b>How did the dogs respond when they saw the bears?</b>","","","","1","arctic-comprehension","","","","","","","","","","","","","{""Q0"":""Approached them""}","","","",""
"survey-multi-choice","69","3201726","0.0-7.0-2.0-3.0-0.5","a40770080031f58eea6699af8955881a50abb171f6b4b550797844809d2024e0","swim","swim","5830","","<b>What is the name of the narrator&#39;s neighbour?</b>","","","","1","arctic-comprehension","","","","","","","","","","","","","{""Q0"":""Dave""}","","","",""
"survey-multi-choice","70","3215615","0.0-7.0-2.0-3.0-0.6","a40770080031f58eea6699af8955881a50abb171f6b4b550797844809d2024e0","swim","swim","13634","","<b>Which dog on the narrator&#39;s dog team never followed instructions?</b>","","","","1","arctic-comprehension","","","","","","","","","","","","","{""Q0"":""Robert""}","","","",""
"survey-multi-choice","71","3220183","0.0-7.0-2.0-3.0-0.7","a40770080031f58eea6699af8955881a50abb171f6b4b550797844809d2024e0","swim","swim","4312","","<b>How did the narrator&#39;s neighbour respond when she told him about her expedition?</b>","","","","1","arctic-comprehension","","","","","","","","","","","","","{""Q0"":""He said she was going to fail.""}","","","",""
"survey-multi-choice","72","3227668","0.0-7.0-2.0-3.0-0.8","a40770080031f58eea6699af8955881a50abb171f6b4b550797844809d2024e0","swim","swim","7228","","<b>How did the narrator&#39;s encounter with the polar bears end?</b>","","","","1","arctic-comprehension","","","","","","","","","","","","","{""Q0"":""The bears walked back to their den.""}","","","",""
"survey-multi-choice","73","3234076","0.0-7.0-2.0-3.0-0.9","a40770080031f58eea6699af8955881a50abb171f6b4b550797844809d2024e0","swim","swim","6150","","<b>What was the objective of the narrator&#39;s expedition?</b>","","","","1","arctic-comprehension","","","","","","","","","","","","","{""Q0"":""Dogsled across Arctic America""}","","","",""
"html-button-response","74","3265031","0.0-7.0-2.0-4.0","a40770080031f58eea6699af8955881a50abb171f6b4b550797844809d2024e0","swim","swim","30704","","<p>Thank you for your responses.</p><p>You will now answer some questions about your impressions of the story.</p>","0","","","","","","","","","","","","","","","","","","","","",""
"html-button-response","75","3266111","0.0-7.0-2.0-5.0-0.0","a40770080031f58eea6699af8955881a50abb171f6b4b550797844809d2024e0","swim","swim","1079","","E1","6","","","","arctic-engagement","","","","","","","","","","","","","","7","enjoyment","",""
"html-button-response","76","3266895","0.0-7.0-2.0-5.0-0.1","a40770080031f58eea6699af8955881a50abb171f6b4b550797844809d2024e0","swim","swim","533","","A2","6","","","","arctic-engagement","","","","","","","","","","","","","","7","absorption","",""
"html-button-response","77","3267789","0.0-7.0-2.0-5.0-0.2","a40770080031f58eea6699af8955881a50abb171f6b4b550797844809d2024e0","swim","swim","642","","EE1","6","","","","arctic-engagement","","","","","","","","","","","","","","7","emo-engage","",""
"html-button-response","78","3268601","0.0-7.0-2.0-5.0-0.3","a40770080031f58eea6699af8955881a50abb171f6b4b550797844809d2024e0","swim","swim","561","","E10","6","","","","arctic-engagement","","","","","","","","","","","","","","7","enjoyment","",""
"html-button-response","79","3269497","0.0-7.0-2.0-5.0-0.4","a40770080031f58eea6699af8955881a50abb171f6b4b550797844809d2024e0","swim","swim","644","","EE4","6","","","","arctic-engagement","","","","","","","","","","","","","","7","emo-engage","",""
"html-button-response","80","3270584","0.0-7.0-2.0-5.0-0.5","a40770080031f58eea6699af8955881a50abb171f6b4b550797844809d2024e0","swim","swim","834","","E6","6","","","","arctic-engagement","","","","","","","","","","","","","","7","enjoyment","",""
"html-button-response","81","3271508","0.0-7.0-2.0-5.0-0.6","a40770080031f58eea6699af8955881a50abb171f6b4b550797844809d2024e0","swim","swim","671","","A3","6","","","","arctic-engagement","","","","","","","","","","","","","","7","absorption","",""
"html-button-response","82","3272464","0.0-7.0-2.0-5.0-0.7","a40770080031f58eea6699af8955881a50abb171f6b4b550797844809d2024e0","swim","swim","704","","EE5","6","","","","arctic-engagement","","","","","","","","","","","","","","7","emo-engage","",""
"html-button-response","83","3273738","0.0-7.0-2.0-5.0-0.8","a40770080031f58eea6699af8955881a50abb171f6b4b550797844809d2024e0","swim","swim","1022","","A4","6","","","","arctic-engagement","","","","","","","","","","","","","","7","absorption","",""
"html-button-response","84","3274931","0.0-7.0-2.0-5.0-0.9","a40770080031f58eea6699af8955881a50abb171f6b4b550797844809d2024e0","swim","swim","942","","E7","6","","","","arctic-engagement","","","","","","","","","","","","","","7","enjoyment","",""
"html-button-response","85","3276336","0.0-7.0-2.0-5.0-0.10","a40770080031f58eea6699af8955881a50abb171f6b4b550797844809d2024e0","swim","swim","1152","","A5","6","","","","arctic-engagement","","","","","","","","","","","","","","7","absorption","",""
"html-button-response","86","3277560","0.0-7.0-2.0-5.0-0.11","a40770080031f58eea6699af8955881a50abb171f6b4b550797844809d2024e0","swim","swim","972","","MS3","6","","","","arctic-engagement","","","","","","","","","","","","","","7","mental-sim","",""
"html-button-response","87","3278981","0.0-7.0-2.0-5.0-0.12","a40770080031f58eea6699af8955881a50abb171f6b4b550797844809d2024e0","swim","swim","1170","","MS1","6","","","","arctic-engagement","","","","","","","","","","","","","","7","mental-sim","",""
"html-button-response","88","3280469","0.0-7.0-2.0-5.0-0.13","a40770080031f58eea6699af8955881a50abb171f6b4b550797844809d2024e0","swim","swim","1236","","A1","6","","","","arctic-engagement","","","","","","","","","","","","","","7","absorption","",""
"html-button-response","89","3281611","0.0-7.0-2.0-5.0-0.14","a40770080031f58eea6699af8955881a50abb171f6b4b550797844809d2024e0","swim","swim","891","","E8","6","","","","arctic-engagement","","","","","","","","","","","","","","7","enjoyment","",""
"html-button-response","90","3283061","0.0-7.0-2.0-5.0-0.15","a40770080031f58eea6699af8955881a50abb171f6b4b550797844809d2024e0","swim","swim","1198","","EE3","6","","","","arctic-engagement","","","","","","","","","","","","","","7","emo-engage","",""
"html-button-response","91","3284075","0.0-7.0-2.0-5.0-0.16","a40770080031f58eea6699af8955881a50abb171f6b4b550797844809d2024e0","swim","swim","761","","MS2","6","","","","arctic-engagement","","","","","","","","","","","","","","7","mental-sim","",""
"html-button-response","92","3285044","0.0-7.0-2.0-5.0-0.17","a40770080031f58eea6699af8955881a50abb171f6b4b550797844809d2024e0","swim","swim","716","","EE2","6","","","","arctic-engagement","","","","","","","","","","","","","","7","emo-engage","",""
"html-button-response","93","3286435","0.0-8.0","a40770080031f58eea6699af8955881a50abb171f6b4b550797844809d2024e0","swim","swim","1140","","<p>Thank you for your responses.</p><p>You will now answer some demographic, hearing, and general health questions.</p>","0","","","","","","","","","","","","","","","","","","","","",""
"survey-multi-choice","94","3313706","0.0-9.0-0.0","a40770080031f58eea6699af8955881a50abb171f6b4b550797844809d2024e0","swim","swim","27269","","","","","","","survey","","","","","","","","","","","","","{""Q0"":""Chrome""}","","","browser",""
"survey-text","95","3317331","0.0-9.0-1.0","a40770080031f58eea6699af8955881a50abb171f6b4b550797844809d2024e0","swim","swim","3369.899999976158","","","","","","","survey","","","","","","","","","","","","","{""AGE"":""28""}","","","age","28"
"survey-multi-choice","96","3319120","0.0-9.0-2.0","a40770080031f58eea6699af8955881a50abb171f6b4b550797844809d2024e0","swim","swim","1535","","","","","","","survey","","","","","","","","","","","","","{""Q0"":""Male""}","","","gender","Male"
"survey-multi-choice","97","3322827","0.0-9.0-4.0","a40770080031f58eea6699af8955881a50abb171f6b4b550797844809d2024e0","swim","swim","3455","","","","","","","survey","","","","","","","","","","","","","{""Q0"":""Right""}","","","handedness","Right"
"survey-multi-choice","98","3325538","0.0-9.0-5.0","a40770080031f58eea6699af8955881a50abb171f6b4b550797844809d2024e0","swim","swim","2454","","","","","","","survey","","","","","","","","","","","","","{""Q0"":""Bachelor's Degree""}","","","education","Bachelor's Degree"
"survey-text","99","3332413","0.0-10.0-0.0","a40770080031f58eea6699af8955881a50abb171f6b4b550797844809d2024e0","swim","swim","6621.899999976158","","","","","","","survey","","","","","","","","","","","","","{""L1"":""English""}","","","first-language","English"
"survey-text","100","3352406","0.0-10.0-1.0","a40770080031f58eea6699af8955881a50abb171f6b4b550797844809d2024e0","swim","swim","19734.899999976158","","","","","","","survey","","","","","","","","","","","","","{""L2name"":""English"",""L2fluency"":""1"",""L3name"":"""",""L3fluency"":"""",""L4name"":"""",""L4fluency"":""""}","","","additional-languages","{""L2name"":""English"",""L2fluency"":""1"",""L3name"":"""",""L3fluency"":"""",""L4name"":"""",""L4fluency"":""""}"
"survey-multi-choice","101","3360363","0.0-10.0-2.0","a40770080031f58eea6699af8955881a50abb171f6b4b550797844809d2024e0","swim","swim","7703","","","","","","","survey","","","","","","","","","","","","","{""Q0"":""No""}","","","hearing-aid","No"
"survey-multi-choice","102","3363964","0.0-10.0-3.0","a40770080031f58eea6699af8955881a50abb171f6b4b550797844809d2024e0","swim","swim","3346","","","","","","","survey","","","","","","","","","","","","","{""Q0"":""Never""}","","","ringing-ears","Never"
"survey-multi-choice","103","3372752","0.0-10.0-5.0","a40770080031f58eea6699af8955881a50abb171f6b4b550797844809d2024e0","swim","swim","8535","","","","","","","survey","","","","","","","","","","","","","{""Q0"":""No""}","","","neuro-disease","No"
"survey-multi-choice","104","3375304","0.0-10.0-7.0","a40770080031f58eea6699af8955881a50abb171f6b4b550797844809d2024e0","swim","swim","2300","","","","","","","survey","","","","","","","","","","","","","{""Q0"":""No""}","","","take-meds","No"
"survey-text","105","3381791","0.0-10.0-9.0","a40770080031f58eea6699af8955881a50abb171f6b4b550797844809d2024e0","swim","swim","6214.299999952316","","","","","","","survey","","","","","","","","","","","","","{""HC"":""None""}","","","health-concerns","None"
"html-button-response","106","3384676","0.0-11.0-0.0","a40770080031f58eea6699af8955881a50abb171f6b4b550797844809d2024e0","swim","swim","2632","","<p>How would you describe your musical skills/experiences?</p>","2","","","","survey","","","","","","","","","","","","","","","","music-skill","3"
"survey-multi-choice","107","3387667","0.0-11.0-1.0","a40770080031f58eea6699af8955881a50abb171f6b4b550797844809d2024e0","swim","swim","2738","","","","","","","survey","","","","","","","","","","","","","{""Q0"":""No""}","","","music-instrument","No"
"html-button-response","108","3389890","0.0-12.0-0.0","a40770080031f58eea6699af8955881a50abb171f6b4b550797844809d2024e0","swim","swim","1970","","<p>How would you describe your general hearing abilities?</p>","5","","","","survey","","","","","","","","","","","","","","","","ssq-01","6"
"html-button-response","109","3396862","0.0-12.0-1.0","a40770080031f58eea6699af8955881a50abb171f6b4b550797844809d2024e0","swim","swim","6718","","<p>When you talk with someone at a place that strongly reverberates/echoes (e.g., in a church or train station),</br>can you understand what the person says?</p>","10","","","","survey","","","","","","","","","","","","","","","","ssq-02","10"
"html-button-response","110","3408757","0.0-12.0-2.0","a40770080031f58eea6699af8955881a50abb171f6b4b550797844809d2024e0","swim","swim","11643","","<p>When you are with a group (~5 people) in a lively restaurant, can you follow the group's conversation?</p>","10","","","","survey","","","","","","","","","","","","","","","","ssq-03","10"
"html-button-response","111","3413932","0.0-12.0-3.0","a40770080031f58eea6699af8955881a50abb171f6b4b550797844809d2024e0","swim","swim","4921","","<p>Based on the sound of a bus or truck, can you tell whether it is moving towards or away from you?</p>","10","","","","survey","","","","","","","","","","","","","","","","ssq-04","10"
"html-button-response","112","3417532","0.0-12.0-4.0","a40770080031f58eea6699af8955881a50abb171f6b4b550797844809d2024e0","swim","swim","3347","","<p>When you are in an unknown environment, can you tell from which direction a brief sound originates?</p>","10","","","","survey","","","","","","","","","","","","","","","","ssq-05","10"
"html-button-response","113","3421406","0.0-12.0-5.0","a40770080031f58eea6699af8955881a50abb171f6b4b550797844809d2024e0","swim","swim","3622","","<p>Are you able to ignore distracting sounds when you concentrate on a specific aspect of your acoustic surrounding?</p>","10","","","","survey","","","","","","","","","","","","","","","","ssq-06","10"
"fullscreen","114","3422659","0.0-13.0","a40770080031f58eea6699af8955881a50abb171f6b4b550797844809d2024e0","swim","swim","","","","","","","","","true","","","","","","","","","","","","","","","",""
