"trial_type","trial_index","time_elapsed","internal_node_id","ParticipantID","firstStory","scramStory","rt","url","stimulus","button_pressed","key_press","correctRESP","correct","designation","success","letterStim","letterType","ONSET","TIMEOUT","CONDITION","Participant","ONSET_ACTUAL","RT","RESP","ACC","STORY","responses","response","type","surveyQuestion","QRESP"
"pavlovia","0","6","0.0-0.0","7fe5690370136919555871dfa588109243fcb9b32badd7902ba8ab61f9dfd864","arctic","swim","","","","","","","","","","","","","","","","","","","","","","","","",""
"external-html","1","4515","0.0-1.0","7fe5690370136919555871dfa588109243fcb9b32badd7902ba8ab61f9dfd864","arctic","swim","4340","consent/consent_updated.html","","","","","","","","","","","","","","","","","","","","","","",""
"html-button-response","2","8186","0.0-2.0-0.0","7fe5690370136919555871dfa588109243fcb9b32badd7902ba8ab61f9dfd864","arctic","swim","3669","","<p>Before we begin the main task, you will complete a short volume calibration and headphone check.</p><p>Please make sure you are in a quiet listening environment, that you are wearing headphones, and that your computer's volume is turned on.<p></p>","0","","","","","","","","","","","","","","","","","","","","",""
"html-button-response","3","11434","0.0-2.0-1.0","7fe5690370136919555871dfa588109243fcb9b32badd7902ba8ab61f9dfd864","arctic","swim","2994","","<p>The volume calibration will be first.</p><p>You will hear a thirty-second noise. Please adjust your computer's volume so that this noise is being presented at a comfortable level.<p></p>","0","","","","","","","","","","","","","","","","","","","","",""
"audio-button-response","4","14396","0.0-2.0-2.0","7fe5690370136919555871dfa588109243fcb9b32badd7902ba8ab61f9dfd864","arctic","swim","2708","","audio/volumetest.mp3","0","","","","","","","","","","","","","","","","","","","","",""
"html-keyboard-response","5","21056","0.0-3.0-0.0","7fe5690370136919555871dfa588109243fcb9b32badd7902ba8ab61f9dfd864","arctic","swim","6659","","<p>You will now complete a short headphone check.</p><p>On each trial, you will hear three tones. One of these tones will be quieter than the others. Your task is to identify whether the quiet tone occurred first, second, or third.</p><p>There are six trials in total.<p></p><p></p>(Press SPACEBAR to begin)","","32","","","","","","","","","","","","","","","","","","","",""
"html-keyboard-response","6","21815","0.0-3.0-1.0-0.0","7fe5690370136919555871dfa588109243fcb9b32badd7902ba8ab61f9dfd864","arctic","swim","null","","<div style=""font-size:60px;"">+</div>","","null","","","","","","","","","","","","","","","","","","","",""
"audio-button-response","7","28253","0.0-3.0-1.0-1.0","7fe5690370136919555871dfa588109243fcb9b32badd7902ba8ab61f9dfd864","arctic","swim","6436","","audio/t2_1.mp3","1","","1","1","headphone-test","","","","","","","","","","","","","","","","",""
"html-keyboard-response","8","28756","0.0-3.0-1.0-2.0","7fe5690370136919555871dfa588109243fcb9b32badd7902ba8ab61f9dfd864","arctic","swim","null","","<p>Correct</p>","","null","","","","","","","","","","","","","","","","","","","",""
"html-keyboard-response","9","29259","0.0-3.0-1.0-0.1","7fe5690370136919555871dfa588109243fcb9b32badd7902ba8ab61f9dfd864","arctic","swim","null","","<div style=""font-size:60px;"">+</div>","","null","","","","","","","","","","","","","","","","","","","",""
"audio-button-response","10","33744","0.0-3.0-1.0-1.1","7fe5690370136919555871dfa588109243fcb9b32badd7902ba8ab61f9dfd864","arctic","swim","4484","","audio/t1_1.mp3","0","","0","1","headphone-test","","","","","","","","","","","","","","","","",""
"html-keyboard-response","11","34246","0.0-3.0-1.0-2.1","7fe5690370136919555871dfa588109243fcb9b32badd7902ba8ab61f9dfd864","arctic","swim","null","","<p>Correct</p>","","null","","","","","","","","","","","","","","","","","","","",""
"html-keyboard-response","12","34749","0.0-3.0-1.0-0.2","7fe5690370136919555871dfa588109243fcb9b32badd7902ba8ab61f9dfd864","arctic","swim","null","","<div style=""font-size:60px;"">+</div>","","null","","","","","","","","","","","","","","","","","","","",""
"audio-button-response","13","39127","0.0-3.0-1.0-1.2","7fe5690370136919555871dfa588109243fcb9b32badd7902ba8ab61f9dfd864","arctic","swim","4377","","audio/t3_1.mp3","2","","2","1","headphone-test","","","","","","","","","","","","","","","","",""
"html-keyboard-response","14","39628","0.0-3.0-1.0-2.2","7fe5690370136919555871dfa588109243fcb9b32badd7902ba8ab61f9dfd864","arctic","swim","null","","<p>Correct</p>","","null","","","","","","","","","","","","","","","","","","","",""
"html-keyboard-response","15","40133","0.0-3.0-1.0-0.3","7fe5690370136919555871dfa588109243fcb9b32badd7902ba8ab61f9dfd864","arctic","swim","null","","<div style=""font-size:60px;"">+</div>","","null","","","","","","","","","","","","","","","","","","","",""
"audio-button-response","16","44974","0.0-3.0-1.0-1.3","7fe5690370136919555871dfa588109243fcb9b32badd7902ba8ab61f9dfd864","arctic","swim","4840","","audio/t1_2.mp3","0","","0","1","headphone-test","","","","","","","","","","","","","","","","",""
"html-keyboard-response","17","45477","0.0-3.0-1.0-2.3","7fe5690370136919555871dfa588109243fcb9b32badd7902ba8ab61f9dfd864","arctic","swim","null","","<p>Correct</p>","","null","","","","","","","","","","","","","","","","","","","",""
"html-keyboard-response","18","45977","0.0-3.0-1.0-0.4","7fe5690370136919555871dfa588109243fcb9b32badd7902ba8ab61f9dfd864","arctic","swim","null","","<div style=""font-size:60px;"">+</div>","","null","","","","","","","","","","","","","","","","","","","",""
"audio-button-response","19","50339","0.0-3.0-1.0-1.4","7fe5690370136919555871dfa588109243fcb9b32badd7902ba8ab61f9dfd864","arctic","swim","4360","","audio/t2_2.mp3","1","","1","1","headphone-test","","","","","","","","","","","","","","","","",""
"html-keyboard-response","20","50840","0.0-3.0-1.0-2.4","7fe5690370136919555871dfa588109243fcb9b32badd7902ba8ab61f9dfd864","arctic","swim","null","","<p>Correct</p>","","null","","","","","","","","","","","","","","","","","","","",""
"html-keyboard-response","21","51341","0.0-3.0-1.0-0.5","7fe5690370136919555871dfa588109243fcb9b32badd7902ba8ab61f9dfd864","arctic","swim","null","","<div style=""font-size:60px;"">+</div>","","null","","","","","","","","","","","","","","","","","","","",""
"audio-button-response","22","55608","0.0-3.0-1.0-1.5","7fe5690370136919555871dfa588109243fcb9b32badd7902ba8ab61f9dfd864","arctic","swim","4266","","audio/t3_2.mp3","2","","2","1","headphone-test","","","","","","","","","","","","","","","","",""
"html-keyboard-response","23","56109","0.0-3.0-1.0-2.5","7fe5690370136919555871dfa588109243fcb9b32badd7902ba8ab61f9dfd864","arctic","swim","null","","<p>Correct</p>","","null","","","","","","","","","","","","","","","","","","","",""
"fullscreen","24","246405","0.0-4.0","7fe5690370136919555871dfa588109243fcb9b32badd7902ba8ab61f9dfd864","arctic","swim","","","","","","","","","true","","","","","","","","","","","","","","","",""
"html-button-response","25","254809","0.0-5.0-0.0","7fe5690370136919555871dfa588109243fcb9b32badd7902ba8ab61f9dfd864","arctic","swim","8402","","<p>There are two blocks to this experiment.</p><p>In each block, you will hear a ~13.5 minute story. One of the stories will be scrambled. Please listen carefully to both stories and understand them as best you can.</p><p>After each story, you will be asked some questions to assess your comprehension.</p>","0","","","","","","","","","","","","","","","","","","","","",""
"html-button-response","26","276969","0.0-5.0-1.0","7fe5690370136919555871dfa588109243fcb9b32badd7902ba8ab61f9dfd864","arctic","swim","22159","","<p>During each story, there will be an additional task.</p><p>A letter will occasionally appear on the screen.</br>Your job is to - as quickly as you can - decide whether the letter is lowercase or uppercase and press one of two keys on the keyboard:</p><p>If the letter is <b>lowercase</b>, press key &lt;<b>x</b>&gt;.</p><p>If the letter is <b>uppercase</b>, press key &lt;<b>m</b>&gt;.</p>","0","","","","","","","","","","","","","","","","","","","","",""
"html-keyboard-response","27","296399","0.0-5.0-2.0","7fe5690370136919555871dfa588109243fcb9b32badd7902ba8ab61f9dfd864","arctic","swim","19430","","<p>Because we want your responses to be as quick as possible, please keep your index fingers over the keys while listening.</p><p>Each block lasts about 20 minutes.</p><p><b>Press &lt;x&gt; or &lt;m&gt; to start the first block!</b></p>","","77","","","","","","","","","","","","","","","","","","","",""
"html-keyboard-response","28","296904","0.0-6.0-0.0-0.0","7fe5690370136919555871dfa588109243fcb9b32badd7902ba8ab61f9dfd864","arctic","swim","null","","<div style=""font-size:60px;"" tabindex=""0"">+</div>","","null","","","","","","","","","","","","","","","","","","","",""
"dual-task","null","null","null","","arctic","swim","826.8999999761581","","d","null","88","88","1","arctic-dual-task","","d","lowercase","12000","0","2","7fe5690370136919555871dfa588109243fcb9b32badd7902ba8ab61f9dfd864","12001.899999976158","826.8999999761581","88","1","arctic","","","","",""
"dual-task","null","null","null","","arctic","swim","788.2000000476837","","B","null","77","77","1","arctic-dual-task","","B","uppercase","20000","0","2","7fe5690370136919555871dfa588109243fcb9b32badd7902ba8ab61f9dfd864","19999.899999976158","788.2000000476837","77","1","arctic","","","","",""
"dual-task","null","null","null","","arctic","swim","682.5","","t","null","88","88","1","arctic-dual-task","","t","lowercase","26000","0","2","7fe5690370136919555871dfa588109243fcb9b32badd7902ba8ab61f9dfd864","26002.700000047684","682.5","88","1","arctic","","","","",""
"dual-task","null","null","null","","arctic","swim","731.2999999523163","","E","null","77","77","1","arctic-dual-task","","E","uppercase","36000","0","2","7fe5690370136919555871dfa588109243fcb9b32badd7902ba8ab61f9dfd864","36002.10000002384","731.2999999523163","77","1","arctic","","","","",""
"dual-task","null","null","null","","arctic","swim","570.2000000476837","","g","null","88","88","1","arctic-dual-task","","g","lowercase","48000","0","2","7fe5690370136919555871dfa588109243fcb9b32badd7902ba8ab61f9dfd864","48003.89999997616","570.2000000476837","88","1","arctic","","","","",""
"dual-task","null","null","null","","arctic","swim","659.5","","t","null","88","88","1","arctic-dual-task","","t","lowercase","54000","0","2","7fe5690370136919555871dfa588109243fcb9b32badd7902ba8ab61f9dfd864","54000.800000071526","659.5","88","1","arctic","","","","",""
"dual-task","null","null","null","","arctic","swim","589.6000000238419","","r","null","88","88","1","arctic-dual-task","","r","lowercase","62000","0","2","7fe5690370136919555871dfa588109243fcb9b32badd7902ba8ab61f9dfd864","61999.89999997616","589.6000000238419","88","1","arctic","","","","",""
"dual-task","null","null","null","","arctic","swim","707.5","","r","null","88","88","1","arctic-dual-task","","r","lowercase","72000","0","2","7fe5690370136919555871dfa588109243fcb9b32badd7902ba8ab61f9dfd864","72002","707.5","88","1","arctic","","","","",""
"dual-task","null","null","null","","arctic","swim","623.8999999761581","","g","null","88","88","1","arctic-dual-task","","g","lowercase","78000","0","2","7fe5690370136919555871dfa588109243fcb9b32badd7902ba8ab61f9dfd864","78004.20000004768","623.8999999761581","88","1","arctic","","","","",""
"dual-task","null","null","null","","arctic","swim","698.5","","e","null","88","88","1","arctic-dual-task","","e","lowercase","90000","0","2","7fe5690370136919555871dfa588109243fcb9b32badd7902ba8ab61f9dfd864","90003.20000004768","698.5","88","1","arctic","","","","",""
"dual-task","null","null","null","","arctic","swim","1348.3999999761581","","R","null","77","77","1","arctic-dual-task","","R","uppercase","96000","0","2","7fe5690370136919555871dfa588109243fcb9b32badd7902ba8ab61f9dfd864","95999.80000007153","1348.3999999761581","77","1","arctic","","","","",""
"dual-task","null","null","null","","arctic","swim","555.2999999523163","","n","null","88","88","1","arctic-dual-task","","n","lowercase","102000","0","2","7fe5690370136919555871dfa588109243fcb9b32badd7902ba8ab61f9dfd864","102001.80000007153","555.2999999523163","88","1","arctic","","","","",""
"dual-task","null","null","null","","arctic","swim","588.3999999761581","","E","null","77","77","1","arctic-dual-task","","E","uppercase","114000","0","2","7fe5690370136919555871dfa588109243fcb9b32badd7902ba8ab61f9dfd864","114001","588.3999999761581","77","1","arctic","","","","",""
"dual-task","null","null","null","","arctic","swim","553.8000000715256","","d","null","88","88","1","arctic-dual-task","","d","lowercase","126000","0","2","7fe5690370136919555871dfa588109243fcb9b32badd7902ba8ab61f9dfd864","126003.80000007153","553.8000000715256","88","1","arctic","","","","",""
"dual-task","null","null","null","","arctic","swim","554.5","","g","null","88","88","1","arctic-dual-task","","g","lowercase","138000","0","2","7fe5690370136919555871dfa588109243fcb9b32badd7902ba8ab61f9dfd864","138003.30000007153","554.5","88","1","arctic","","","","",""
"dual-task","null","null","null","","arctic","swim","605.1999999284744","","G","null","77","77","1","arctic-dual-task","","G","uppercase","148000","0","2","7fe5690370136919555871dfa588109243fcb9b32badd7902ba8ab61f9dfd864","148000.70000004768","605.1999999284744","77","1","arctic","","","","",""
"dual-task","null","null","null","","arctic","swim","1116","","H","null","77","77","1","arctic-dual-task","","H","uppercase","158000","0","2","7fe5690370136919555871dfa588109243fcb9b32badd7902ba8ab61f9dfd864","158001.80000007153","1116","77","1","arctic","","","","",""
"dual-task","null","null","null","","arctic","swim","602.1000000238419","","h","null","88","88","1","arctic-dual-task","","h","lowercase","166000","0","2","7fe5690370136919555871dfa588109243fcb9b32badd7902ba8ab61f9dfd864","166002.20000004768","602.1000000238419","88","1","arctic","","","","",""
"dual-task","null","null","null","","arctic","swim","628.3999999761581","","H","null","77","77","1","arctic-dual-task","","H","uppercase","174000","0","2","7fe5690370136919555871dfa588109243fcb9b32badd7902ba8ab61f9dfd864","174001.30000007153","628.3999999761581","77","1","arctic","","","","",""
"dual-task","null","null","null","","arctic","swim","563.6000000238419","","b","null","88","88","1","arctic-dual-task","","b","lowercase","182000","0","2","7fe5690370136919555871dfa588109243fcb9b32badd7902ba8ab61f9dfd864","182000.70000004768","563.6000000238419","88","1","arctic","","","","",""
"dual-task","null","null","null","","arctic","swim","829.9000000953674","","N","null","77","77","1","arctic-dual-task","","N","uppercase","190000","0","2","7fe5690370136919555871dfa588109243fcb9b32badd7902ba8ab61f9dfd864","189999.89999997616","829.9000000953674","77","1","arctic","","","","",""
"dual-task","null","null","null","","arctic","swim","548.9000000953674","","a","null","88","88","1","arctic-dual-task","","a","lowercase","198000","0","2","7fe5690370136919555871dfa588109243fcb9b32badd7902ba8ab61f9dfd864","197999.30000007153","548.9000000953674","88","1","arctic","","","","",""
"dual-task","null","null","null","","arctic","swim","561.6000000238419","","a","null","88","88","1","arctic-dual-task","","a","lowercase","210000","0","2","7fe5690370136919555871dfa588109243fcb9b32badd7902ba8ab61f9dfd864","210004","561.6000000238419","88","1","arctic","","","","",""
"dual-task","null","null","null","","arctic","swim","514.8000000715256","","B","null","77","77","1","arctic-dual-task","","B","uppercase","222000","0","2","7fe5690370136919555871dfa588109243fcb9b32badd7902ba8ab61f9dfd864","222002.89999997616","514.8000000715256","77","1","arctic","","","","",""
"dual-task","null","null","null","","arctic","swim","641.1000000238419","","q","null","88","88","1","arctic-dual-task","","q","lowercase","236000","0","2","7fe5690370136919555871dfa588109243fcb9b32badd7902ba8ab61f9dfd864","236004.39999997616","641.1000000238419","88","1","arctic","","","","",""
"dual-task","null","null","null","","arctic","swim","813.2999999523163","","N","null","77","77","1","arctic-dual-task","","N","uppercase","250000","0","2","7fe5690370136919555871dfa588109243fcb9b32badd7902ba8ab61f9dfd864","250000.30000007153","813.2999999523163","77","1","arctic","","","","",""
"dual-task","null","null","null","","arctic","swim","644.2000000476837","","b","null","88","88","1","arctic-dual-task","","b","lowercase","258000","0","2","7fe5690370136919555871dfa588109243fcb9b32badd7902ba8ab61f9dfd864","257999.60000002384","644.2000000476837","88","1","arctic","","","","",""
"dual-task","null","null","null","","arctic","swim","531.7999999523163","","G","null","77","77","1","arctic-dual-task","","G","uppercase","268000","0","2","7fe5690370136919555871dfa588109243fcb9b32badd7902ba8ab61f9dfd864","268001.60000002384","531.7999999523163","77","1","arctic","","","","",""
"dual-task","null","null","null","","arctic","swim","603","","f","null","88","88","1","arctic-dual-task","","f","lowercase","278000","0","2","7fe5690370136919555871dfa588109243fcb9b32badd7902ba8ab61f9dfd864","278002.3000000715","603","88","1","arctic","","","","",""
"dual-task","null","null","null","","arctic","swim","1004.1000000238419","","D","null","77","77","1","arctic-dual-task","","D","uppercase","284000","0","2","7fe5690370136919555871dfa588109243fcb9b32badd7902ba8ab61f9dfd864","284000.10000002384","1004.1000000238419","77","1","arctic","","","","",""
"dual-task","null","null","null","","arctic","swim","558.1000000238419","","E","null","77","77","1","arctic-dual-task","","E","uppercase","292000","0","2","7fe5690370136919555871dfa588109243fcb9b32badd7902ba8ab61f9dfd864","291999.5","558.1000000238419","77","1","arctic","","","","",""
"dual-task","null","null","null","","arctic","swim","604.6000000238419","","E","null","77","77","1","arctic-dual-task","","E","uppercase","304000","0","2","7fe5690370136919555871dfa588109243fcb9b32badd7902ba8ab61f9dfd864","304000.5","604.6000000238419","77","1","arctic","","","","",""
"dual-task","null","null","null","","arctic","swim","659.3999999761581","","r","null","88","88","1","arctic-dual-task","","r","lowercase","310000","0","2","7fe5690370136919555871dfa588109243fcb9b32badd7902ba8ab61f9dfd864","310000.7000000477","659.3999999761581","88","1","arctic","","","","",""
"dual-task","null","null","null","","arctic","swim","605.2999999523163","","b","null","88","88","1","arctic-dual-task","","b","lowercase","322000","0","2","7fe5690370136919555871dfa588109243fcb9b32badd7902ba8ab61f9dfd864","321999.60000002384","605.2999999523163","88","1","arctic","","","","",""
"dual-task","null","null","null","","arctic","swim","524","","R","null","77","77","1","arctic-dual-task","","R","uppercase","336000","0","2","7fe5690370136919555871dfa588109243fcb9b32badd7902ba8ab61f9dfd864","336001.3000000715","524","77","1","arctic","","","","",""
"dual-task","null","null","null","","arctic","swim","731.7000000476837","","T","null","77","77","1","arctic-dual-task","","T","uppercase","344000","0","2","7fe5690370136919555871dfa588109243fcb9b32badd7902ba8ab61f9dfd864","344000.60000002384","731.7000000476837","77","1","arctic","","","","",""
"dual-task","null","null","null","","arctic","swim","675.6000000238419","","D","null","77","77","1","arctic-dual-task","","D","uppercase","358000","0","2","7fe5690370136919555871dfa588109243fcb9b32badd7902ba8ab61f9dfd864","358002.2000000477","675.6000000238419","77","1","arctic","","","","",""
"dual-task","null","null","null","","arctic","swim","508.5","","D","null","77","77","1","arctic-dual-task","","D","uppercase","370000","0","2","7fe5690370136919555871dfa588109243fcb9b32badd7902ba8ab61f9dfd864","370001.10000002384","508.5","77","1","arctic","","","","",""
"dual-task","null","null","null","","arctic","swim","563.6000000238419","","Q","null","77","77","1","arctic-dual-task","","Q","uppercase","380000","0","2","7fe5690370136919555871dfa588109243fcb9b32badd7902ba8ab61f9dfd864","380002.10000002384","563.6000000238419","77","1","arctic","","","","",""
"dual-task","null","null","null","","arctic","swim","507.60000002384186","","G","null","77","77","1","arctic-dual-task","","G","uppercase","392000","0","2","7fe5690370136919555871dfa588109243fcb9b32badd7902ba8ab61f9dfd864","392001.89999997616","507.60000002384186","77","1","arctic","","","","",""
"dual-task","null","null","null","","arctic","swim","482.89999997615814","","Q","null","77","77","1","arctic-dual-task","","Q","uppercase","400000","0","2","7fe5690370136919555871dfa588109243fcb9b32badd7902ba8ab61f9dfd864","400001.2000000477","482.89999997615814","77","1","arctic","","","","",""
"dual-task","null","null","null","","arctic","swim","613.1999999284744","","h","null","88","88","1","arctic-dual-task","","h","lowercase","408000","0","2","7fe5690370136919555871dfa588109243fcb9b32badd7902ba8ab61f9dfd864","408000.10000002384","613.1999999284744","88","1","arctic","","","","",""
"dual-task","null","null","null","","arctic","swim","717.9000000953674","","f","null","88","88","1","arctic-dual-task","","f","lowercase","420000","0","2","7fe5690370136919555871dfa588109243fcb9b32badd7902ba8ab61f9dfd864","419999.8000000715","717.9000000953674","88","1","arctic","","","","",""
"dual-task","null","null","null","","arctic","swim","794.1000000238419","","A","null","77","77","1","arctic-dual-task","","A","uppercase","430000","0","2","7fe5690370136919555871dfa588109243fcb9b32badd7902ba8ab61f9dfd864","430003.5","794.1000000238419","77","1","arctic","","","","",""
"dual-task","null","null","null","","arctic","swim","645.4000000953674","","T","null","77","77","1","arctic-dual-task","","T","uppercase","442000","0","2","7fe5690370136919555871dfa588109243fcb9b32badd7902ba8ab61f9dfd864","442000.39999997616","645.4000000953674","77","1","arctic","","","","",""
"dual-task","null","null","null","","arctic","swim","636.7000000476837","","q","null","88","88","1","arctic-dual-task","","q","lowercase","456000","0","2","7fe5690370136919555871dfa588109243fcb9b32badd7902ba8ab61f9dfd864","456000.60000002384","636.7000000476837","88","1","arctic","","","","",""
"dual-task","null","null","null","","arctic","swim","761.1000000238419","","n","null","88","88","1","arctic-dual-task","","n","lowercase","464000","0","2","7fe5690370136919555871dfa588109243fcb9b32badd7902ba8ab61f9dfd864","464003","761.1000000238419","88","1","arctic","","","","",""
"dual-task","null","null","null","","arctic","swim","708.2999999523163","","N","null","77","77","1","arctic-dual-task","","N","uppercase","470000","0","2","7fe5690370136919555871dfa588109243fcb9b32badd7902ba8ab61f9dfd864","470001.60000002384","708.2999999523163","77","1","arctic","","","","",""
"dual-task","null","null","null","","arctic","swim","544.8000000715256","","d","null","88","88","1","arctic-dual-task","","d","lowercase","476000","0","2","7fe5690370136919555871dfa588109243fcb9b32badd7902ba8ab61f9dfd864","476003.3000000715","544.8000000715256","88","1","arctic","","","","",""
"dual-task","null","null","null","","arctic","swim","708","","B","null","77","77","1","arctic-dual-task","","B","uppercase","490000","0","2","7fe5690370136919555871dfa588109243fcb9b32badd7902ba8ab61f9dfd864","490001.8000000715","708","77","1","arctic","","","","",""
"dual-task","null","null","null","","arctic","swim","554.5","","g","null","88","88","1","arctic-dual-task","","g","lowercase","502000","0","2","7fe5690370136919555871dfa588109243fcb9b32badd7902ba8ab61f9dfd864","502003.10000002384","554.5","88","1","arctic","","","","",""
"dual-task","null","null","null","","arctic","swim","611.8999999761581","","F","null","77","77","1","arctic-dual-task","","F","uppercase","510000","0","2","7fe5690370136919555871dfa588109243fcb9b32badd7902ba8ab61f9dfd864","509999.8000000715","611.8999999761581","77","1","arctic","","","","",""
"dual-task","null","null","null","","arctic","swim","587.2999999523163","","e","null","88","88","1","arctic-dual-task","","e","lowercase","516000","0","2","7fe5690370136919555871dfa588109243fcb9b32badd7902ba8ab61f9dfd864","516002.3000000715","587.2999999523163","88","1","arctic","","","","",""
"dual-task","null","null","null","","arctic","swim","729.2000000476837","","Q","null","77","77","1","arctic-dual-task","","Q","uppercase","526000","0","2","7fe5690370136919555871dfa588109243fcb9b32badd7902ba8ab61f9dfd864","526004.3000000715","729.2000000476837","77","1","arctic","","","","",""
"dual-task","null","null","null","","arctic","swim","832.7000000476837","","h","null","88","88","1","arctic-dual-task","","h","lowercase","538000","0","2","7fe5690370136919555871dfa588109243fcb9b32badd7902ba8ab61f9dfd864","538005","832.7000000476837","88","1","arctic","","","","",""
"dual-task","null","null","null","","arctic","swim","876.6000000238419","","N","null","77","77","1","arctic-dual-task","","N","uppercase","552000","0","2","7fe5690370136919555871dfa588109243fcb9b32badd7902ba8ab61f9dfd864","552001.2000000477","876.6000000238419","77","1","arctic","","","","",""
"dual-task","null","null","null","","arctic","swim","585.6000000238419","","Q","null","77","77","1","arctic-dual-task","","Q","uppercase","564000","0","2","7fe5690370136919555871dfa588109243fcb9b32badd7902ba8ab61f9dfd864","564003.8999999762","585.6000000238419","77","1","arctic","","","","",""
"dual-task","null","null","null","","arctic","swim","577.1000000238419","","T","null","77","77","1","arctic-dual-task","","T","uppercase","572000","0","2","7fe5690370136919555871dfa588109243fcb9b32badd7902ba8ab61f9dfd864","572002.7000000477","577.1000000238419","77","1","arctic","","","","",""
"dual-task","null","null","null","","arctic","swim","760.6000000238419","","a","null","88","88","1","arctic-dual-task","","a","lowercase","582000","0","2","7fe5690370136919555871dfa588109243fcb9b32badd7902ba8ab61f9dfd864","582005.1000000238","760.6000000238419","88","1","arctic","","","","",""
"dual-task","null","null","null","","arctic","swim","744","","f","null","88","88","1","arctic-dual-task","","f","lowercase","590000","0","2","7fe5690370136919555871dfa588109243fcb9b32badd7902ba8ab61f9dfd864","590004.3000000715","744","88","1","arctic","","","","",""
"dual-task","null","null","null","","arctic","swim","556.6000000238419","","t","null","88","88","1","arctic-dual-task","","t","lowercase","596000","0","2","7fe5690370136919555871dfa588109243fcb9b32badd7902ba8ab61f9dfd864","596001","556.6000000238419","88","1","arctic","","","","",""
"dual-task","null","null","null","","arctic","swim","619.6000000238419","","h","null","88","88","1","arctic-dual-task","","h","lowercase","604000","0","2","7fe5690370136919555871dfa588109243fcb9b32badd7902ba8ab61f9dfd864","604000.1000000238","619.6000000238419","88","1","arctic","","","","",""
"dual-task","null","null","null","","arctic","swim","544.8999999761581","","d","null","88","88","1","arctic-dual-task","","d","lowercase","612000","0","2","7fe5690370136919555871dfa588109243fcb9b32badd7902ba8ab61f9dfd864","612004.8000000715","544.8999999761581","88","1","arctic","","","","",""
"dual-task","null","null","null","","arctic","swim","561.7999999523163","","R","null","77","77","1","arctic-dual-task","","R","uppercase","624000","0","2","7fe5690370136919555871dfa588109243fcb9b32badd7902ba8ab61f9dfd864","624003.1000000238","561.7999999523163","77","1","arctic","","","","",""
"dual-task","null","null","null","","arctic","swim","656.7000000476837","","f","null","88","88","1","arctic-dual-task","","f","lowercase","632000","0","2","7fe5690370136919555871dfa588109243fcb9b32badd7902ba8ab61f9dfd864","632003.5","656.7000000476837","88","1","arctic","","","","",""
"dual-task","null","null","null","","arctic","swim","1266.6999999284744","","e","null","88","88","1","arctic-dual-task","","e","lowercase","644000","0","2","7fe5690370136919555871dfa588109243fcb9b32badd7902ba8ab61f9dfd864","644002.3000000715","1266.6999999284744","88","1","arctic","","","","",""
"dual-task","null","null","null","","arctic","swim","696.8999999761581","","A","null","77","77","1","arctic-dual-task","","A","uppercase","654000","0","2","7fe5690370136919555871dfa588109243fcb9b32badd7902ba8ab61f9dfd864","654003.7000000477","696.8999999761581","77","1","arctic","","","","",""
"dual-task","null","null","null","","arctic","swim","666.2999999523163","","A","null","77","77","1","arctic-dual-task","","A","uppercase","664000","0","2","7fe5690370136919555871dfa588109243fcb9b32badd7902ba8ab61f9dfd864","664003.5","666.2999999523163","77","1","arctic","","","","",""
"dual-task","null","null","null","","arctic","swim","671.8999999761581","","q","null","88","88","1","arctic-dual-task","","q","lowercase","672000","0","2","7fe5690370136919555871dfa588109243fcb9b32badd7902ba8ab61f9dfd864","672004.3000000715","671.8999999761581","88","1","arctic","","","","",""
"dual-task","null","null","null","","arctic","swim","515","","R","null","77","77","1","arctic-dual-task","","R","uppercase","678000","0","2","7fe5690370136919555871dfa588109243fcb9b32badd7902ba8ab61f9dfd864","678001.8999999762","515","77","1","arctic","","","","",""
"dual-task","null","null","null","","arctic","swim","729.8999999761581","","n","null","88","88","1","arctic-dual-task","","n","lowercase","686000","0","2","7fe5690370136919555871dfa588109243fcb9b32badd7902ba8ab61f9dfd864","686002.2000000477","729.8999999761581","88","1","arctic","","","","",""
"dual-task","null","null","null","","arctic","swim","549.3000000715256","","F","null","77","77","1","arctic-dual-task","","F","uppercase","698000","0","2","7fe5690370136919555871dfa588109243fcb9b32badd7902ba8ab61f9dfd864","698000.3000000715","549.3000000715256","77","1","arctic","","","","",""
"dual-task","null","null","null","","arctic","swim","843.8999999761581","","D","null","77","77","1","arctic-dual-task","","D","uppercase","712000","0","2","7fe5690370136919555871dfa588109243fcb9b32badd7902ba8ab61f9dfd864","712002","843.8999999761581","77","1","arctic","","","","",""
"dual-task","null","null","null","","arctic","swim","711.8000000715256","","r","null","88","88","1","arctic-dual-task","","r","lowercase","718000","0","2","7fe5690370136919555871dfa588109243fcb9b32badd7902ba8ab61f9dfd864","718004.3999999762","711.8000000715256","88","1","arctic","","","","",""
"dual-task","null","null","null","","arctic","swim","707.2000000476837","","T","null","77","77","1","arctic-dual-task","","T","uppercase","732000","0","2","7fe5690370136919555871dfa588109243fcb9b32badd7902ba8ab61f9dfd864","732002.6000000238","707.2000000476837","77","1","arctic","","","","",""
"dual-task","null","null","null","","arctic","swim","850.7000000476837","","F","null","77","77","1","arctic-dual-task","","F","uppercase","738000","0","2","7fe5690370136919555871dfa588109243fcb9b32badd7902ba8ab61f9dfd864","738001.6000000238","850.7000000476837","77","1","arctic","","","","",""
"dual-task","null","null","null","","arctic","swim","843.1000000238419","","b","null","88","88","1","arctic-dual-task","","b","lowercase","752000","0","2","7fe5690370136919555871dfa588109243fcb9b32badd7902ba8ab61f9dfd864","752002.6000000238","843.1000000238419","88","1","arctic","","","","",""
"dual-task","null","null","null","","arctic","swim","706.6000000238419","","e","null","88","88","1","arctic-dual-task","","e","lowercase","760000","0","2","7fe5690370136919555871dfa588109243fcb9b32badd7902ba8ab61f9dfd864","760001.7000000477","706.6000000238419","88","1","arctic","","","","",""
"dual-task","null","null","null","","arctic","swim","706.7000000476837","","H","null","77","77","1","arctic-dual-task","","H","uppercase","768000","0","2","7fe5690370136919555871dfa588109243fcb9b32badd7902ba8ab61f9dfd864","768002.8999999762","706.7000000476837","77","1","arctic","","","","",""
"dual-task","null","null","null","","arctic","swim","588.3000000715256","","q","null","88","88","1","arctic-dual-task","","q","lowercase","780000","0","2","7fe5690370136919555871dfa588109243fcb9b32badd7902ba8ab61f9dfd864","780001.3999999762","588.3000000715256","88","1","arctic","","","","",""
"audio-keyboard-response","29","1094967","0.0-6.0-0.0-1.0","7fe5690370136919555871dfa588109243fcb9b32badd7902ba8ab61f9dfd864","arctic","swim","null","","audio/story_arctic.mp3","","null","","","","","","","","","","","","","","","","","","","",""
"html-button-response","30","1144026","0.0-6.0-0.0-2.0","7fe5690370136919555871dfa588109243fcb9b32badd7902ba8ab61f9dfd864","arctic","swim","49057","","<p>This concludes the story. Thank you for listening.</p><p>You will now answer some questions about the content of the story.</p>","0","","","","","","","","","","","","","","","","","","","","",""
"survey-multi-choice","31","1153592","0.0-6.0-0.0-3.0-0.0","7fe5690370136919555871dfa588109243fcb9b32badd7902ba8ab61f9dfd864","arctic","swim","9561","","<b>What did the narrator do for leisure while in her tent?</b>","","","","1","arctic-comprehension","","","","","","","","","","","","","{""Q0"":""Read""}","","","",""
"survey-multi-choice","32","1159714","0.0-6.0-0.0-3.0-0.1","7fe5690370136919555871dfa588109243fcb9b32badd7902ba8ab61f9dfd864","arctic","swim","5866","","<b>How did the narrator&#39;s encounter with the polar bears end?</b>","","","","1","arctic-comprehension","","","","","","","","","","","","","{""Q0"":""The bears walked back to their den.""}","","","",""
"survey-multi-choice","33","1165994","0.0-6.0-0.0-3.0-0.2","7fe5690370136919555871dfa588109243fcb9b32badd7902ba8ab61f9dfd864","arctic","swim","6023","","<b>How did the narrator&#39;s neighbour respond when she told him about her expedition?</b>","","","","1","arctic-comprehension","","","","","","","","","","","","","{""Q0"":""He said she was going to fail.""}","","","",""
"survey-multi-choice","34","1171852","0.0-6.0-0.0-3.0-0.3","7fe5690370136919555871dfa588109243fcb9b32badd7902ba8ab61f9dfd864","arctic","swim","5600","","<b>How many sponsorships did the narrator receive to support her expedition?</b>","","","","1","arctic-comprehension","","","","","","","","","","","","","{""Q0"":""None""}","","","",""
"survey-multi-choice","35","1177044","0.0-6.0-0.0-3.0-0.4","7fe5690370136919555871dfa588109243fcb9b32badd7902ba8ab61f9dfd864","arctic","swim","4934","","<b>What was the objective of the narrator&#39;s expedition?</b>","","","","1","arctic-comprehension","","","","","","","","","","","","","{""Q0"":""Dogsled across Arctic America""}","","","",""
"survey-multi-choice","36","1184529","0.0-6.0-0.0-3.0-0.5","7fe5690370136919555871dfa588109243fcb9b32badd7902ba8ab61f9dfd864","arctic","swim","7224","","<b>What were the weather conditions in the Arctic like the winter of the narrator&#39;s expedition?</b>","","","","0","arctic-comprehension","","","","","","","","","","","","","{""Q0"":""It was the coldest winter in recorded history.""}","","","",""
"survey-multi-choice","37","1195877","0.0-6.0-0.0-3.0-0.6","7fe5690370136919555871dfa588109243fcb9b32badd7902ba8ab61f9dfd864","arctic","swim","11091","","<b>How did the dogs respond when they saw the bears?</b>","","","","1","arctic-comprehension","","","","","","","","","","","","","{""Q0"":""Approached them""}","","","",""
"survey-multi-choice","38","1203264","0.0-6.0-0.0-3.0-0.7","7fe5690370136919555871dfa588109243fcb9b32badd7902ba8ab61f9dfd864","arctic","swim","7128","","<b>What is the name of the narrator&#39;s neighbour?</b>","","","","1","arctic-comprehension","","","","","","","","","","","","","{""Q0"":""Dave""}","","","",""
"survey-multi-choice","39","1213360","0.0-6.0-0.0-3.0-0.8","7fe5690370136919555871dfa588109243fcb9b32badd7902ba8ab61f9dfd864","arctic","swim","9839","","<b>How did the narrator prepare for her expedition?</b>","","","","1","arctic-comprehension","","","","","","","","","","","","","{""Q0"":""Trained in Alaska learning how to dogsled""}","","","",""
"survey-multi-choice","40","1222062","0.0-6.0-0.0-3.0-0.9","7fe5690370136919555871dfa588109243fcb9b32badd7902ba8ab61f9dfd864","arctic","swim","8444","","<b>Which dog on the narrator&#39;s dog team never followed instructions?</b>","","","","1","arctic-comprehension","","","","","","","","","","","","","{""Q0"":""Robert""}","","","",""
"html-button-response","41","1227496","0.0-6.0-0.0-4.0","7fe5690370136919555871dfa588109243fcb9b32badd7902ba8ab61f9dfd864","arctic","swim","5178","","<p>Thank you for your responses.</p><p>You will now answer some questions about your impressions of the story.</p>","0","","","","","","","","","","","","","","","","","","","","",""
"html-button-response","42","1231414","0.0-6.0-0.0-5.0-0.0","7fe5690370136919555871dfa588109243fcb9b32badd7902ba8ab61f9dfd864","arctic","swim","3916","","MS2","5","","","","arctic-engagement","","","","","","","","","","","","","","6","mental-sim","",""
"html-button-response","43","1233314","0.0-6.0-0.0-5.0-0.1","7fe5690370136919555871dfa588109243fcb9b32badd7902ba8ab61f9dfd864","arctic","swim","1643","","E6","4","","","","arctic-engagement","","","","","","","","","","","","","","5","enjoyment","",""
"html-button-response","44","1235358","0.0-6.0-0.0-5.0-0.2","7fe5690370136919555871dfa588109243fcb9b32badd7902ba8ab61f9dfd864","arctic","swim","1789","","E7","4","","","","arctic-engagement","","","","","","","","","","","","","","5","enjoyment","",""
"html-button-response","45","1237459","0.0-6.0-0.0-5.0-0.3","7fe5690370136919555871dfa588109243fcb9b32badd7902ba8ab61f9dfd864","arctic","swim","1847","","EE4","4","","","","arctic-engagement","","","","","","","","","","","","","","5","emo-engage","",""
"html-button-response","46","1239312","0.0-6.0-0.0-5.0-0.4","7fe5690370136919555871dfa588109243fcb9b32badd7902ba8ab61f9dfd864","arctic","swim","1598","","A3","4","","","","arctic-engagement","","","","","","","","","","","","","","5","absorption","",""
"html-button-response","47","1243130","0.0-6.0-0.0-5.0-0.5","7fe5690370136919555871dfa588109243fcb9b32badd7902ba8ab61f9dfd864","arctic","swim","3564","","A1","2","","","","arctic-engagement","","","","","","","","","","","","","","3","absorption","",""
"html-button-response","48","1245074","0.0-6.0-0.0-5.0-0.6","7fe5690370136919555871dfa588109243fcb9b32badd7902ba8ab61f9dfd864","arctic","swim","1689","","E10","4","","","","arctic-engagement","","","","","","","","","","","","","","5","enjoyment","",""
"html-button-response","49","1246744","0.0-6.0-0.0-5.0-0.7","7fe5690370136919555871dfa588109243fcb9b32badd7902ba8ab61f9dfd864","arctic","swim","1415","","E1","3","","","","arctic-engagement","","","","","","","","","","","","","","4","enjoyment","",""
"html-button-response","50","1248960","0.0-6.0-0.0-5.0-0.8","7fe5690370136919555871dfa588109243fcb9b32badd7902ba8ab61f9dfd864","arctic","swim","1965","","EE3","2","","","","arctic-engagement","","","","","","","","","","","","","","3","emo-engage","",""
"html-button-response","51","1251302","0.0-6.0-0.0-5.0-0.9","7fe5690370136919555871dfa588109243fcb9b32badd7902ba8ab61f9dfd864","arctic","swim","2089","","E8","2","","","","arctic-engagement","","","","","","","","","","","","","","3","enjoyment","",""
"html-button-response","52","1253332","0.0-6.0-0.0-5.0-0.10","7fe5690370136919555871dfa588109243fcb9b32badd7902ba8ab61f9dfd864","arctic","swim","1773","","EE5","2","","","","arctic-engagement","","","","","","","","","","","","","","3","emo-engage","",""
"html-button-response","53","1255794","0.0-6.0-0.0-5.0-0.11","7fe5690370136919555871dfa588109243fcb9b32badd7902ba8ab61f9dfd864","arctic","swim","2208","","MS3","4","","","","arctic-engagement","","","","","","","","","","","","","","5","mental-sim","",""
"html-button-response","54","1259002","0.0-6.0-0.0-5.0-0.12","7fe5690370136919555871dfa588109243fcb9b32badd7902ba8ab61f9dfd864","arctic","swim","2953","","A2","4","","","","arctic-engagement","","","","","","","","","","","","","","5","absorption","",""
"html-button-response","55","1262729","0.0-6.0-0.0-5.0-0.13","7fe5690370136919555871dfa588109243fcb9b32badd7902ba8ab61f9dfd864","arctic","swim","3474","","EE1","4","","","","arctic-engagement","","","","","","","","","","","","","","5","emo-engage","",""
"html-button-response","56","1264880","0.0-6.0-0.0-5.0-0.14","7fe5690370136919555871dfa588109243fcb9b32badd7902ba8ab61f9dfd864","arctic","swim","1897","","MS1","4","","","","arctic-engagement","","","","","","","","","","","","","","5","mental-sim","",""
"html-button-response","57","1273508","0.0-6.0-0.0-5.0-0.15","7fe5690370136919555871dfa588109243fcb9b32badd7902ba8ab61f9dfd864","arctic","swim","8372","","A4","3","","","","arctic-engagement","","","","","","","","","","","","","","4","absorption","",""
"html-button-response","58","1277188","0.0-6.0-0.0-5.0-0.16","7fe5690370136919555871dfa588109243fcb9b32badd7902ba8ab61f9dfd864","arctic","swim","3425","","A5","3","","","","arctic-engagement","","","","","","","","","","","","","","4","absorption","",""
"html-button-response","59","1279225","0.0-6.0-0.0-5.0-0.17","7fe5690370136919555871dfa588109243fcb9b32badd7902ba8ab61f9dfd864","arctic","swim","1783","","EE2","3","","","","arctic-engagement","","","","","","","","","","","","","","4","emo-engage","",""
"html-keyboard-response","60","1286629","0.0-6.0-1.0","7fe5690370136919555871dfa588109243fcb9b32badd7902ba8ab61f9dfd864","arctic","swim","7150","","<p>Thank you for your responses. You will now listen to the second story.</p><p>Remember, as you listen to the story you will see letters appear on the screen.</br>As quickly as possible, press <b>&lt;x&gt;</b> if the letter is lowercase and <b>&lt;m&gt;</b> if the letter is uppercase.</p><p>Press <b>&lt;x&gt;</b> or <b>&lt;m&gt;</b> to begin listening!</p>","","88","","","","","","","","","","","","","","","","","","","",""
"html-keyboard-response","61","1287130","0.0-6.0-2.0-0.0","7fe5690370136919555871dfa588109243fcb9b32badd7902ba8ab61f9dfd864","arctic","swim","null","","<div style=""font-size:60px;"" tabindex=""0"">+</div>","","null","","","","","","","","","","","","","","","","","","","",""
"dual-task","null","null","null","","arctic","swim","NA","","n","null","NA","88","0","swim-dual-task","","n","lowercase","12000","1","2","7fe5690370136919555871dfa588109243fcb9b32badd7902ba8ab61f9dfd864","12000.899999976158","NA","NA","0","swim","","","","",""
"dual-task","null","null","null","","arctic","swim","635.1000000238419","","Q","null","77","77","1","swim-dual-task","","Q","uppercase","24000","0","2","7fe5690370136919555871dfa588109243fcb9b32badd7902ba8ab61f9dfd864","24002.599999904633","635.1000000238419","77","1","swim","","","","",""
"dual-task","null","null","null","","arctic","swim","619.7000000476837","","G","null","77","77","1","swim-dual-task","","G","uppercase","34000","0","2","7fe5690370136919555871dfa588109243fcb9b32badd7902ba8ab61f9dfd864","34003.59999990463","619.7000000476837","77","1","swim","","","","",""
"dual-task","null","null","null","","arctic","swim","551.8999999761581","","e","null","88","88","1","swim-dual-task","","e","lowercase","42000","0","2","7fe5690370136919555871dfa588109243fcb9b32badd7902ba8ab61f9dfd864","42003.799999952316","551.8999999761581","88","1","swim","","","","",""
"dual-task","null","null","null","","arctic","swim","540.7000000476837","","F","null","77","77","1","swim-dual-task","","F","uppercase","50000","0","2","7fe5690370136919555871dfa588109243fcb9b32badd7902ba8ab61f9dfd864","50003.199999928474","540.7000000476837","77","1","swim","","","","",""
"dual-task","null","null","null","","arctic","swim","597.1000000238419","","q","null","88","88","1","swim-dual-task","","q","lowercase","58000","0","2","7fe5690370136919555871dfa588109243fcb9b32badd7902ba8ab61f9dfd864","58001.799999952316","597.1000000238419","88","1","swim","","","","",""
"dual-task","null","null","null","","arctic","swim","558.1000000238419","","h","null","88","88","1","swim-dual-task","","h","lowercase","68000","0","2","7fe5690370136919555871dfa588109243fcb9b32badd7902ba8ab61f9dfd864","68003.19999992847","558.1000000238419","88","1","swim","","","","",""
"dual-task","null","null","null","","arctic","swim","585.7000000476837","","Q","null","77","77","1","swim-dual-task","","Q","uppercase","78000","0","2","7fe5690370136919555871dfa588109243fcb9b32badd7902ba8ab61f9dfd864","78000.59999990463","585.7000000476837","77","1","swim","","","","",""
"dual-task","null","null","null","","arctic","swim","642.3999999761581","","H","null","77","77","1","swim-dual-task","","H","uppercase","86000","0","2","7fe5690370136919555871dfa588109243fcb9b32badd7902ba8ab61f9dfd864","85999.59999990463","642.3999999761581","77","1","swim","","","","",""
"dual-task","null","null","null","","arctic","swim","910.2999999523163","","f","null","88","88","1","swim-dual-task","","f","lowercase","98000","0","2","7fe5690370136919555871dfa588109243fcb9b32badd7902ba8ab61f9dfd864","98002.29999995232","910.2999999523163","88","1","swim","","","","",""
"dual-task","null","null","null","","arctic","swim","582.5","","A","null","77","77","1","swim-dual-task","","A","uppercase","110000","0","2","7fe5690370136919555871dfa588109243fcb9b32badd7902ba8ab61f9dfd864","110003.19999992847","582.5","77","1","swim","","","","",""
"dual-task","null","null","null","","arctic","swim","668.8000000715256","","H","null","77","77","1","swim-dual-task","","H","uppercase","118000","0","2","7fe5690370136919555871dfa588109243fcb9b32badd7902ba8ab61f9dfd864","118002.5","668.8000000715256","77","1","swim","","","","",""
"dual-task","null","null","null","","arctic","swim","689.3999999761581","","n","null","88","88","1","swim-dual-task","","n","lowercase","132000","0","2","7fe5690370136919555871dfa588109243fcb9b32badd7902ba8ab61f9dfd864","132004.29999995232","689.3999999761581","88","1","swim","","","","",""
"dual-task","null","null","null","","arctic","swim","723.8000000715256","","B","null","77","77","1","swim-dual-task","","B","uppercase","146000","0","2","7fe5690370136919555871dfa588109243fcb9b32badd7902ba8ab61f9dfd864","146003.5","723.8000000715256","77","1","swim","","","","",""
"dual-task","null","null","null","","arctic","swim","557.6000000238419","","q","null","88","88","1","swim-dual-task","","q","lowercase","154000","0","2","7fe5690370136919555871dfa588109243fcb9b32badd7902ba8ab61f9dfd864","154001.5","557.6000000238419","88","1","swim","","","","",""
"dual-task","null","null","null","","arctic","swim","651.1999999284744","","B","null","77","77","1","swim-dual-task","","B","uppercase","160000","0","2","7fe5690370136919555871dfa588109243fcb9b32badd7902ba8ab61f9dfd864","160001.79999995232","651.1999999284744","77","1","swim","","","","",""
"dual-task","null","null","null","","arctic","swim","581.2000000476837","","h","null","88","88","1","swim-dual-task","","h","lowercase","170000","0","2","7fe5690370136919555871dfa588109243fcb9b32badd7902ba8ab61f9dfd864","170003.5","581.2000000476837","88","1","swim","","","","",""
"dual-task","null","null","null","","arctic","swim","778.7999999523163","","R","null","77","77","1","swim-dual-task","","R","uppercase","182000","0","2","7fe5690370136919555871dfa588109243fcb9b32badd7902ba8ab61f9dfd864","181999.39999997616","778.7999999523163","77","1","swim","","","","",""
"dual-task","null","null","null","","arctic","swim","592.6000000238419","","a","null","88","88","1","swim-dual-task","","a","lowercase","190000","0","2","7fe5690370136919555871dfa588109243fcb9b32badd7902ba8ab61f9dfd864","190001.79999995232","592.6000000238419","88","1","swim","","","","",""
"dual-task","null","null","null","","arctic","swim","577.7999999523163","","g","null","88","88","1","swim-dual-task","","g","lowercase","202000","0","2","7fe5690370136919555871dfa588109243fcb9b32badd7902ba8ab61f9dfd864","202001","577.7999999523163","88","1","swim","","","","",""
"dual-task","null","null","null","","arctic","swim","542.3999999761581","","b","null","88","88","1","swim-dual-task","","b","lowercase","214000","0","2","7fe5690370136919555871dfa588109243fcb9b32badd7902ba8ab61f9dfd864","214000.69999992847","542.3999999761581","88","1","swim","","","","",""
"dual-task","null","null","null","","arctic","swim","536.3000000715256","","d","null","88","88","1","swim-dual-task","","d","lowercase","226000","0","2","7fe5690370136919555871dfa588109243fcb9b32badd7902ba8ab61f9dfd864","226004.59999990463","536.3000000715256","88","1","swim","","","","",""
"dual-task","null","null","null","","arctic","swim","710.2999999523163","","F","null","77","77","1","swim-dual-task","","F","uppercase","234000","0","2","7fe5690370136919555871dfa588109243fcb9b32badd7902ba8ab61f9dfd864","234003.79999995232","710.2999999523163","77","1","swim","","","","",""
"dual-task","null","null","null","","arctic","swim","663.1000000238419","","A","null","77","77","1","swim-dual-task","","A","uppercase","242000","0","2","7fe5690370136919555871dfa588109243fcb9b32badd7902ba8ab61f9dfd864","242003.09999990463","663.1000000238419","77","1","swim","","","","",""
"dual-task","null","null","null","","arctic","swim","636.7000000476837","","T","null","77","77","1","swim-dual-task","","T","uppercase","248000","0","2","7fe5690370136919555871dfa588109243fcb9b32badd7902ba8ab61f9dfd864","248003.19999992847","636.7000000476837","77","1","swim","","","","",""
"dual-task","null","null","null","","arctic","swim","594.8000000715256","","t","null","88","88","1","swim-dual-task","","t","lowercase","256000","0","2","7fe5690370136919555871dfa588109243fcb9b32badd7902ba8ab61f9dfd864","256004.59999990463","594.8000000715256","88","1","swim","","","","",""
"dual-task","null","null","null","","arctic","swim","643.2000000476837","","T","null","77","77","1","swim-dual-task","","T","uppercase","264000","0","2","7fe5690370136919555871dfa588109243fcb9b32badd7902ba8ab61f9dfd864","264003.6999999285","643.2000000476837","77","1","swim","","","","",""
"dual-task","null","null","null","","arctic","swim","544.8999999761581","","D","null","77","77","1","swim-dual-task","","D","uppercase","270000","0","2","7fe5690370136919555871dfa588109243fcb9b32badd7902ba8ab61f9dfd864","270000.5","544.8999999761581","77","1","swim","","","","",""
"dual-task","null","null","null","","arctic","swim","586.1000000238419","","f","null","88","88","1","swim-dual-task","","f","lowercase","280000","0","2","7fe5690370136919555871dfa588109243fcb9b32badd7902ba8ab61f9dfd864","280000.39999997616","586.1000000238419","88","1","swim","","","","",""
"dual-task","null","null","null","","arctic","swim","528.3999999761581","","F","null","77","77","1","swim-dual-task","","F","uppercase","286000","0","2","7fe5690370136919555871dfa588109243fcb9b32badd7902ba8ab61f9dfd864","286000","528.3999999761581","77","1","swim","","","","",""
"dual-task","null","null","null","","arctic","swim","733","","a","null","88","88","1","swim-dual-task","","a","lowercase","294000","0","2","7fe5690370136919555871dfa588109243fcb9b32badd7902ba8ab61f9dfd864","294004.1999999285","733","88","1","swim","","","","",""
"dual-task","null","null","null","","arctic","swim","594.1000000238419","","n","null","88","88","1","swim-dual-task","","n","lowercase","306000","0","2","7fe5690370136919555871dfa588109243fcb9b32badd7902ba8ab61f9dfd864","306002.6999999285","594.1000000238419","88","1","swim","","","","",""
"dual-task","null","null","null","","arctic","swim","563.6999999284744","","e","null","88","88","1","swim-dual-task","","e","lowercase","314000","0","2","7fe5690370136919555871dfa588109243fcb9b32badd7902ba8ab61f9dfd864","314002.2999999523","563.6999999284744","88","1","swim","","","","",""
"dual-task","null","null","null","","arctic","swim","688.6000000238419","","Q","null","77","77","1","swim-dual-task","","Q","uppercase","326000","0","2","7fe5690370136919555871dfa588109243fcb9b32badd7902ba8ab61f9dfd864","326001.09999990463","688.6000000238419","77","1","swim","","","","",""
"dual-task","null","null","null","","arctic","swim","612.7000000476837","","A","null","77","77","1","swim-dual-task","","A","uppercase","338000","0","2","7fe5690370136919555871dfa588109243fcb9b32badd7902ba8ab61f9dfd864","338003.59999990463","612.7000000476837","77","1","swim","","","","",""
"dual-task","null","null","null","","arctic","swim","730.3999999761581","","E","null","77","77","1","swim-dual-task","","E","uppercase","348000","0","2","7fe5690370136919555871dfa588109243fcb9b32badd7902ba8ab61f9dfd864","347999.89999997616","730.3999999761581","77","1","swim","","","","",""
"dual-task","null","null","null","","arctic","swim","673.1999999284744","","R","null","77","77","1","swim-dual-task","","R","uppercase","356000","0","2","7fe5690370136919555871dfa588109243fcb9b32badd7902ba8ab61f9dfd864","356001.5","673.1999999284744","77","1","swim","","","","",""
"dual-task","null","null","null","","arctic","swim","554.7000000476837","","g","null","88","88","1","swim-dual-task","","g","lowercase","364000","0","2","7fe5690370136919555871dfa588109243fcb9b32badd7902ba8ab61f9dfd864","364000.6999999285","554.7000000476837","88","1","swim","","","","",""
"dual-task","null","null","null","","arctic","swim","558.5999999046326","","N","null","77","77","1","swim-dual-task","","N","uppercase","376000","0","2","7fe5690370136919555871dfa588109243fcb9b32badd7902ba8ab61f9dfd864","376001","558.5999999046326","77","1","swim","","","","",""
"dual-task","null","null","null","","arctic","swim","586.5","","D","null","77","77","1","swim-dual-task","","D","uppercase","384000","0","2","7fe5690370136919555871dfa588109243fcb9b32badd7902ba8ab61f9dfd864","384004.6999999285","586.5","77","1","swim","","","","",""
"dual-task","null","null","null","","arctic","swim","623.5","","T","null","77","77","1","swim-dual-task","","T","uppercase","394000","0","2","7fe5690370136919555871dfa588109243fcb9b32badd7902ba8ab61f9dfd864","394000.89999997616","623.5","77","1","swim","","","","",""
"dual-task","null","null","null","","arctic","swim","620.5999999046326","","F","null","77","77","1","swim-dual-task","","F","uppercase","404000","0","2","7fe5690370136919555871dfa588109243fcb9b32badd7902ba8ab61f9dfd864","404002.89999997616","620.5999999046326","77","1","swim","","","","",""
"dual-task","null","null","null","","arctic","swim","515.5","","R","null","77","77","1","swim-dual-task","","R","uppercase","410000","0","2","7fe5690370136919555871dfa588109243fcb9b32badd7902ba8ab61f9dfd864","410002.09999990463","515.5","77","1","swim","","","","",""
"dual-task","null","null","null","","arctic","swim","583.7000000476837","","E","null","77","77","1","swim-dual-task","","E","uppercase","420000","0","2","7fe5690370136919555871dfa588109243fcb9b32badd7902ba8ab61f9dfd864","420004.09999990463","583.7000000476837","77","1","swim","","","","",""
"dual-task","null","null","null","","arctic","swim","574.1000000238419","","t","null","88","88","1","swim-dual-task","","t","lowercase","430000","0","2","7fe5690370136919555871dfa588109243fcb9b32badd7902ba8ab61f9dfd864","430002.5","574.1000000238419","88","1","swim","","","","",""
"dual-task","null","null","null","","arctic","swim","553.2000000476837","","N","null","77","77","1","swim-dual-task","","N","uppercase","436000","0","2","7fe5690370136919555871dfa588109243fcb9b32badd7902ba8ab61f9dfd864","436002.1999999285","553.2000000476837","77","1","swim","","","","",""
"dual-task","null","null","null","","arctic","swim","578.5","","H","null","77","77","1","swim-dual-task","","H","uppercase","442000","0","2","7fe5690370136919555871dfa588109243fcb9b32badd7902ba8ab61f9dfd864","442002.09999990463","578.5","77","1","swim","","","","",""
"dual-task","null","null","null","","arctic","swim","613.3999999761581","","e","null","88","88","1","swim-dual-task","","e","lowercase","454000","0","2","7fe5690370136919555871dfa588109243fcb9b32badd7902ba8ab61f9dfd864","454001.2999999523","613.3999999761581","88","1","swim","","","","",""
"dual-task","null","null","null","","arctic","swim","628.1000000238419","","h","null","88","88","1","swim-dual-task","","h","lowercase","462000","0","2","7fe5690370136919555871dfa588109243fcb9b32badd7902ba8ab61f9dfd864","462000.39999997616","628.1000000238419","88","1","swim","","","","",""
"dual-task","null","null","null","","arctic","swim","607","","R","null","77","77","1","swim-dual-task","","R","uppercase","476000","0","2","7fe5690370136919555871dfa588109243fcb9b32badd7902ba8ab61f9dfd864","476003.39999997616","607","77","1","swim","","","","",""
"dual-task","null","null","null","","arctic","swim","670.2000000476837","","A","null","77","77","1","swim-dual-task","","A","uppercase","490000","0","2","7fe5690370136919555871dfa588109243fcb9b32badd7902ba8ab61f9dfd864","490003.6999999285","670.2000000476837","77","1","swim","","","","",""
"dual-task","null","null","null","","arctic","swim","615.8999999761581","","r","null","88","88","1","swim-dual-task","","r","lowercase","496000","0","2","7fe5690370136919555871dfa588109243fcb9b32badd7902ba8ab61f9dfd864","496000.39999997616","615.8999999761581","88","1","swim","","","","",""
"dual-task","null","null","null","","arctic","swim","629.1000000238419","","D","null","77","77","1","swim-dual-task","","D","uppercase","510000","0","2","7fe5690370136919555871dfa588109243fcb9b32badd7902ba8ab61f9dfd864","510002.09999990463","629.1000000238419","77","1","swim","","","","",""
"dual-task","null","null","null","","arctic","swim","897","","G","null","77","77","1","swim-dual-task","","G","uppercase","520000","0","2","7fe5690370136919555871dfa588109243fcb9b32badd7902ba8ab61f9dfd864","520004.09999990463","897","77","1","swim","","","","",""
"dual-task","null","null","null","","arctic","swim","685.2999999523163","","Q","null","77","77","1","swim-dual-task","","Q","uppercase","528000","0","2","7fe5690370136919555871dfa588109243fcb9b32badd7902ba8ab61f9dfd864","528003.2999999523","685.2999999523163","77","1","swim","","","","",""
"dual-task","null","null","null","","arctic","swim","623.6000000238419","","d","null","88","88","1","swim-dual-task","","d","lowercase","540000","0","2","7fe5690370136919555871dfa588109243fcb9b32badd7902ba8ab61f9dfd864","540002.0999999046","623.6000000238419","88","1","swim","","","","",""
"dual-task","null","null","null","","arctic","swim","543.3000000715256","","f","null","88","88","1","swim-dual-task","","f","lowercase","546000","0","2","7fe5690370136919555871dfa588109243fcb9b32badd7902ba8ab61f9dfd864","546004.1999999285","543.3000000715256","88","1","swim","","","","",""
"dual-task","null","null","null","","arctic","swim","760.6999999284744","","H","null","77","77","1","swim-dual-task","","H","uppercase","554000","0","2","7fe5690370136919555871dfa588109243fcb9b32badd7902ba8ab61f9dfd864","554003.8999999762","760.6999999284744","77","1","swim","","","","",""
"dual-task","null","null","null","","arctic","swim","774","","G","null","77","77","1","swim-dual-task","","G","uppercase","566000","0","2","7fe5690370136919555871dfa588109243fcb9b32badd7902ba8ab61f9dfd864","566002.6999999285","774","77","1","swim","","","","",""
"dual-task","null","null","null","","arctic","swim","717.2999999523163","","b","null","88","88","1","swim-dual-task","","b","lowercase","578000","0","2","7fe5690370136919555871dfa588109243fcb9b32badd7902ba8ab61f9dfd864","578001.3999999762","717.2999999523163","88","1","swim","","","","",""
"dual-task","null","null","null","","arctic","swim","1476.2999999523163","","d","null","88","88","1","swim-dual-task","","d","lowercase","588000","0","2","7fe5690370136919555871dfa588109243fcb9b32badd7902ba8ab61f9dfd864","588003.3999999762","1476.2999999523163","88","1","swim","","","","",""
"dual-task","null","null","null","","arctic","swim","892.5","","b","null","88","88","1","swim-dual-task","","b","lowercase","600000","0","2","7fe5690370136919555871dfa588109243fcb9b32badd7902ba8ab61f9dfd864","600000.0999999046","892.5","88","1","swim","","","","",""
"dual-task","null","null","null","","arctic","swim","476.8000000715256","","q","null","88","88","1","swim-dual-task","","q","lowercase","610000","0","2","7fe5690370136919555871dfa588109243fcb9b32badd7902ba8ab61f9dfd864","610000.6999999285","476.8000000715256","88","1","swim","","","","",""
"dual-task","null","null","null","","arctic","swim","670.1999999284744","","D","null","77","77","1","swim-dual-task","","D","uppercase","622000","0","2","7fe5690370136919555871dfa588109243fcb9b32badd7902ba8ab61f9dfd864","622003.5","670.1999999284744","77","1","swim","","","","",""
"dual-task","null","null","null","","arctic","swim","573.6999999284744","","E","null","77","77","1","swim-dual-task","","E","uppercase","634000","0","2","7fe5690370136919555871dfa588109243fcb9b32badd7902ba8ab61f9dfd864","634002.3999999762","573.6999999284744","77","1","swim","","","","",""
"dual-task","null","null","null","","arctic","swim","618.7000000476837","","a","null","88","88","1","swim-dual-task","","a","lowercase","640000","0","2","7fe5690370136919555871dfa588109243fcb9b32badd7902ba8ab61f9dfd864","640004.5999999046","618.7000000476837","88","1","swim","","","","",""
"dual-task","null","null","null","","arctic","swim","623.3000000715256","","T","null","77","77","1","swim-dual-task","","T","uppercase","652000","0","2","7fe5690370136919555871dfa588109243fcb9b32badd7902ba8ab61f9dfd864","652003.6999999285","623.3000000715256","77","1","swim","","","","",""
"dual-task","null","null","null","","arctic","swim","547","","f","null","88","88","1","swim-dual-task","","f","lowercase","662000","0","2","7fe5690370136919555871dfa588109243fcb9b32badd7902ba8ab61f9dfd864","662003.5","547","88","1","swim","","","","",""
"dual-task","null","null","null","","arctic","swim","711.3000000715256","","r","null","88","88","1","swim-dual-task","","r","lowercase","672000","0","2","7fe5690370136919555871dfa588109243fcb9b32badd7902ba8ab61f9dfd864","672000.0999999046","711.3000000715256","88","1","swim","","","","",""
"dual-task","null","null","null","","arctic","swim","640.1000000238419","","B","null","77","77","1","swim-dual-task","","B","uppercase","682000","0","2","7fe5690370136919555871dfa588109243fcb9b32badd7902ba8ab61f9dfd864","682003.5999999046","640.1000000238419","77","1","swim","","","","",""
"dual-task","null","null","null","","arctic","swim","525","","t","null","88","88","1","swim-dual-task","","t","lowercase","690000","0","2","7fe5690370136919555871dfa588109243fcb9b32badd7902ba8ab61f9dfd864","690002.8999999762","525","88","1","swim","","","","",""
"dual-task","null","null","null","","arctic","swim","508.2000000476837","","g","null","88","88","1","swim-dual-task","","g","lowercase","700000","0","2","7fe5690370136919555871dfa588109243fcb9b32badd7902ba8ab61f9dfd864","700005.0999999046","508.2000000476837","88","1","swim","","","","",""
"dual-task","null","null","null","","arctic","swim","559.1999999284744","","h","null","88","88","1","swim-dual-task","","h","lowercase","708000","0","2","7fe5690370136919555871dfa588109243fcb9b32badd7902ba8ab61f9dfd864","708004.3999999762","559.1999999284744","88","1","swim","","","","",""
"dual-task","null","null","null","","arctic","swim","501.2000000476837","","r","null","88","88","1","swim-dual-task","","r","lowercase","716000","0","2","7fe5690370136919555871dfa588109243fcb9b32badd7902ba8ab61f9dfd864","716003.6999999285","501.2000000476837","88","1","swim","","","","",""
"dual-task","null","null","null","","arctic","swim","704.1000000238419","","t","null","88","88","1","swim-dual-task","","t","lowercase","724000","0","2","7fe5690370136919555871dfa588109243fcb9b32badd7902ba8ab61f9dfd864","724002.6999999285","704.1000000238419","88","1","swim","","","","",""
"dual-task","null","null","null","","arctic","swim","605.4000000953674","","a","null","88","88","1","swim-dual-task","","a","lowercase","736000","0","2","7fe5690370136919555871dfa588109243fcb9b32badd7902ba8ab61f9dfd864","736004.0999999046","605.4000000953674","88","1","swim","","","","",""
"dual-task","null","null","null","","arctic","swim","619.3999999761581","","r","null","88","88","1","swim-dual-task","","r","lowercase","744000","0","2","7fe5690370136919555871dfa588109243fcb9b32badd7902ba8ab61f9dfd864","744001.1999999285","619.3999999761581","88","1","swim","","","","",""
"dual-task","null","null","null","","arctic","swim","724.8000000715256","","B","null","77","77","1","swim-dual-task","","B","uppercase","756000","0","2","7fe5690370136919555871dfa588109243fcb9b32badd7902ba8ab61f9dfd864","756005.1999999285","724.8000000715256","77","1","swim","","","","",""
"dual-task","null","null","null","","arctic","swim","983.2999999523163","","d","null","88","88","1","swim-dual-task","","d","lowercase","768000","0","2","7fe5690370136919555871dfa588109243fcb9b32badd7902ba8ab61f9dfd864","768004.8999999762","983.2999999523163","88","1","swim","","","","",""
"dual-task","null","null","null","","arctic","swim","558.3000000715256","","n","null","88","88","1","swim-dual-task","","n","lowercase","782000","0","2","7fe5690370136919555871dfa588109243fcb9b32badd7902ba8ab61f9dfd864","782000.5999999046","558.3000000715256","88","1","swim","","","","",""
"dual-task","null","null","null","","arctic","swim","539.5","","b","null","88","88","1","swim-dual-task","","b","lowercase","790000","0","2","7fe5690370136919555871dfa588109243fcb9b32badd7902ba8ab61f9dfd864","790005.5","539.5","88","1","swim","","","","",""
"audio-keyboard-response","62","2097137","0.0-6.0-2.0-1.0","7fe5690370136919555871dfa588109243fcb9b32badd7902ba8ab61f9dfd864","arctic","swim","null","","audio/story_swim_scrambled.mp3","","null","","","","","","","","","","","","","","","","","","","",""
"html-button-response","63","2099466","0.0-6.0-2.0-2.0","7fe5690370136919555871dfa588109243fcb9b32badd7902ba8ab61f9dfd864","arctic","swim","2329","","<p>This concludes the story. Thank you for listening.</p><p>You will now answer some questions about the content of the story.</p>","0","","","","","","","","","","","","","","","","","","","","",""
"survey-multi-choice","64","2108257","0.0-6.0-2.0-3.0-0.0","7fe5690370136919555871dfa588109243fcb9b32badd7902ba8ab61f9dfd864","arctic","swim","8787","","<b>How many times did the astronaut candidates have to complete the final exercise to pass?</b>","","","","0","swim-comprehension","","","","","","","","","","","","","{""Q0"":""One""}","","","",""
"survey-multi-choice","65","2119931","0.0-6.0-2.0-3.0-0.1","7fe5690370136919555871dfa588109243fcb9b32badd7902ba8ab61f9dfd864","arctic","swim","11418","","<b>What gave the narrator his greatest feeling of accomplishment?</b>","","","","1","swim-comprehension","","","","","","","","","","","","","{""Q0"":""Passing the water survival course""}","","","",""
"survey-multi-choice","66","2123487","0.0-6.0-2.0-3.0-0.2","7fe5690370136919555871dfa588109243fcb9b32badd7902ba8ab61f9dfd864","arctic","swim","3298","","<b>How many astronaut candidates reported for duty at the Johnson Space Center?</b>","","","","1","swim-comprehension","","","","","","","","","","","","","{""Q0"":""Forty-four""}","","","",""
"survey-multi-choice","67","2127589","0.0-6.0-2.0-3.0-0.3","7fe5690370136919555871dfa588109243fcb9b32badd7902ba8ab61f9dfd864","arctic","swim","3844","","<b>How many astronaut candidates passed the first swim test?</b>","","","","1","swim-comprehension","","","","","","","","","","","","","{""Q0"":""All of them""}","","","",""
"survey-multi-choice","68","2134619","0.0-6.0-2.0-3.0-0.4","7fe5690370136919555871dfa588109243fcb9b32badd7902ba8ab61f9dfd864","arctic","swim","6771","","<b>How often does the narrator swim, now that he is a good swimmer?</b>","","","","0","swim-comprehension","","","","","","","","","","","","","{""Q0"":""Every weekend with his kids""}","","","",""
"survey-multi-choice","69","2138557","0.0-6.0-2.0-3.0-0.5","7fe5690370136919555871dfa588109243fcb9b32badd7902ba8ab61f9dfd864","arctic","swim","3684","","<b>Where is the home of naval aviation?</b>","","","","1","swim-comprehension","","","","","","","","","","","","","{""Q0"":""Pensacola""}","","","",""
"survey-multi-choice","70","2144403","0.0-6.0-2.0-3.0-0.6","7fe5690370136919555871dfa588109243fcb9b32badd7902ba8ab61f9dfd864","arctic","swim","5589","","<b>What is the narrator afraid of, aside from the water?</b>","","","","1","swim-comprehension","","","","","","","","","","","","","{""Q0"":""Heights""}","","","",""
"survey-multi-choice","71","2156679","0.0-6.0-2.0-3.0-0.7","7fe5690370136919555871dfa588109243fcb9b32badd7902ba8ab61f9dfd864","arctic","swim","12019","","<b>How did the narrator train for his swim test?</b>","","","","1","swim-comprehension","","","","","","","","","","","","","{""Q0"":""Took his kids to the pool every day""}","","","",""
"survey-multi-choice","72","2167087","0.0-6.0-2.0-3.0-0.8","7fe5690370136919555871dfa588109243fcb9b32badd7902ba8ab61f9dfd864","arctic","swim","10149","","<b>What was the final step of the first swim test in the pool?</b>","","","","1","swim-comprehension","","","","","","","","","","","","","{""Q0"":""Tread water with hands above the water""}","","","",""
"survey-multi-choice","73","2174453","0.0-6.0-2.0-3.0-0.9","7fe5690370136919555871dfa588109243fcb9b32badd7902ba8ab61f9dfd864","arctic","swim","7110","","<b>What were the astronaut candidates trained to do at the naval air station?</b>","","","","1","swim-comprehension","","","","","","","","","","","","","{""Q0"":""Eject out of aircraft and survive in water long enough to be rescued""}","","","",""
"html-button-response","74","2176991","0.0-6.0-2.0-4.0","7fe5690370136919555871dfa588109243fcb9b32badd7902ba8ab61f9dfd864","arctic","swim","2286","","<p>Thank you for your responses.</p><p>You will now answer some questions about your impressions of the story.</p>","0","","","","","","","","","","","","","","","","","","","","",""
"html-button-response","75","2178916","0.0-6.0-2.0-5.0-0.0","7fe5690370136919555871dfa588109243fcb9b32badd7902ba8ab61f9dfd864","arctic","swim","1924","","EE3","0","","","","swim-engagement","","","","","","","","","","","","","","1","emo-engage","",""
"html-button-response","76","2180925","0.0-6.0-2.0-5.0-0.1","7fe5690370136919555871dfa588109243fcb9b32badd7902ba8ab61f9dfd864","arctic","swim","1755","","EE2","0","","","","swim-engagement","","","","","","","","","","","","","","1","emo-engage","",""
"html-button-response","77","2182144","0.0-6.0-2.0-5.0-0.2","7fe5690370136919555871dfa588109243fcb9b32badd7902ba8ab61f9dfd864","arctic","swim","965","","E1","0","","","","swim-engagement","","","","","","","","","","","","","","1","enjoyment","",""
"html-button-response","78","2183629","0.0-6.0-2.0-5.0-0.3","7fe5690370136919555871dfa588109243fcb9b32badd7902ba8ab61f9dfd864","arctic","swim","1232","","MS3","0","","","","swim-engagement","","","","","","","","","","","","","","1","mental-sim","",""
"html-button-response","79","2186659","0.0-6.0-2.0-5.0-0.4","7fe5690370136919555871dfa588109243fcb9b32badd7902ba8ab61f9dfd864","arctic","swim","2776","","A5","1","","","","swim-engagement","","","","","","","","","","","","","","2","absorption","",""
"html-button-response","80","2189208","0.0-6.0-2.0-5.0-0.5","7fe5690370136919555871dfa588109243fcb9b32badd7902ba8ab61f9dfd864","arctic","swim","2295","","A1","0","","","","swim-engagement","","","","","","","","","","","","","","1","absorption","",""
"html-button-response","81","2191825","0.0-6.0-2.0-5.0-0.6","7fe5690370136919555871dfa588109243fcb9b32badd7902ba8ab61f9dfd864","arctic","swim","2364","","A2","1","","","","swim-engagement","","","","","","","","","","","","","","2","absorption","",""
"html-button-response","82","2193171","0.0-6.0-2.0-5.0-0.7","7fe5690370136919555871dfa588109243fcb9b32badd7902ba8ab61f9dfd864","arctic","swim","1092","","A3","1","","","","swim-engagement","","","","","","","","","","","","","","2","absorption","",""
"html-button-response","83","2195897","0.0-6.0-2.0-5.0-0.8","7fe5690370136919555871dfa588109243fcb9b32badd7902ba8ab61f9dfd864","arctic","swim","2471","","EE1","0","","","","swim-engagement","","","","","","","","","","","","","","1","emo-engage","",""
"html-button-response","84","2197365","0.0-6.0-2.0-5.0-0.9","7fe5690370136919555871dfa588109243fcb9b32badd7902ba8ab61f9dfd864","arctic","swim","1212","","E7","0","","","","swim-engagement","","","","","","","","","","","","","","1","enjoyment","",""
"html-button-response","85","2198824","0.0-6.0-2.0-5.0-0.10","7fe5690370136919555871dfa588109243fcb9b32badd7902ba8ab61f9dfd864","arctic","swim","1208","","E10","0","","","","swim-engagement","","","","","","","","","","","","","","1","enjoyment","",""
"html-button-response","86","2200533","0.0-6.0-2.0-5.0-0.11","7fe5690370136919555871dfa588109243fcb9b32badd7902ba8ab61f9dfd864","arctic","swim","1453","","A4","0","","","","swim-engagement","","","","","","","","","","","","","","1","absorption","",""
"html-button-response","87","2201977","0.0-6.0-2.0-5.0-0.12","7fe5690370136919555871dfa588109243fcb9b32badd7902ba8ab61f9dfd864","arctic","swim","1190","","E6","0","","","","swim-engagement","","","","","","","","","","","","","","1","enjoyment","",""
"html-button-response","88","2203701","0.0-6.0-2.0-5.0-0.13","7fe5690370136919555871dfa588109243fcb9b32badd7902ba8ab61f9dfd864","arctic","swim","1469","","EE5","0","","","","swim-engagement","","","","","","","","","","","","","","1","emo-engage","",""
"html-button-response","89","2206443","0.0-6.0-2.0-5.0-0.14","7fe5690370136919555871dfa588109243fcb9b32badd7902ba8ab61f9dfd864","arctic","swim","2487","","MS1","0","","","","swim-engagement","","","","","","","","","","","","","","1","mental-sim","",""
"html-button-response","90","2208441","0.0-6.0-2.0-5.0-0.15","7fe5690370136919555871dfa588109243fcb9b32badd7902ba8ab61f9dfd864","arctic","swim","1745","","EE4","0","","","","swim-engagement","","","","","","","","","","","","","","1","emo-engage","",""
"html-button-response","91","2211840","0.0-6.0-2.0-5.0-0.16","7fe5690370136919555871dfa588109243fcb9b32badd7902ba8ab61f9dfd864","arctic","swim","3148","","MS2","0","","","","swim-engagement","","","","","","","","","","","","","","1","mental-sim","",""
"html-button-response","92","2213111","0.0-6.0-2.0-5.0-0.17","7fe5690370136919555871dfa588109243fcb9b32badd7902ba8ab61f9dfd864","arctic","swim","1016","","E8","0","","","","swim-engagement","","","","","","","","","","","","","","1","enjoyment","",""
"html-button-response","93","2214948","0.0-8.0","7fe5690370136919555871dfa588109243fcb9b32badd7902ba8ab61f9dfd864","arctic","swim","1582","","<p>Thank you for your responses.</p><p>You will now answer some demographic, hearing, and general health questions.</p>","0","","","","","","","","","","","","","","","","","","","","",""
"survey-multi-choice","94","2217423","0.0-9.0-0.0","7fe5690370136919555871dfa588109243fcb9b32badd7902ba8ab61f9dfd864","arctic","swim","2471","","","","","","","survey","","","","","","","","","","","","","{""Q0"":""Chrome""}","","","browser",""
"survey-text","95","2220574","0.0-9.0-1.0","7fe5690370136919555871dfa588109243fcb9b32badd7902ba8ab61f9dfd864","arctic","swim","2893.2999999523163","","","","","","","survey","","","","","","","","","","","","","{""AGE"":""34""}","","","age","34"
"survey-multi-choice","96","2223457","0.0-9.0-2.0","7fe5690370136919555871dfa588109243fcb9b32badd7902ba8ab61f9dfd864","arctic","swim","2628","","","","","","","survey","","","","","","","","","","","","","{""Q0"":""Male""}","","","gender","Male"
"survey-multi-choice","97","2225847","0.0-9.0-4.0","7fe5690370136919555871dfa588109243fcb9b32badd7902ba8ab61f9dfd864","arctic","swim","2134","","","","","","","survey","","","","","","","","","","","","","{""Q0"":""Right""}","","","handedness","Right"
"survey-multi-choice","98","2228473","0.0-9.0-5.0","7fe5690370136919555871dfa588109243fcb9b32badd7902ba8ab61f9dfd864","arctic","swim","2365","","","","","","","survey","","","","","","","","","","","","","{""Q0"":""High school""}","","","education","High school"
"survey-text","99","2233099","0.0-10.0-0.0","7fe5690370136919555871dfa588109243fcb9b32badd7902ba8ab61f9dfd864","arctic","swim","4371.5","","","","","","","survey","","","","","","","","","","","","","{""L1"":""English""}","","","first-language","English"
"survey-text","100","2239061","0.0-10.0-1.0","7fe5690370136919555871dfa588109243fcb9b32badd7902ba8ab61f9dfd864","arctic","swim","5705.199999928474","","","","","","","survey","","","","","","","","","","","","","{""L2name"":"""",""L2fluency"":"""",""L3name"":"""",""L3fluency"":"""",""L4name"":"""",""L4fluency"":""""}","","","additional-languages","{""L2name"":"""",""L2fluency"":"""",""L3name"":"""",""L3fluency"":"""",""L4name"":"""",""L4fluency"":""""}"
"survey-multi-choice","101","2241646","0.0-10.0-2.0","7fe5690370136919555871dfa588109243fcb9b32badd7902ba8ab61f9dfd864","arctic","swim","2327","","","","","","","survey","","","","","","","","","","","","","{""Q0"":""No""}","","","hearing-aid","No"
"survey-multi-choice","102","2245351","0.0-10.0-3.0","7fe5690370136919555871dfa588109243fcb9b32badd7902ba8ab61f9dfd864","arctic","swim","3449","","","","","","","survey","","","","","","","","","","","","","{""Q0"":""Never""}","","","ringing-ears","Never"
"survey-multi-choice","103","2247849","0.0-10.0-5.0","7fe5690370136919555871dfa588109243fcb9b32badd7902ba8ab61f9dfd864","arctic","swim","2239","","","","","","","survey","","","","","","","","","","","","","{""Q0"":""No""}","","","neuro-disease","No"
"survey-multi-choice","104","2250550","0.0-10.0-7.0","7fe5690370136919555871dfa588109243fcb9b32badd7902ba8ab61f9dfd864","arctic","swim","2447","","","","","","","survey","","","","","","","","","","","","","{""Q0"":""No""}","","","take-meds","No"
"survey-text","105","2255671","0.0-10.0-9.0","7fe5690370136919555871dfa588109243fcb9b32badd7902ba8ab61f9dfd864","arctic","swim","4855.099999904633","","","","","","","survey","","","","","","","","","","","","","{""HC"":""n/a""}","","","health-concerns","n/a"
"html-button-response","106","2258377","0.0-11.0-0.0","7fe5690370136919555871dfa588109243fcb9b32badd7902ba8ab61f9dfd864","arctic","swim","2451","","<p>How would you describe your musical skills/experiences?</p>","2","","","","survey","","","","","","","","","","","","","","","","music-skill","3"
"survey-multi-choice","107","2260573","0.0-11.0-1.0","7fe5690370136919555871dfa588109243fcb9b32badd7902ba8ab61f9dfd864","arctic","swim","1939","","","","","","","survey","","","","","","","","","","","","","{""Q0"":""Yes""}","","","music-instrument","Yes"
"survey-text","108","2272167","0.0-11.0-2.0-0.0","7fe5690370136919555871dfa588109243fcb9b32badd7902ba8ab61f9dfd864","arctic","swim","11339.599999904633","","","","","","","survey","","","","","","","","","","","","","{""MEXP"":""23""}","","","music-training-yrs","23"
"html-button-response","109","2274792","0.0-12.0-0.0","7fe5690370136919555871dfa588109243fcb9b32badd7902ba8ab61f9dfd864","arctic","swim","2369","","<p>How would you describe your general hearing abilities?</p>","3","","","","survey","","","","","","","","","","","","","","","","ssq-01","4"
"html-button-response","110","2280460","0.0-12.0-1.0","7fe5690370136919555871dfa588109243fcb9b32badd7902ba8ab61f9dfd864","arctic","swim","5416","","<p>When you talk with someone at a place that strongly reverberates/echoes (e.g., in a church or train station),</br>can you understand what the person says?</p>","6","","","","survey","","","","","","","","","","","","","","","","ssq-02","6"
"html-button-response","111","2283001","0.0-12.0-2.0","7fe5690370136919555871dfa588109243fcb9b32badd7902ba8ab61f9dfd864","arctic","swim","2284","","<p>When you are with a group (~5 people) in a lively restaurant, can you follow the group's conversation?</p>","6","","","","survey","","","","","","","","","","","","","","","","ssq-03","6"
"html-button-response","112","2286290","0.0-12.0-3.0","7fe5690370136919555871dfa588109243fcb9b32badd7902ba8ab61f9dfd864","arctic","swim","3037","","<p>Based on the sound of a bus or truck, can you tell whether it is moving towards or away from you?</p>","6","","","","survey","","","","","","","","","","","","","","","","ssq-04","6"
"html-button-response","113","2288832","0.0-12.0-4.0","7fe5690370136919555871dfa588109243fcb9b32badd7902ba8ab61f9dfd864","arctic","swim","2288","","<p>When you are in an unknown environment, can you tell from which direction a brief sound originates?</p>","6","","","","survey","","","","","","","","","","","","","","","","ssq-05","6"
"html-button-response","114","2292684","0.0-12.0-5.0","7fe5690370136919555871dfa588109243fcb9b32badd7902ba8ab61f9dfd864","arctic","swim","3598","","<p>Are you able to ignore distracting sounds when you concentrate on a specific aspect of your acoustic surrounding?</p>","8","","","","survey","","","","","","","","","","","","","","","","ssq-06","8"
"fullscreen","115","2293942","0.0-13.0","7fe5690370136919555871dfa588109243fcb9b32badd7902ba8ab61f9dfd864","arctic","swim","","","","","","","","","true","","","","","","","","","","","","","","","",""
