"trial_type","trial_index","time_elapsed","internal_node_id","ParticipantID","firstStory","scramStory","rt","url","stimulus","button_pressed","key_press","correctRESP","correct","designation","success","letterStim","letterType","ONSET","TIMEOUT","CONDITION","Participant","ONSET_ACTUAL","RT","RESP","ACC","STORY","responses","response","type","surveyQuestion","QRESP"
"pavlovia","0","67","0.0-0.0","cc8c5c85b9987cf495e2f036c076e20486edc62f2baef904aeb1cbf849ccb03b","arctic","swim","","","","","","","","","","","","","","","","","","","","","","","","",""
"external-html","1","7925","0.0-1.0","cc8c5c85b9987cf495e2f036c076e20486edc62f2baef904aeb1cbf849ccb03b","arctic","swim","6197","consent/consent_updated.html","","","","","","","","","","","","","","","","","","","","","","",""
"html-button-response","2","13745","0.0-2.0-0.0","cc8c5c85b9987cf495e2f036c076e20486edc62f2baef904aeb1cbf849ccb03b","arctic","swim","5815","","<p>Before we begin the main task, you will complete a short volume calibration and headphone check.</p><p>Please make sure you are in a quiet listening environment, that you are wearing headphones, and that your computer's volume is turned on.<p></p>","0","","","","","","","","","","","","","","","","","","","","",""
"html-button-response","3","15455","0.0-2.0-1.0","cc8c5c85b9987cf495e2f036c076e20486edc62f2baef904aeb1cbf849ccb03b","arctic","swim","1458","","<p>The volume calibration will be first.</p><p>You will hear a thirty-second noise. Please adjust your computer's volume so that this noise is being presented at a comfortable level.<p></p>","0","","","","","","","","","","","","","","","","","","","","",""
"audio-button-response","4","30041","0.0-2.0-2.0","cc8c5c85b9987cf495e2f036c076e20486edc62f2baef904aeb1cbf849ccb03b","arctic","swim","14322","","audio/volumetest.mp3","0","","","","","","","","","","","","","","","","","","","","",""
"html-keyboard-response","5","56524","0.0-3.0-0.0","cc8c5c85b9987cf495e2f036c076e20486edc62f2baef904aeb1cbf849ccb03b","arctic","swim","26483","","<p>You will now complete a short headphone check.</p><p>On each trial, you will hear three tones. One of these tones will be quieter than the others. Your task is to identify whether the quiet tone occurred first, second, or third.</p><p>There are six trials in total.<p></p><p></p>(Press SPACEBAR to begin)","","32","","","","","","","","","","","","","","","","","","","",""
"html-keyboard-response","6","57307","0.0-3.0-1.0-0.0","cc8c5c85b9987cf495e2f036c076e20486edc62f2baef904aeb1cbf849ccb03b","arctic","swim","null","","<div style=""font-size:60px;"">+</div>","","null","","","","","","","","","","","","","","","","","","","",""
"audio-button-response","7","68254","0.0-3.0-1.0-1.0","cc8c5c85b9987cf495e2f036c076e20486edc62f2baef904aeb1cbf849ccb03b","arctic","swim","10932","","audio/t1_2.mp3","1","","0","0","headphone-test","","","","","","","","","","","","","","","","",""
"html-keyboard-response","8","68779","0.0-3.0-1.0-2.0","cc8c5c85b9987cf495e2f036c076e20486edc62f2baef904aeb1cbf849ccb03b","arctic","swim","null","","<p>Incorrect</p>","","null","","","","","","","","","","","","","","","","","","","",""
"html-keyboard-response","9","69290","0.0-3.0-1.0-0.1","cc8c5c85b9987cf495e2f036c076e20486edc62f2baef904aeb1cbf849ccb03b","arctic","swim","null","","<div style=""font-size:60px;"">+</div>","","null","","","","","","","","","","","","","","","","","","","",""
"audio-button-response","10","83133","0.0-3.0-1.0-1.1","cc8c5c85b9987cf495e2f036c076e20486edc62f2baef904aeb1cbf849ccb03b","arctic","swim","13840","","audio/t2_1.mp3","2","","1","0","headphone-test","","","","","","","","","","","","","","","","",""
"html-keyboard-response","11","83647","0.0-3.0-1.0-2.1","cc8c5c85b9987cf495e2f036c076e20486edc62f2baef904aeb1cbf849ccb03b","arctic","swim","null","","<p>Incorrect</p>","","null","","","","","","","","","","","","","","","","","","","",""
"html-keyboard-response","12","84157","0.0-3.0-1.0-0.2","cc8c5c85b9987cf495e2f036c076e20486edc62f2baef904aeb1cbf849ccb03b","arctic","swim","null","","<div style=""font-size:60px;"">+</div>","","null","","","","","","","","","","","","","","","","","","","",""
"audio-button-response","13","99649","0.0-3.0-1.0-1.2","cc8c5c85b9987cf495e2f036c076e20486edc62f2baef904aeb1cbf849ccb03b","arctic","swim","15491","","audio/t1_1.mp3","1","","0","0","headphone-test","","","","","","","","","","","","","","","","",""
"html-keyboard-response","14","100151","0.0-3.0-1.0-2.2","cc8c5c85b9987cf495e2f036c076e20486edc62f2baef904aeb1cbf849ccb03b","arctic","swim","null","","<p>Incorrect</p>","","null","","","","","","","","","","","","","","","","","","","",""
"html-keyboard-response","15","100670","0.0-3.0-1.0-0.3","cc8c5c85b9987cf495e2f036c076e20486edc62f2baef904aeb1cbf849ccb03b","arctic","swim","null","","<div style=""font-size:60px;"">+</div>","","null","","","","","","","","","","","","","","","","","","","",""
"audio-button-response","16","108374","0.0-3.0-1.0-1.3","cc8c5c85b9987cf495e2f036c076e20486edc62f2baef904aeb1cbf849ccb03b","arctic","swim","7700","","audio/t3_2.mp3","0","","2","0","headphone-test","","","","","","","","","","","","","","","","",""
"html-keyboard-response","17","108888","0.0-3.0-1.0-2.3","cc8c5c85b9987cf495e2f036c076e20486edc62f2baef904aeb1cbf849ccb03b","arctic","swim","null","","<p>Incorrect</p>","","null","","","","","","","","","","","","","","","","","","","",""
"html-keyboard-response","18","109397","0.0-3.0-1.0-0.4","cc8c5c85b9987cf495e2f036c076e20486edc62f2baef904aeb1cbf849ccb03b","arctic","swim","null","","<div style=""font-size:60px;"">+</div>","","null","","","","","","","","","","","","","","","","","","","",""
"audio-button-response","19","110472","0.0-3.0-1.0-1.4","cc8c5c85b9987cf495e2f036c076e20486edc62f2baef904aeb1cbf849ccb03b","arctic","swim","1073","","audio/t3_1.mp3","1","","2","0","headphone-test","","","","","","","","","","","","","","","","",""
"html-keyboard-response","20","111033","0.0-3.0-1.0-2.4","cc8c5c85b9987cf495e2f036c076e20486edc62f2baef904aeb1cbf849ccb03b","arctic","swim","null","","<p>Incorrect</p>","","null","","","","","","","","","","","","","","","","","","","",""
"html-keyboard-response","21","111542","0.0-3.0-1.0-0.5","cc8c5c85b9987cf495e2f036c076e20486edc62f2baef904aeb1cbf849ccb03b","arctic","swim","null","","<div style=""font-size:60px;"">+</div>","","null","","","","","","","","","","","","","","","","","","","",""
"audio-button-response","22","114795","0.0-3.0-1.0-1.5","cc8c5c85b9987cf495e2f036c076e20486edc62f2baef904aeb1cbf849ccb03b","arctic","swim","3251","","audio/t2_2.mp3","1","","1","1","headphone-test","","","","","","","","","","","","","","","","",""
"html-keyboard-response","23","115353","0.0-3.0-1.0-2.5","cc8c5c85b9987cf495e2f036c076e20486edc62f2baef904aeb1cbf849ccb03b","arctic","swim","null","","<p>Correct</p>","","null","","","","","","","","","","","","","","","","","","","",""
"fullscreen","24","117917","0.0-4.0","cc8c5c85b9987cf495e2f036c076e20486edc62f2baef904aeb1cbf849ccb03b","arctic","swim","","","","","","","","","true","","","","","","","","","","","","","","","",""
"html-button-response","25","120457","0.0-5.0-0.0","cc8c5c85b9987cf495e2f036c076e20486edc62f2baef904aeb1cbf849ccb03b","arctic","swim","2540","","<p>There are two blocks to this experiment.</p><p>In each block, you will hear a ~13.5 minute story. One of the stories will be scrambled. Please listen carefully to both stories and understand them as best you can.</p><p>After each story, you will be asked some questions to assess your comprehension.</p>","0","","","","","","","","","","","","","","","","","","","","",""
"html-button-response","26","156258","0.0-5.0-1.0","cc8c5c85b9987cf495e2f036c076e20486edc62f2baef904aeb1cbf849ccb03b","arctic","swim","35799","","<p>During each story, there will be an additional task.</p><p>A letter will occasionally appear on the screen.</br>Your job is to - as quickly as you can - decide whether the letter is lowercase or uppercase and press one of two keys on the keyboard:</p><p>If the letter is <b>lowercase</b>, press key &lt;<b>x</b>&gt;.</p><p>If the letter is <b>uppercase</b>, press key &lt;<b>m</b>&gt;.</p>","0","","","","","","","","","","","","","","","","","","","","",""
"html-keyboard-response","27","163630","0.0-5.0-2.0","cc8c5c85b9987cf495e2f036c076e20486edc62f2baef904aeb1cbf849ccb03b","arctic","swim","7372","","<p>Because we want your responses to be as quick as possible, please keep your index fingers over the keys while listening.</p><p>Each block lasts about 20 minutes.</p><p><b>Press &lt;x&gt; or &lt;m&gt; to start the first block!</b></p>","","88","","","","","","","","","","","","","","","","","","","",""
"html-keyboard-response","28","164130","0.0-6.0-0.0-0.0","cc8c5c85b9987cf495e2f036c076e20486edc62f2baef904aeb1cbf849ccb03b","arctic","swim","null","","<div style=""font-size:60px;"" tabindex=""0"">+</div>","","null","","","","","","","","","","","","","","","","","","","",""
"dual-task","null","null","null","","arctic","swim","NA","","B","null","NA","77","0","arctic-dual-task","","B","uppercase","12000","1","6","cc8c5c85b9987cf495e2f036c076e20486edc62f2baef904aeb1cbf849ccb03b","12014","NA","NA","0","arctic","","","","",""
"dual-task","null","null","null","","arctic","swim","10","","G","null","77","77","1","arctic-dual-task","","G","uppercase","24000","0","6","cc8c5c85b9987cf495e2f036c076e20486edc62f2baef904aeb1cbf849ccb03b","24004","10","77","1","arctic","","","","",""
"dual-task","null","null","null","","arctic","swim","NA","","A","null","NA","77","0","arctic-dual-task","","A","uppercase","36000","1","6","cc8c5c85b9987cf495e2f036c076e20486edc62f2baef904aeb1cbf849ccb03b","36009","NA","NA","0","arctic","","","","",""
"dual-task","null","null","null","","arctic","swim","NA","","h","null","NA","88","0","arctic-dual-task","","h","lowercase","46000","1","6","cc8c5c85b9987cf495e2f036c076e20486edc62f2baef904aeb1cbf849ccb03b","46001","NA","NA","0","arctic","","","","",""
"dual-task","null","null","null","","arctic","swim","NA","","b","null","NA","88","0","arctic-dual-task","","b","lowercase","60000","1","6","cc8c5c85b9987cf495e2f036c076e20486edc62f2baef904aeb1cbf849ccb03b","60007","NA","NA","0","arctic","","","","",""
"dual-task","null","null","null","","arctic","swim","NA","","d","null","NA","88","0","arctic-dual-task","","d","lowercase","70000","1","6","cc8c5c85b9987cf495e2f036c076e20486edc62f2baef904aeb1cbf849ccb03b","70021","NA","NA","0","arctic","","","","",""
"dual-task","null","null","null","","arctic","swim","NA","","n","null","NA","88","0","arctic-dual-task","","n","lowercase","82000","1","6","cc8c5c85b9987cf495e2f036c076e20486edc62f2baef904aeb1cbf849ccb03b","82007","NA","NA","0","arctic","","","","",""
"dual-task","null","null","null","","arctic","swim","NA","","h","null","NA","88","0","arctic-dual-task","","h","lowercase","92000","1","6","cc8c5c85b9987cf495e2f036c076e20486edc62f2baef904aeb1cbf849ccb03b","92030","NA","NA","0","arctic","","","","",""
"dual-task","null","null","null","","arctic","swim","NA","","T","null","NA","77","0","arctic-dual-task","","T","uppercase","104000","1","6","cc8c5c85b9987cf495e2f036c076e20486edc62f2baef904aeb1cbf849ccb03b","104000","NA","NA","0","arctic","","","","",""
"dual-task","null","null","null","","arctic","swim","NA","","f","null","NA","88","0","arctic-dual-task","","f","lowercase","112000","1","6","cc8c5c85b9987cf495e2f036c076e20486edc62f2baef904aeb1cbf849ccb03b","112008","NA","NA","0","arctic","","","","",""
"dual-task","null","null","null","","arctic","swim","NA","","r","null","NA","88","0","arctic-dual-task","","r","lowercase","120000","1","6","cc8c5c85b9987cf495e2f036c076e20486edc62f2baef904aeb1cbf849ccb03b","120010","NA","NA","0","arctic","","","","",""
"dual-task","null","null","null","","arctic","swim","NA","","G","null","NA","77","0","arctic-dual-task","","G","uppercase","130000","1","6","cc8c5c85b9987cf495e2f036c076e20486edc62f2baef904aeb1cbf849ccb03b","129998","NA","NA","0","arctic","","","","",""
"dual-task","null","null","null","","arctic","swim","NA","","T","null","NA","77","0","arctic-dual-task","","T","uppercase","136000","1","6","cc8c5c85b9987cf495e2f036c076e20486edc62f2baef904aeb1cbf849ccb03b","136015","NA","NA","0","arctic","","","","",""
"dual-task","null","null","null","","arctic","swim","NA","","B","null","NA","77","0","arctic-dual-task","","B","uppercase","144000","1","6","cc8c5c85b9987cf495e2f036c076e20486edc62f2baef904aeb1cbf849ccb03b","144015","NA","NA","0","arctic","","","","",""
"dual-task","null","null","null","","arctic","swim","NA","","h","null","NA","88","0","arctic-dual-task","","h","lowercase","158000","1","6","cc8c5c85b9987cf495e2f036c076e20486edc62f2baef904aeb1cbf849ccb03b","158013","NA","NA","0","arctic","","","","",""
"dual-task","null","null","null","","arctic","swim","NA","","N","null","NA","77","0","arctic-dual-task","","N","uppercase","168000","1","6","cc8c5c85b9987cf495e2f036c076e20486edc62f2baef904aeb1cbf849ccb03b","168009","NA","NA","0","arctic","","","","",""
"dual-task","null","null","null","","arctic","swim","NA","","g","null","NA","88","0","arctic-dual-task","","g","lowercase","178000","1","6","cc8c5c85b9987cf495e2f036c076e20486edc62f2baef904aeb1cbf849ccb03b","178010","NA","NA","0","arctic","","","","",""
"dual-task","null","null","null","","arctic","swim","NA","","g","null","NA","88","0","arctic-dual-task","","g","lowercase","188000","1","6","cc8c5c85b9987cf495e2f036c076e20486edc62f2baef904aeb1cbf849ccb03b","188000","NA","NA","0","arctic","","","","",""
"dual-task","null","null","null","","arctic","swim","NA","","H","null","NA","77","0","arctic-dual-task","","H","uppercase","202000","1","6","cc8c5c85b9987cf495e2f036c076e20486edc62f2baef904aeb1cbf849ccb03b","202011","NA","NA","0","arctic","","","","",""
"dual-task","null","null","null","","arctic","swim","NA","","H","null","NA","77","0","arctic-dual-task","","H","uppercase","214000","1","6","cc8c5c85b9987cf495e2f036c076e20486edc62f2baef904aeb1cbf849ccb03b","214004","NA","NA","0","arctic","","","","",""
"dual-task","null","null","null","","arctic","swim","NA","","b","null","NA","88","0","arctic-dual-task","","b","lowercase","220000","1","6","cc8c5c85b9987cf495e2f036c076e20486edc62f2baef904aeb1cbf849ccb03b","220003","NA","NA","0","arctic","","","","",""
"dual-task","null","null","null","","arctic","swim","NA","","e","null","NA","88","0","arctic-dual-task","","e","lowercase","232000","1","6","cc8c5c85b9987cf495e2f036c076e20486edc62f2baef904aeb1cbf849ccb03b","232009","NA","NA","0","arctic","","","","",""
"dual-task","null","null","null","","arctic","swim","NA","","R","null","NA","77","0","arctic-dual-task","","R","uppercase","240000","1","6","cc8c5c85b9987cf495e2f036c076e20486edc62f2baef904aeb1cbf849ccb03b","240004","NA","NA","0","arctic","","","","",""
"dual-task","null","null","null","","arctic","swim","NA","","d","null","NA","88","0","arctic-dual-task","","d","lowercase","248000","1","6","cc8c5c85b9987cf495e2f036c076e20486edc62f2baef904aeb1cbf849ccb03b","248005","NA","NA","0","arctic","","","","",""
"dual-task","null","null","null","","arctic","swim","NA","","q","null","NA","88","0","arctic-dual-task","","q","lowercase","258000","1","6","cc8c5c85b9987cf495e2f036c076e20486edc62f2baef904aeb1cbf849ccb03b","258015","NA","NA","0","arctic","","","","",""
"dual-task","null","null","null","","arctic","swim","NA","","T","null","NA","77","0","arctic-dual-task","","T","uppercase","270000","1","6","cc8c5c85b9987cf495e2f036c076e20486edc62f2baef904aeb1cbf849ccb03b","270004","NA","NA","0","arctic","","","","",""
"dual-task","null","null","null","","arctic","swim","NA","","b","null","NA","88","0","arctic-dual-task","","b","lowercase","282000","1","6","cc8c5c85b9987cf495e2f036c076e20486edc62f2baef904aeb1cbf849ccb03b","282004","NA","NA","0","arctic","","","","",""
"dual-task","null","null","null","","arctic","swim","NA","","n","null","NA","88","0","arctic-dual-task","","n","lowercase","292000","1","6","cc8c5c85b9987cf495e2f036c076e20486edc62f2baef904aeb1cbf849ccb03b","292055","NA","NA","0","arctic","","","","",""
"dual-task","null","null","null","","arctic","swim","NA","","h","null","NA","88","0","arctic-dual-task","","h","lowercase","300000","1","6","cc8c5c85b9987cf495e2f036c076e20486edc62f2baef904aeb1cbf849ccb03b","300007","NA","NA","0","arctic","","","","",""
"dual-task","null","null","null","","arctic","swim","NA","","F","null","NA","77","0","arctic-dual-task","","F","uppercase","306000","1","6","cc8c5c85b9987cf495e2f036c076e20486edc62f2baef904aeb1cbf849ccb03b","306014","NA","NA","0","arctic","","","","",""
"dual-task","null","null","null","","arctic","swim","NA","","Q","null","NA","77","0","arctic-dual-task","","Q","uppercase","312000","1","6","cc8c5c85b9987cf495e2f036c076e20486edc62f2baef904aeb1cbf849ccb03b","312009","NA","NA","0","arctic","","","","",""
"dual-task","null","null","null","","arctic","swim","NA","","e","null","NA","88","0","arctic-dual-task","","e","lowercase","318000","1","6","cc8c5c85b9987cf495e2f036c076e20486edc62f2baef904aeb1cbf849ccb03b","318076","NA","NA","0","arctic","","","","",""
"dual-task","null","null","null","","arctic","swim","NA","","n","null","NA","88","0","arctic-dual-task","","n","lowercase","332000","1","6","cc8c5c85b9987cf495e2f036c076e20486edc62f2baef904aeb1cbf849ccb03b","332006","NA","NA","0","arctic","","","","",""
"dual-task","null","null","null","","arctic","swim","NA","","Q","null","NA","77","0","arctic-dual-task","","Q","uppercase","344000","1","6","cc8c5c85b9987cf495e2f036c076e20486edc62f2baef904aeb1cbf849ccb03b","344010","NA","NA","0","arctic","","","","",""
"dual-task","null","null","null","","arctic","swim","NA","","N","null","NA","77","0","arctic-dual-task","","N","uppercase","350000","1","6","cc8c5c85b9987cf495e2f036c076e20486edc62f2baef904aeb1cbf849ccb03b","350006","NA","NA","0","arctic","","","","",""
"dual-task","null","null","null","","arctic","swim","NA","","Q","null","NA","77","0","arctic-dual-task","","Q","uppercase","356000","1","6","cc8c5c85b9987cf495e2f036c076e20486edc62f2baef904aeb1cbf849ccb03b","356003","NA","NA","0","arctic","","","","",""
"dual-task","null","null","null","","arctic","swim","NA","","T","null","NA","77","0","arctic-dual-task","","T","uppercase","368000","1","6","cc8c5c85b9987cf495e2f036c076e20486edc62f2baef904aeb1cbf849ccb03b","368019","NA","NA","0","arctic","","","","",""
"dual-task","null","null","null","","arctic","swim","NA","","t","null","NA","88","0","arctic-dual-task","","t","lowercase","378000","1","6","cc8c5c85b9987cf495e2f036c076e20486edc62f2baef904aeb1cbf849ccb03b","378002","NA","NA","0","arctic","","","","",""
"dual-task","null","null","null","","arctic","swim","NA","","D","null","NA","77","0","arctic-dual-task","","D","uppercase","390000","1","6","cc8c5c85b9987cf495e2f036c076e20486edc62f2baef904aeb1cbf849ccb03b","390009","NA","NA","0","arctic","","","","",""
"dual-task","null","null","null","","arctic","swim","NA","","N","null","NA","77","0","arctic-dual-task","","N","uppercase","402000","1","6","cc8c5c85b9987cf495e2f036c076e20486edc62f2baef904aeb1cbf849ccb03b","402004","NA","NA","0","arctic","","","","",""
"dual-task","null","null","null","","arctic","swim","NA","","R","null","NA","77","0","arctic-dual-task","","R","uppercase","408000","1","6","cc8c5c85b9987cf495e2f036c076e20486edc62f2baef904aeb1cbf849ccb03b","408016","NA","NA","0","arctic","","","","",""
"dual-task","null","null","null","","arctic","swim","NA","","g","null","NA","88","0","arctic-dual-task","","g","lowercase","414000","1","6","cc8c5c85b9987cf495e2f036c076e20486edc62f2baef904aeb1cbf849ccb03b","414021","NA","NA","0","arctic","","","","",""
"dual-task","null","null","null","","arctic","swim","NA","","a","null","NA","88","0","arctic-dual-task","","a","lowercase","428000","1","6","cc8c5c85b9987cf495e2f036c076e20486edc62f2baef904aeb1cbf849ccb03b","428003","NA","NA","0","arctic","","","","",""
"dual-task","null","null","null","","arctic","swim","NA","","B","null","NA","77","0","arctic-dual-task","","B","uppercase","442000","1","6","cc8c5c85b9987cf495e2f036c076e20486edc62f2baef904aeb1cbf849ccb03b","442003","NA","NA","0","arctic","","","","",""
"dual-task","null","null","null","","arctic","swim","NA","","f","null","NA","88","0","arctic-dual-task","","f","lowercase","448000","1","6","cc8c5c85b9987cf495e2f036c076e20486edc62f2baef904aeb1cbf849ccb03b","447999","NA","NA","0","arctic","","","","",""
"dual-task","null","null","null","","arctic","swim","NA","","e","null","NA","88","0","arctic-dual-task","","e","lowercase","458000","1","6","cc8c5c85b9987cf495e2f036c076e20486edc62f2baef904aeb1cbf849ccb03b","458011","NA","NA","0","arctic","","","","",""
"dual-task","null","null","null","","arctic","swim","NA","","d","null","NA","88","0","arctic-dual-task","","d","lowercase","468000","1","6","cc8c5c85b9987cf495e2f036c076e20486edc62f2baef904aeb1cbf849ccb03b","468009","NA","NA","0","arctic","","","","",""
"dual-task","null","null","null","","arctic","swim","NA","","A","null","NA","77","0","arctic-dual-task","","A","uppercase","476000","1","6","cc8c5c85b9987cf495e2f036c076e20486edc62f2baef904aeb1cbf849ccb03b","476009","NA","NA","0","arctic","","","","",""
"dual-task","null","null","null","","arctic","swim","NA","","F","null","NA","77","0","arctic-dual-task","","F","uppercase","486000","1","6","cc8c5c85b9987cf495e2f036c076e20486edc62f2baef904aeb1cbf849ccb03b","486006","NA","NA","0","arctic","","","","",""
"dual-task","null","null","null","","arctic","swim","NA","","t","null","NA","88","0","arctic-dual-task","","t","lowercase","496000","1","6","cc8c5c85b9987cf495e2f036c076e20486edc62f2baef904aeb1cbf849ccb03b","496009","NA","NA","0","arctic","","","","",""
"dual-task","null","null","null","","arctic","swim","NA","","H","null","NA","77","0","arctic-dual-task","","H","uppercase","506000","1","6","cc8c5c85b9987cf495e2f036c076e20486edc62f2baef904aeb1cbf849ccb03b","506010","NA","NA","0","arctic","","","","",""
"dual-task","null","null","null","","arctic","swim","NA","","a","null","NA","88","0","arctic-dual-task","","a","lowercase","516000","1","6","cc8c5c85b9987cf495e2f036c076e20486edc62f2baef904aeb1cbf849ccb03b","516013","NA","NA","0","arctic","","","","",""
"dual-task","null","null","null","","arctic","swim","NA","","D","null","NA","77","0","arctic-dual-task","","D","uppercase","524000","1","6","cc8c5c85b9987cf495e2f036c076e20486edc62f2baef904aeb1cbf849ccb03b","524024","NA","NA","0","arctic","","","","",""
"dual-task","null","null","null","","arctic","swim","NA","","R","null","NA","77","0","arctic-dual-task","","R","uppercase","532000","1","6","cc8c5c85b9987cf495e2f036c076e20486edc62f2baef904aeb1cbf849ccb03b","532013","NA","NA","0","arctic","","","","",""
"dual-task","null","null","null","","arctic","swim","NA","","q","null","NA","88","0","arctic-dual-task","","q","lowercase","540000","1","6","cc8c5c85b9987cf495e2f036c076e20486edc62f2baef904aeb1cbf849ccb03b","540001","NA","NA","0","arctic","","","","",""
"dual-task","null","null","null","","arctic","swim","NA","","F","null","NA","77","0","arctic-dual-task","","F","uppercase","548000","1","6","cc8c5c85b9987cf495e2f036c076e20486edc62f2baef904aeb1cbf849ccb03b","548012","NA","NA","0","arctic","","","","",""
"dual-task","null","null","null","","arctic","swim","NA","","E","null","NA","77","0","arctic-dual-task","","E","uppercase","558000","1","6","cc8c5c85b9987cf495e2f036c076e20486edc62f2baef904aeb1cbf849ccb03b","558003","NA","NA","0","arctic","","","","",""
"dual-task","null","null","null","","arctic","swim","NA","","R","null","NA","77","0","arctic-dual-task","","R","uppercase","566000","1","6","cc8c5c85b9987cf495e2f036c076e20486edc62f2baef904aeb1cbf849ccb03b","566006","NA","NA","0","arctic","","","","",""
"dual-task","null","null","null","","arctic","swim","NA","","D","null","NA","77","0","arctic-dual-task","","D","uppercase","574000","1","6","cc8c5c85b9987cf495e2f036c076e20486edc62f2baef904aeb1cbf849ccb03b","574000","NA","NA","0","arctic","","","","",""
"dual-task","null","null","null","","arctic","swim","NA","","t","null","NA","88","0","arctic-dual-task","","t","lowercase","582000","1","6","cc8c5c85b9987cf495e2f036c076e20486edc62f2baef904aeb1cbf849ccb03b","582001","NA","NA","0","arctic","","","","",""
"dual-task","null","null","null","","arctic","swim","NA","","F","null","NA","77","0","arctic-dual-task","","F","uppercase","588000","1","6","cc8c5c85b9987cf495e2f036c076e20486edc62f2baef904aeb1cbf849ccb03b","588011","NA","NA","0","arctic","","","","",""
"dual-task","null","null","null","","arctic","swim","NA","","A","null","NA","77","0","arctic-dual-task","","A","uppercase","596000","1","6","cc8c5c85b9987cf495e2f036c076e20486edc62f2baef904aeb1cbf849ccb03b","595999","NA","NA","0","arctic","","","","",""
"dual-task","null","null","null","","arctic","swim","NA","","q","null","NA","88","0","arctic-dual-task","","q","lowercase","606000","1","6","cc8c5c85b9987cf495e2f036c076e20486edc62f2baef904aeb1cbf849ccb03b","605999","NA","NA","0","arctic","","","","",""
"dual-task","null","null","null","","arctic","swim","NA","","b","null","NA","88","0","arctic-dual-task","","b","lowercase","616000","1","6","cc8c5c85b9987cf495e2f036c076e20486edc62f2baef904aeb1cbf849ccb03b","616009","NA","NA","0","arctic","","","","",""
"dual-task","null","null","null","","arctic","swim","NA","","t","null","NA","88","0","arctic-dual-task","","t","lowercase","626000","1","6","cc8c5c85b9987cf495e2f036c076e20486edc62f2baef904aeb1cbf849ccb03b","626009","NA","NA","0","arctic","","","","",""
"dual-task","null","null","null","","arctic","swim","NA","","r","null","NA","88","0","arctic-dual-task","","r","lowercase","634000","1","6","cc8c5c85b9987cf495e2f036c076e20486edc62f2baef904aeb1cbf849ccb03b","634009","NA","NA","0","arctic","","","","",""
"dual-task","null","null","null","","arctic","swim","NA","","E","null","NA","77","0","arctic-dual-task","","E","uppercase","640000","1","6","cc8c5c85b9987cf495e2f036c076e20486edc62f2baef904aeb1cbf849ccb03b","640000","NA","NA","0","arctic","","","","",""
"dual-task","null","null","null","","arctic","swim","NA","","H","null","NA","77","0","arctic-dual-task","","H","uppercase","648000","1","6","cc8c5c85b9987cf495e2f036c076e20486edc62f2baef904aeb1cbf849ccb03b","648001","NA","NA","0","arctic","","","","",""
"dual-task","null","null","null","","arctic","swim","NA","","a","null","NA","88","0","arctic-dual-task","","a","lowercase","660000","1","6","cc8c5c85b9987cf495e2f036c076e20486edc62f2baef904aeb1cbf849ccb03b","660056","NA","NA","0","arctic","","","","",""
"dual-task","null","null","null","","arctic","swim","NA","","e","null","NA","88","0","arctic-dual-task","","e","lowercase","668000","1","6","cc8c5c85b9987cf495e2f036c076e20486edc62f2baef904aeb1cbf849ccb03b","667999","NA","NA","0","arctic","","","","",""
"dual-task","null","null","null","","arctic","swim","NA","","r","null","NA","88","0","arctic-dual-task","","r","lowercase","676000","1","6","cc8c5c85b9987cf495e2f036c076e20486edc62f2baef904aeb1cbf849ccb03b","676006","NA","NA","0","arctic","","","","",""
"dual-task","null","null","null","","arctic","swim","NA","","Q","null","NA","77","0","arctic-dual-task","","Q","uppercase","686000","1","6","cc8c5c85b9987cf495e2f036c076e20486edc62f2baef904aeb1cbf849ccb03b","686001","NA","NA","0","arctic","","","","",""
"dual-task","null","null","null","","arctic","swim","NA","","q","null","NA","88","0","arctic-dual-task","","q","lowercase","692000","1","6","cc8c5c85b9987cf495e2f036c076e20486edc62f2baef904aeb1cbf849ccb03b","692013","NA","NA","0","arctic","","","","",""
"dual-task","null","null","null","","arctic","swim","NA","","G","null","NA","77","0","arctic-dual-task","","G","uppercase","702000","1","6","cc8c5c85b9987cf495e2f036c076e20486edc62f2baef904aeb1cbf849ccb03b","702010","NA","NA","0","arctic","","","","",""
"dual-task","null","null","null","","arctic","swim","NA","","n","null","NA","88","0","arctic-dual-task","","n","lowercase","710000","1","6","cc8c5c85b9987cf495e2f036c076e20486edc62f2baef904aeb1cbf849ccb03b","710005","NA","NA","0","arctic","","","","",""
"dual-task","null","null","null","","arctic","swim","NA","","f","null","NA","88","0","arctic-dual-task","","f","lowercase","716000","1","6","cc8c5c85b9987cf495e2f036c076e20486edc62f2baef904aeb1cbf849ccb03b","716014","NA","NA","0","arctic","","","","",""
"dual-task","null","null","null","","arctic","swim","NA","","E","null","NA","77","0","arctic-dual-task","","E","uppercase","724000","1","6","cc8c5c85b9987cf495e2f036c076e20486edc62f2baef904aeb1cbf849ccb03b","724049","NA","NA","0","arctic","","","","",""
"dual-task","null","null","null","","arctic","swim","NA","","r","null","NA","88","0","arctic-dual-task","","r","lowercase","732000","1","6","cc8c5c85b9987cf495e2f036c076e20486edc62f2baef904aeb1cbf849ccb03b","732012","NA","NA","0","arctic","","","","",""
"dual-task","null","null","null","","arctic","swim","NA","","d","null","NA","88","0","arctic-dual-task","","d","lowercase","740000","1","6","cc8c5c85b9987cf495e2f036c076e20486edc62f2baef904aeb1cbf849ccb03b","740011","NA","NA","0","arctic","","","","",""
"dual-task","null","null","null","","arctic","swim","NA","","g","null","NA","88","0","arctic-dual-task","","g","lowercase","748000","1","6","cc8c5c85b9987cf495e2f036c076e20486edc62f2baef904aeb1cbf849ccb03b","748029","NA","NA","0","arctic","","","","",""
"dual-task","null","null","null","","arctic","swim","NA","","E","null","NA","77","0","arctic-dual-task","","E","uppercase","760000","1","6","cc8c5c85b9987cf495e2f036c076e20486edc62f2baef904aeb1cbf849ccb03b","760012","NA","NA","0","arctic","","","","",""
"dual-task","null","null","null","","arctic","swim","NA","","f","null","NA","88","0","arctic-dual-task","","f","lowercase","770000","1","6","cc8c5c85b9987cf495e2f036c076e20486edc62f2baef904aeb1cbf849ccb03b","770004","NA","NA","0","arctic","","","","",""
"dual-task","null","null","null","","arctic","swim","NA","","A","null","NA","77","0","arctic-dual-task","","A","uppercase","776000","1","6","cc8c5c85b9987cf495e2f036c076e20486edc62f2baef904aeb1cbf849ccb03b","776014","NA","NA","0","arctic","","","","",""
"dual-task","null","null","null","","arctic","swim","NA","","N","null","NA","77","0","arctic-dual-task","","N","uppercase","790000","1","6","cc8c5c85b9987cf495e2f036c076e20486edc62f2baef904aeb1cbf849ccb03b","790002","NA","NA","0","arctic","","","","",""
"audio-keyboard-response","29","968090","0.0-6.0-0.0-1.0","cc8c5c85b9987cf495e2f036c076e20486edc62f2baef904aeb1cbf849ccb03b","arctic","swim","null","","audio/story_arctic.mp3","","null","","","","","","","","","","","","","","","","","","","",""
"html-button-response","30","973222","0.0-6.0-0.0-2.0","cc8c5c85b9987cf495e2f036c076e20486edc62f2baef904aeb1cbf849ccb03b","arctic","swim","5131","","<p>This concludes the story. Thank you for listening.</p><p>You will now answer some questions about the content of the story.</p>","0","","","","","","","","","","","","","","","","","","","","",""
"survey-multi-choice","31","986675","0.0-6.0-0.0-3.0-0.0","cc8c5c85b9987cf495e2f036c076e20486edc62f2baef904aeb1cbf849ccb03b","arctic","swim","13436","","<b>What is the name of the narrator&#39;s neighbour?</b>","","","","0","arctic-comprehension","","","","","","","","","","","","","{""Q0"":""Doug""}","","","",""
"survey-multi-choice","32","990854","0.0-6.0-0.0-3.0-0.1","cc8c5c85b9987cf495e2f036c076e20486edc62f2baef904aeb1cbf849ccb03b","arctic","swim","3910","","<b>What did the narrator do for leisure while in her tent?</b>","","","","0","arctic-comprehension","","","","","","","","","","","","","{""Q0"":""Paint""}","","","",""
"survey-multi-choice","33","1000522","0.0-6.0-0.0-3.0-0.2","cc8c5c85b9987cf495e2f036c076e20486edc62f2baef904aeb1cbf849ccb03b","arctic","swim","9388","","<b>How many sponsorships did the narrator receive to support her expedition?</b>","","","","0","arctic-comprehension","","","","","","","","","","","","","{""Q0"":""Fifty""}","","","",""
"survey-multi-choice","34","1005210","0.0-6.0-0.0-3.0-0.3","cc8c5c85b9987cf495e2f036c076e20486edc62f2baef904aeb1cbf849ccb03b","arctic","swim","4428","","<b>Which dog on the narrator&#39;s dog team never followed instructions?</b>","","","","0","arctic-comprehension","","","","","","","","","","","","","{""Q0"":""Douggie-dog""}","","","",""
"survey-multi-choice","35","1008802","0.0-6.0-0.0-3.0-0.4","cc8c5c85b9987cf495e2f036c076e20486edc62f2baef904aeb1cbf849ccb03b","arctic","swim","3296","","<b>How did the narrator prepare for her expedition?</b>","","","","0","arctic-comprehension","","","","","","","","","","","","","{""Q0"":""Exercised several hours each day""}","","","",""
"survey-multi-choice","36","1011829","0.0-6.0-0.0-3.0-0.5","cc8c5c85b9987cf495e2f036c076e20486edc62f2baef904aeb1cbf849ccb03b","arctic","swim","2724","","<b>How did the narrator&#39;s encounter with the polar bears end?</b>","","","","0","arctic-comprehension","","","","","","","","","","","","","{""Q0"":""The bear killed one of her dogs.""}","","","",""
"survey-multi-choice","37","1015007","0.0-6.0-0.0-3.0-0.6","cc8c5c85b9987cf495e2f036c076e20486edc62f2baef904aeb1cbf849ccb03b","arctic","swim","2923","","<b>What were the weather conditions in the Arctic like the winter of the narrator&#39;s expedition?</b>","","","","0","arctic-comprehension","","","","","","","","","","","","","{""Q0"":""It was the warmest winter in recorded history.""}","","","",""
"survey-multi-choice","38","1018078","0.0-6.0-0.0-3.0-0.7","cc8c5c85b9987cf495e2f036c076e20486edc62f2baef904aeb1cbf849ccb03b","arctic","swim","2812","","<b>How did the dogs respond when they saw the bears?</b>","","","","0","arctic-comprehension","","","","","","","","","","","","","{""Q0"":""Ran away in shock""}","","","",""
"survey-multi-choice","39","1022000","0.0-6.0-0.0-3.0-0.8","cc8c5c85b9987cf495e2f036c076e20486edc62f2baef904aeb1cbf849ccb03b","arctic","swim","3669","","<b>How did the narrator&#39;s neighbour respond when she told him about her expedition?</b>","","","","1","arctic-comprehension","","","","","","","","","","","","","{""Q0"":""He said she was going to fail.""}","","","",""
"survey-multi-choice","40","1025223","0.0-6.0-0.0-3.0-0.9","cc8c5c85b9987cf495e2f036c076e20486edc62f2baef904aeb1cbf849ccb03b","arctic","swim","2959","","<b>What was the objective of the narrator&#39;s expedition?</b>","","","","0","arctic-comprehension","","","","","","","","","","","","","{""Q0"":""Climb Mount Kanchenjunga""}","","","",""
"html-button-response","41","1027549","0.0-6.0-0.0-4.0","cc8c5c85b9987cf495e2f036c076e20486edc62f2baef904aeb1cbf849ccb03b","arctic","swim","2071","","<p>Thank you for your responses.</p><p>You will now answer some questions about your impressions of the story.</p>","0","","","","","","","","","","","","","","","","","","","","",""
"html-button-response","42","1029869","0.0-6.0-0.0-5.0-0.0","cc8c5c85b9987cf495e2f036c076e20486edc62f2baef904aeb1cbf849ccb03b","arctic","swim","2314","","A5","4","","","","arctic-engagement","","","","","","","","","","","","","","5","absorption","",""
"html-button-response","43","1032258","0.0-6.0-0.0-5.0-0.1","cc8c5c85b9987cf495e2f036c076e20486edc62f2baef904aeb1cbf849ccb03b","arctic","swim","2131","","EE2","5","","","","arctic-engagement","","","","","","","","","","","","","","6","emo-engage","",""
"html-button-response","44","1033985","0.0-6.0-0.0-5.0-0.2","cc8c5c85b9987cf495e2f036c076e20486edc62f2baef904aeb1cbf849ccb03b","arctic","swim","1476","","E8","6","","","","arctic-engagement","","","","","","","","","","","","","","7","enjoyment","",""
"html-button-response","45","1035883","0.0-6.0-0.0-5.0-0.3","cc8c5c85b9987cf495e2f036c076e20486edc62f2baef904aeb1cbf849ccb03b","arctic","swim","1645","","EE1","4","","","","arctic-engagement","","","","","","","","","","","","","","5","emo-engage","",""
"html-button-response","46","1037105","0.0-6.0-0.0-5.0-0.4","cc8c5c85b9987cf495e2f036c076e20486edc62f2baef904aeb1cbf849ccb03b","arctic","swim","970","","EE5","5","","","","arctic-engagement","","","","","","","","","","","","","","6","emo-engage","",""
"html-button-response","47","1038237","0.0-6.0-0.0-5.0-0.5","cc8c5c85b9987cf495e2f036c076e20486edc62f2baef904aeb1cbf849ccb03b","arctic","swim","863","","E6","5","","","","arctic-engagement","","","","","","","","","","","","","","6","enjoyment","",""
"html-button-response","48","1039468","0.0-6.0-0.0-5.0-0.6","cc8c5c85b9987cf495e2f036c076e20486edc62f2baef904aeb1cbf849ccb03b","arctic","swim","967","","A4","3","","","","arctic-engagement","","","","","","","","","","","","","","4","absorption","",""
"html-button-response","49","1041034","0.0-6.0-0.0-5.0-0.7","cc8c5c85b9987cf495e2f036c076e20486edc62f2baef904aeb1cbf849ccb03b","arctic","swim","1312","","MS3","6","","","","arctic-engagement","","","","","","","","","","","","","","7","mental-sim","",""
"html-button-response","50","1042518","0.0-6.0-0.0-5.0-0.8","cc8c5c85b9987cf495e2f036c076e20486edc62f2baef904aeb1cbf849ccb03b","arctic","swim","1200","","E10","4","","","","arctic-engagement","","","","","","","","","","","","","","5","enjoyment","",""
"html-button-response","51","1043831","0.0-6.0-0.0-5.0-0.9","cc8c5c85b9987cf495e2f036c076e20486edc62f2baef904aeb1cbf849ccb03b","arctic","swim","1053","","EE4","5","","","","arctic-engagement","","","","","","","","","","","","","","6","emo-engage","",""
"html-button-response","52","1045238","0.0-6.0-0.0-5.0-0.10","cc8c5c85b9987cf495e2f036c076e20486edc62f2baef904aeb1cbf849ccb03b","arctic","swim","1155","","MS2","6","","","","arctic-engagement","","","","","","","","","","","","","","7","mental-sim","",""
"html-button-response","53","1046715","0.0-6.0-0.0-5.0-0.11","cc8c5c85b9987cf495e2f036c076e20486edc62f2baef904aeb1cbf849ccb03b","arctic","swim","1227","","A2","3","","","","arctic-engagement","","","","","","","","","","","","","","4","absorption","",""
"html-button-response","54","1047996","0.0-6.0-0.0-5.0-0.12","cc8c5c85b9987cf495e2f036c076e20486edc62f2baef904aeb1cbf849ccb03b","arctic","swim","1017","","E7","4","","","","arctic-engagement","","","","","","","","","","","","","","5","enjoyment","",""
"html-button-response","55","1049168","0.0-6.0-0.0-5.0-0.13","cc8c5c85b9987cf495e2f036c076e20486edc62f2baef904aeb1cbf849ccb03b","arctic","swim","912","","A3","4","","","","arctic-engagement","","","","","","","","","","","","","","5","absorption","",""
"html-button-response","56","1050388","0.0-6.0-0.0-5.0-0.14","cc8c5c85b9987cf495e2f036c076e20486edc62f2baef904aeb1cbf849ccb03b","arctic","swim","964","","EE3","5","","","","arctic-engagement","","","","","","","","","","","","","","6","emo-engage","",""
"html-button-response","57","1051994","0.0-6.0-0.0-5.0-0.15","cc8c5c85b9987cf495e2f036c076e20486edc62f2baef904aeb1cbf849ccb03b","arctic","swim","1330","","MS1","3","","","","arctic-engagement","","","","","","","","","","","","","","4","mental-sim","",""
"html-button-response","58","1053515","0.0-6.0-0.0-5.0-0.16","cc8c5c85b9987cf495e2f036c076e20486edc62f2baef904aeb1cbf849ccb03b","arctic","swim","1241","","E1","6","","","","arctic-engagement","","","","","","","","","","","","","","7","enjoyment","",""
"html-button-response","59","1055132","0.0-6.0-0.0-5.0-0.17","cc8c5c85b9987cf495e2f036c076e20486edc62f2baef904aeb1cbf849ccb03b","arctic","swim","1363","","A1","6","","","","arctic-engagement","","","","","","","","","","","","","","7","absorption","",""
"html-keyboard-response","60","1064224","0.0-6.0-1.0","cc8c5c85b9987cf495e2f036c076e20486edc62f2baef904aeb1cbf849ccb03b","arctic","swim","8841","","<p>Thank you for your responses. You will now listen to the second story.</p><p>Remember, as you listen to the story you will see letters appear on the screen.</br>As quickly as possible, press <b>&lt;x&gt;</b> if the letter is lowercase and <b>&lt;m&gt;</b> if the letter is uppercase.</p><p>Press <b>&lt;x&gt;</b> or <b>&lt;m&gt;</b> to begin listening!</p>","","88","","","","","","","","","","","","","","","","","","","",""
"html-keyboard-response","61","1064759","0.0-6.0-2.0-0.0","cc8c5c85b9987cf495e2f036c076e20486edc62f2baef904aeb1cbf849ccb03b","arctic","swim","null","","<div style=""font-size:60px;"" tabindex=""0"">+</div>","","null","","","","","","","","","","","","","","","","","","","",""
"dual-task","null","null","null","","arctic","swim","NA","","N","null","NA","77","0","swim-dual-task","","N","uppercase","18000","1","6","cc8c5c85b9987cf495e2f036c076e20486edc62f2baef904aeb1cbf849ccb03b","18038","NA","NA","0","swim","","","","",""
"dual-task","null","null","null","","arctic","swim","NA","","G","null","NA","77","0","swim-dual-task","","G","uppercase","30000","1","6","cc8c5c85b9987cf495e2f036c076e20486edc62f2baef904aeb1cbf849ccb03b","30027","NA","NA","0","swim","","","","",""
"dual-task","null","null","null","","arctic","swim","NA","","a","null","NA","88","0","swim-dual-task","","a","lowercase","40000","1","6","cc8c5c85b9987cf495e2f036c076e20486edc62f2baef904aeb1cbf849ccb03b","40010","NA","NA","0","swim","","","","",""
"dual-task","null","null","null","","arctic","swim","NA","","Q","null","NA","77","0","swim-dual-task","","Q","uppercase","54000","1","6","cc8c5c85b9987cf495e2f036c076e20486edc62f2baef904aeb1cbf849ccb03b","54033","NA","NA","0","swim","","","","",""
"dual-task","null","null","null","","arctic","swim","NA","","q","null","NA","88","0","swim-dual-task","","q","lowercase","62000","1","6","cc8c5c85b9987cf495e2f036c076e20486edc62f2baef904aeb1cbf849ccb03b","62013","NA","NA","0","swim","","","","",""
"dual-task","null","null","null","","arctic","swim","NA","","g","null","NA","88","0","swim-dual-task","","g","lowercase","76000","1","6","cc8c5c85b9987cf495e2f036c076e20486edc62f2baef904aeb1cbf849ccb03b","76013","NA","NA","0","swim","","","","",""
"dual-task","null","null","null","","arctic","swim","NA","","n","null","NA","88","0","swim-dual-task","","n","lowercase","86000","1","6","cc8c5c85b9987cf495e2f036c076e20486edc62f2baef904aeb1cbf849ccb03b","86006","NA","NA","0","swim","","","","",""
"dual-task","null","null","null","","arctic","swim","NA","","H","null","NA","77","0","swim-dual-task","","H","uppercase","100000","1","6","cc8c5c85b9987cf495e2f036c076e20486edc62f2baef904aeb1cbf849ccb03b","100016","NA","NA","0","swim","","","","",""
"dual-task","null","null","null","","arctic","swim","NA","","t","null","NA","88","0","swim-dual-task","","t","lowercase","106000","1","6","cc8c5c85b9987cf495e2f036c076e20486edc62f2baef904aeb1cbf849ccb03b","106052","NA","NA","0","swim","","","","",""
"dual-task","null","null","null","","arctic","swim","NA","","a","null","NA","88","0","swim-dual-task","","a","lowercase","114000","1","6","cc8c5c85b9987cf495e2f036c076e20486edc62f2baef904aeb1cbf849ccb03b","114016","NA","NA","0","swim","","","","",""
"dual-task","null","null","null","","arctic","swim","NA","","e","null","NA","88","0","swim-dual-task","","e","lowercase","128000","1","6","cc8c5c85b9987cf495e2f036c076e20486edc62f2baef904aeb1cbf849ccb03b","128005","NA","NA","0","swim","","","","",""
"dual-task","null","null","null","","arctic","swim","NA","","e","null","NA","88","0","swim-dual-task","","e","lowercase","140000","1","6","cc8c5c85b9987cf495e2f036c076e20486edc62f2baef904aeb1cbf849ccb03b","140010","NA","NA","0","swim","","","","",""
"dual-task","null","null","null","","arctic","swim","NA","","a","null","NA","88","0","swim-dual-task","","a","lowercase","152000","1","6","cc8c5c85b9987cf495e2f036c076e20486edc62f2baef904aeb1cbf849ccb03b","152013","NA","NA","0","swim","","","","",""
"dual-task","null","null","null","","arctic","swim","NA","","H","null","NA","77","0","swim-dual-task","","H","uppercase","164000","1","6","cc8c5c85b9987cf495e2f036c076e20486edc62f2baef904aeb1cbf849ccb03b","164004","NA","NA","0","swim","","","","",""
"dual-task","null","null","null","","arctic","swim","NA","","b","null","NA","88","0","swim-dual-task","","b","lowercase","172000","1","6","cc8c5c85b9987cf495e2f036c076e20486edc62f2baef904aeb1cbf849ccb03b","172005","NA","NA","0","swim","","","","",""
"dual-task","null","null","null","","arctic","swim","NA","","F","null","NA","77","0","swim-dual-task","","F","uppercase","184000","1","6","cc8c5c85b9987cf495e2f036c076e20486edc62f2baef904aeb1cbf849ccb03b","184003","NA","NA","0","swim","","","","",""
"dual-task","null","null","null","","arctic","swim","NA","","N","null","NA","77","0","swim-dual-task","","N","uppercase","194000","1","6","cc8c5c85b9987cf495e2f036c076e20486edc62f2baef904aeb1cbf849ccb03b","194014","NA","NA","0","swim","","","","",""
"dual-task","null","null","null","","arctic","swim","NA","","D","null","NA","77","0","swim-dual-task","","D","uppercase","206000","1","6","cc8c5c85b9987cf495e2f036c076e20486edc62f2baef904aeb1cbf849ccb03b","206011","NA","NA","0","swim","","","","",""
"dual-task","null","null","null","","arctic","swim","NA","","F","null","NA","77","0","swim-dual-task","","F","uppercase","220000","1","6","cc8c5c85b9987cf495e2f036c076e20486edc62f2baef904aeb1cbf849ccb03b","220003","NA","NA","0","swim","","","","",""
"dual-task","null","null","null","","arctic","swim","NA","","T","null","NA","77","0","swim-dual-task","","T","uppercase","232000","1","6","cc8c5c85b9987cf495e2f036c076e20486edc62f2baef904aeb1cbf849ccb03b","232007","NA","NA","0","swim","","","","",""
"dual-task","null","null","null","","arctic","swim","NA","","N","null","NA","77","0","swim-dual-task","","N","uppercase","242000","1","6","cc8c5c85b9987cf495e2f036c076e20486edc62f2baef904aeb1cbf849ccb03b","242011","NA","NA","0","swim","","","","",""
"dual-task","null","null","null","","arctic","swim","NA","","T","null","NA","77","0","swim-dual-task","","T","uppercase","256000","1","6","cc8c5c85b9987cf495e2f036c076e20486edc62f2baef904aeb1cbf849ccb03b","256009","NA","NA","0","swim","","","","",""
"dual-task","null","null","null","","arctic","swim","NA","","r","null","NA","88","0","swim-dual-task","","r","lowercase","262000","1","6","cc8c5c85b9987cf495e2f036c076e20486edc62f2baef904aeb1cbf849ccb03b","262013","NA","NA","0","swim","","","","",""
"dual-task","null","null","null","","arctic","swim","NA","","d","null","NA","88","0","swim-dual-task","","d","lowercase","272000","1","6","cc8c5c85b9987cf495e2f036c076e20486edc62f2baef904aeb1cbf849ccb03b","272028","NA","NA","0","swim","","","","",""
"dual-task","null","null","null","","arctic","swim","NA","","D","null","NA","77","0","swim-dual-task","","D","uppercase","280000","1","6","cc8c5c85b9987cf495e2f036c076e20486edc62f2baef904aeb1cbf849ccb03b","280008","NA","NA","0","swim","","","","",""
"dual-task","null","null","null","","arctic","swim","NA","","f","null","NA","88","0","swim-dual-task","","f","lowercase","288000","1","6","cc8c5c85b9987cf495e2f036c076e20486edc62f2baef904aeb1cbf849ccb03b","288010","NA","NA","0","swim","","","","",""
"dual-task","null","null","null","","arctic","swim","NA","","e","null","NA","88","0","swim-dual-task","","e","lowercase","300000","1","6","cc8c5c85b9987cf495e2f036c076e20486edc62f2baef904aeb1cbf849ccb03b","300011","NA","NA","0","swim","","","","",""
"dual-task","null","null","null","","arctic","swim","NA","","E","null","NA","77","0","swim-dual-task","","E","uppercase","308000","1","6","cc8c5c85b9987cf495e2f036c076e20486edc62f2baef904aeb1cbf849ccb03b","308023","NA","NA","0","swim","","","","",""
"dual-task","null","null","null","","arctic","swim","NA","","B","null","NA","77","0","swim-dual-task","","B","uppercase","314000","1","6","cc8c5c85b9987cf495e2f036c076e20486edc62f2baef904aeb1cbf849ccb03b","314005","NA","NA","0","swim","","","","",""
"dual-task","null","null","null","","arctic","swim","NA","","r","null","NA","88","0","swim-dual-task","","r","lowercase","324000","1","6","cc8c5c85b9987cf495e2f036c076e20486edc62f2baef904aeb1cbf849ccb03b","324014","NA","NA","0","swim","","","","",""
"dual-task","null","null","null","","arctic","swim","NA","","a","null","NA","88","0","swim-dual-task","","a","lowercase","334000","1","6","cc8c5c85b9987cf495e2f036c076e20486edc62f2baef904aeb1cbf849ccb03b","334007","NA","NA","0","swim","","","","",""
"dual-task","null","null","null","","arctic","swim","NA","","B","null","NA","77","0","swim-dual-task","","B","uppercase","342000","1","6","cc8c5c85b9987cf495e2f036c076e20486edc62f2baef904aeb1cbf849ccb03b","342005","NA","NA","0","swim","","","","",""
"dual-task","null","null","null","","arctic","swim","NA","","r","null","NA","88","0","swim-dual-task","","r","lowercase","350000","1","6","cc8c5c85b9987cf495e2f036c076e20486edc62f2baef904aeb1cbf849ccb03b","350019","NA","NA","0","swim","","","","",""
"dual-task","null","null","null","","arctic","swim","NA","","f","null","NA","88","0","swim-dual-task","","f","lowercase","358000","1","6","cc8c5c85b9987cf495e2f036c076e20486edc62f2baef904aeb1cbf849ccb03b","358016","NA","NA","0","swim","","","","",""
"dual-task","null","null","null","","arctic","swim","NA","","E","null","NA","77","0","swim-dual-task","","E","uppercase","368000","1","6","cc8c5c85b9987cf495e2f036c076e20486edc62f2baef904aeb1cbf849ccb03b","368007","NA","NA","0","swim","","","","",""
"dual-task","null","null","null","","arctic","swim","NA","","b","null","NA","88","0","swim-dual-task","","b","lowercase","376000","1","6","cc8c5c85b9987cf495e2f036c076e20486edc62f2baef904aeb1cbf849ccb03b","376006","NA","NA","0","swim","","","","",""
"dual-task","null","null","null","","arctic","swim","NA","","t","null","NA","88","0","swim-dual-task","","t","lowercase","386000","1","6","cc8c5c85b9987cf495e2f036c076e20486edc62f2baef904aeb1cbf849ccb03b","386005","NA","NA","0","swim","","","","",""
"dual-task","null","null","null","","arctic","swim","NA","","T","null","NA","77","0","swim-dual-task","","T","uppercase","396000","1","6","cc8c5c85b9987cf495e2f036c076e20486edc62f2baef904aeb1cbf849ccb03b","396001","NA","NA","0","swim","","","","",""
"dual-task","null","null","null","","arctic","swim","NA","","n","null","NA","88","0","swim-dual-task","","n","lowercase","402000","1","6","cc8c5c85b9987cf495e2f036c076e20486edc62f2baef904aeb1cbf849ccb03b","402015","NA","NA","0","swim","","","","",""
"dual-task","null","null","null","","arctic","swim","NA","","r","null","NA","88","0","swim-dual-task","","r","lowercase","414000","1","6","cc8c5c85b9987cf495e2f036c076e20486edc62f2baef904aeb1cbf849ccb03b","414046","NA","NA","0","swim","","","","",""
"dual-task","null","null","null","","arctic","swim","NA","","g","null","NA","88","0","swim-dual-task","","g","lowercase","426000","1","6","cc8c5c85b9987cf495e2f036c076e20486edc62f2baef904aeb1cbf849ccb03b","426005","NA","NA","0","swim","","","","",""
"dual-task","null","null","null","","arctic","swim","NA","","T","null","NA","77","0","swim-dual-task","","T","uppercase","434000","1","6","cc8c5c85b9987cf495e2f036c076e20486edc62f2baef904aeb1cbf849ccb03b","434024","NA","NA","0","swim","","","","",""
"dual-task","null","null","null","","arctic","swim","NA","","g","null","NA","88","0","swim-dual-task","","g","lowercase","446000","1","6","cc8c5c85b9987cf495e2f036c076e20486edc62f2baef904aeb1cbf849ccb03b","446005","NA","NA","0","swim","","","","",""
"dual-task","null","null","null","","arctic","swim","NA","","G","null","NA","77","0","swim-dual-task","","G","uppercase","452000","1","6","cc8c5c85b9987cf495e2f036c076e20486edc62f2baef904aeb1cbf849ccb03b","452008","NA","NA","0","swim","","","","",""
"dual-task","null","null","null","","arctic","swim","NA","","n","null","NA","88","0","swim-dual-task","","n","lowercase","462000","1","6","cc8c5c85b9987cf495e2f036c076e20486edc62f2baef904aeb1cbf849ccb03b","462006","NA","NA","0","swim","","","","",""
"dual-task","null","null","null","","arctic","swim","NA","","e","null","NA","88","0","swim-dual-task","","e","lowercase","468000","1","6","cc8c5c85b9987cf495e2f036c076e20486edc62f2baef904aeb1cbf849ccb03b","468033","NA","NA","0","swim","","","","",""
"dual-task","null","null","null","","arctic","swim","NA","","A","null","NA","77","0","swim-dual-task","","A","uppercase","480000","1","6","cc8c5c85b9987cf495e2f036c076e20486edc62f2baef904aeb1cbf849ccb03b","480007","NA","NA","0","swim","","","","",""
"dual-task","null","null","null","","arctic","swim","NA","","G","null","NA","77","0","swim-dual-task","","G","uppercase","488000","1","6","cc8c5c85b9987cf495e2f036c076e20486edc62f2baef904aeb1cbf849ccb03b","488015","NA","NA","0","swim","","","","",""
"dual-task","null","null","null","","arctic","swim","NA","","d","null","NA","88","0","swim-dual-task","","d","lowercase","496000","1","6","cc8c5c85b9987cf495e2f036c076e20486edc62f2baef904aeb1cbf849ccb03b","496032","NA","NA","0","swim","","","","",""
"dual-task","null","null","null","","arctic","swim","NA","","R","null","NA","77","0","swim-dual-task","","R","uppercase","504000","1","6","cc8c5c85b9987cf495e2f036c076e20486edc62f2baef904aeb1cbf849ccb03b","504012","NA","NA","0","swim","","","","",""
"dual-task","null","null","null","","arctic","swim","NA","","Q","null","NA","77","0","swim-dual-task","","Q","uppercase","514000","1","6","cc8c5c85b9987cf495e2f036c076e20486edc62f2baef904aeb1cbf849ccb03b","514113","NA","NA","0","swim","","","","",""
"dual-task","null","null","null","","arctic","swim","NA","","H","null","NA","77","0","swim-dual-task","","H","uppercase","526000","1","6","cc8c5c85b9987cf495e2f036c076e20486edc62f2baef904aeb1cbf849ccb03b","526015","NA","NA","0","swim","","","","",""
"dual-task","null","null","null","","arctic","swim","NA","","q","null","NA","88","0","swim-dual-task","","q","lowercase","534000","1","6","cc8c5c85b9987cf495e2f036c076e20486edc62f2baef904aeb1cbf849ccb03b","534006","NA","NA","0","swim","","","","",""
"dual-task","null","null","null","","arctic","swim","NA","","t","null","NA","88","0","swim-dual-task","","t","lowercase","546000","1","6","cc8c5c85b9987cf495e2f036c076e20486edc62f2baef904aeb1cbf849ccb03b","546011","NA","NA","0","swim","","","","",""
"dual-task","null","null","null","","arctic","swim","NA","","F","null","NA","77","0","swim-dual-task","","F","uppercase","558000","1","6","cc8c5c85b9987cf495e2f036c076e20486edc62f2baef904aeb1cbf849ccb03b","558011","NA","NA","0","swim","","","","",""
"dual-task","null","null","null","","arctic","swim","NA","","q","null","NA","88","0","swim-dual-task","","q","lowercase","570000","1","6","cc8c5c85b9987cf495e2f036c076e20486edc62f2baef904aeb1cbf849ccb03b","570007","NA","NA","0","swim","","","","",""
"dual-task","null","null","null","","arctic","swim","NA","","g","null","NA","88","0","swim-dual-task","","g","lowercase","582000","1","6","cc8c5c85b9987cf495e2f036c076e20486edc62f2baef904aeb1cbf849ccb03b","582091","NA","NA","0","swim","","","","",""
"dual-task","null","null","null","","arctic","swim","NA","","h","null","NA","88","0","swim-dual-task","","h","lowercase","594000","1","6","cc8c5c85b9987cf495e2f036c076e20486edc62f2baef904aeb1cbf849ccb03b","594015","NA","NA","0","swim","","","","",""
"dual-task","null","null","null","","arctic","swim","NA","","R","null","NA","77","0","swim-dual-task","","R","uppercase","602000","1","6","cc8c5c85b9987cf495e2f036c076e20486edc62f2baef904aeb1cbf849ccb03b","602012","NA","NA","0","swim","","","","",""
"dual-task","null","null","null","","arctic","swim","NA","","E","null","NA","77","0","swim-dual-task","","E","uppercase","616000","1","6","cc8c5c85b9987cf495e2f036c076e20486edc62f2baef904aeb1cbf849ccb03b","616001","NA","NA","0","swim","","","","",""
"dual-task","null","null","null","","arctic","swim","NA","","N","null","NA","77","0","swim-dual-task","","N","uppercase","622000","1","6","cc8c5c85b9987cf495e2f036c076e20486edc62f2baef904aeb1cbf849ccb03b","622008","NA","NA","0","swim","","","","",""
"dual-task","null","null","null","","arctic","swim","NA","","d","null","NA","88","0","swim-dual-task","","d","lowercase","636000","1","6","cc8c5c85b9987cf495e2f036c076e20486edc62f2baef904aeb1cbf849ccb03b","636040","NA","NA","0","swim","","","","",""
"dual-task","null","null","null","","arctic","swim","NA","","Q","null","NA","77","0","swim-dual-task","","Q","uppercase","644000","1","6","cc8c5c85b9987cf495e2f036c076e20486edc62f2baef904aeb1cbf849ccb03b","644030","NA","NA","0","swim","","","","",""
"dual-task","null","null","null","","arctic","swim","NA","","d","null","NA","88","0","swim-dual-task","","d","lowercase","654000","1","6","cc8c5c85b9987cf495e2f036c076e20486edc62f2baef904aeb1cbf849ccb03b","654017","NA","NA","0","swim","","","","",""
"dual-task","null","null","null","","arctic","swim","NA","","E","null","NA","77","0","swim-dual-task","","E","uppercase","668000","1","6","cc8c5c85b9987cf495e2f036c076e20486edc62f2baef904aeb1cbf849ccb03b","668011","NA","NA","0","swim","","","","",""
"dual-task","null","null","null","","arctic","swim","NA","","f","null","NA","88","0","swim-dual-task","","f","lowercase","676000","1","6","cc8c5c85b9987cf495e2f036c076e20486edc62f2baef904aeb1cbf849ccb03b","676046","NA","NA","0","swim","","","","",""
"dual-task","null","null","null","","arctic","swim","NA","","G","null","NA","77","0","swim-dual-task","","G","uppercase","686000","1","6","cc8c5c85b9987cf495e2f036c076e20486edc62f2baef904aeb1cbf849ccb03b","686015","NA","NA","0","swim","","","","",""
"dual-task","null","null","null","","arctic","swim","NA","","R","null","NA","77","0","swim-dual-task","","R","uppercase","698000","1","6","cc8c5c85b9987cf495e2f036c076e20486edc62f2baef904aeb1cbf849ccb03b","698021","NA","NA","0","swim","","","","",""
"dual-task","null","null","null","","arctic","swim","NA","","f","null","NA","88","0","swim-dual-task","","f","lowercase","708000","1","6","cc8c5c85b9987cf495e2f036c076e20486edc62f2baef904aeb1cbf849ccb03b","708009","NA","NA","0","swim","","","","",""
"dual-task","null","null","null","","arctic","swim","NA","","D","null","NA","77","0","swim-dual-task","","D","uppercase","720000","1","6","cc8c5c85b9987cf495e2f036c076e20486edc62f2baef904aeb1cbf849ccb03b","720023","NA","NA","0","swim","","","","",""
"dual-task","null","null","null","","arctic","swim","NA","","H","null","NA","77","0","swim-dual-task","","H","uppercase","728000","1","6","cc8c5c85b9987cf495e2f036c076e20486edc62f2baef904aeb1cbf849ccb03b","728011","NA","NA","0","swim","","","","",""
"dual-task","null","null","null","","arctic","swim","NA","","b","null","NA","88","0","swim-dual-task","","b","lowercase","740000","1","6","cc8c5c85b9987cf495e2f036c076e20486edc62f2baef904aeb1cbf849ccb03b","740014","NA","NA","0","swim","","","","",""
"dual-task","null","null","null","","arctic","swim","NA","","b","null","NA","88","0","swim-dual-task","","b","lowercase","754000","1","6","cc8c5c85b9987cf495e2f036c076e20486edc62f2baef904aeb1cbf849ccb03b","754001","NA","NA","0","swim","","","","",""
"dual-task","null","null","null","","arctic","swim","NA","","D","null","NA","77","0","swim-dual-task","","D","uppercase","762000","1","6","cc8c5c85b9987cf495e2f036c076e20486edc62f2baef904aeb1cbf849ccb03b","762054","NA","NA","0","swim","","","","",""
"dual-task","null","null","null","","arctic","swim","NA","","h","null","NA","88","0","swim-dual-task","","h","lowercase","770000","1","6","cc8c5c85b9987cf495e2f036c076e20486edc62f2baef904aeb1cbf849ccb03b","770013","NA","NA","0","swim","","","","",""
"dual-task","null","null","null","","arctic","swim","NA","","h","null","NA","88","0","swim-dual-task","","h","lowercase","778000","1","6","cc8c5c85b9987cf495e2f036c076e20486edc62f2baef904aeb1cbf849ccb03b","778017","NA","NA","0","swim","","","","",""
"dual-task","null","null","null","","arctic","swim","NA","","n","null","NA","88","0","swim-dual-task","","n","lowercase","786000","1","6","cc8c5c85b9987cf495e2f036c076e20486edc62f2baef904aeb1cbf849ccb03b","786001","NA","NA","0","swim","","","","",""
"dual-task","null","null","null","","arctic","swim","NA","","Q","null","NA","77","0","swim-dual-task","","Q","uppercase","800000","1","6","cc8c5c85b9987cf495e2f036c076e20486edc62f2baef904aeb1cbf849ccb03b","800013","NA","NA","0","swim","","","","",""
"audio-keyboard-response","62","1883737","0.0-6.0-2.0-1.0","cc8c5c85b9987cf495e2f036c076e20486edc62f2baef904aeb1cbf849ccb03b","arctic","swim","null","","audio/story_swim_scrambled.mp3","","null","","","","","","","","","","","","","","","","","","","",""
"html-button-response","63","1918109","0.0-6.0-2.0-2.0","cc8c5c85b9987cf495e2f036c076e20486edc62f2baef904aeb1cbf849ccb03b","arctic","swim","34350","","<p>This concludes the story. Thank you for listening.</p><p>You will now answer some questions about the content of the story.</p>","0","","","","","","","","","","","","","","","","","","","","",""
"survey-multi-choice","64","1921962","0.0-6.0-2.0-3.0-0.0","cc8c5c85b9987cf495e2f036c076e20486edc62f2baef904aeb1cbf849ccb03b","arctic","swim","3853","","<b>Where is the home of naval aviation?</b>","","","","0","swim-comprehension","","","","","","","","","","","","","{""Q0"":""Dallas""}","","","",""
"survey-multi-choice","65","1925973","0.0-6.0-2.0-3.0-0.1","cc8c5c85b9987cf495e2f036c076e20486edc62f2baef904aeb1cbf849ccb03b","arctic","swim","3747","","<b>How many times did the astronaut candidates have to complete the final exercise to pass?</b>","","","","1","swim-comprehension","","","","","","","","","","","","","{""Q0"":""Two""}","","","",""
"survey-multi-choice","66","1929545","0.0-6.0-2.0-3.0-0.2","cc8c5c85b9987cf495e2f036c076e20486edc62f2baef904aeb1cbf849ccb03b","arctic","swim","3291","","<b>What is the narrator afraid of, aside from the water?</b>","","","","0","swim-comprehension","","","","","","","","","","","","","{""Q0"":""Dogs""}","","","",""
"survey-multi-choice","67","1933984","0.0-6.0-2.0-3.0-0.3","cc8c5c85b9987cf495e2f036c076e20486edc62f2baef904aeb1cbf849ccb03b","arctic","swim","4145","","<b>What was the final step of the first swim test in the pool?</b>","","","","0","swim-comprehension","","","","","","","","","","","","","{""Q0"":""Perform a water rescue""}","","","",""
"survey-multi-choice","68","1937089","0.0-6.0-2.0-3.0-0.4","cc8c5c85b9987cf495e2f036c076e20486edc62f2baef904aeb1cbf849ccb03b","arctic","swim","2795","","<b>What gave the narrator his greatest feeling of accomplishment?</b>","","","","0","swim-comprehension","","","","","","","","","","","","","{""Q0"":""Completing his PhD at MIT""}","","","",""
"survey-multi-choice","69","1940347","0.0-6.0-2.0-3.0-0.5","cc8c5c85b9987cf495e2f036c076e20486edc62f2baef904aeb1cbf849ccb03b","arctic","swim","3004","","<b>How many astronaut candidates passed the first swim test?</b>","","","","0","swim-comprehension","","","","","","","","","","","","","{""Q0"":""Two""}","","","",""
"survey-multi-choice","70","1943650","0.0-6.0-2.0-3.0-0.6","cc8c5c85b9987cf495e2f036c076e20486edc62f2baef904aeb1cbf849ccb03b","arctic","swim","2998","","<b>How often does the narrator swim, now that he is a good swimmer?</b>","","","","0","swim-comprehension","","","","","","","","","","","","","{""Q0"":""Every weekend with his kids""}","","","",""
"survey-multi-choice","71","1948504","0.0-6.0-2.0-3.0-0.7","cc8c5c85b9987cf495e2f036c076e20486edc62f2baef904aeb1cbf849ccb03b","arctic","swim","4578","","<b>What were the astronaut candidates trained to do at the naval air station?</b>","","","","0","swim-comprehension","","","","","","","","","","","","","{""Q0"":""Withstand the g-force of a rocket launch""}","","","",""
"survey-multi-choice","72","1950860","0.0-6.0-2.0-3.0-0.8","cc8c5c85b9987cf495e2f036c076e20486edc62f2baef904aeb1cbf849ccb03b","arctic","swim","2091","","<b>How did the narrator train for his swim test?</b>","","","","0","swim-comprehension","","","","","","","","","","","","","{""Q0"":""Practiced martial arts""}","","","",""
"survey-multi-choice","73","1957105","0.0-6.0-2.0-3.0-0.9","cc8c5c85b9987cf495e2f036c076e20486edc62f2baef904aeb1cbf849ccb03b","arctic","swim","5984","","<b>How many astronaut candidates reported for duty at the Johnson Space Center?</b>","","","","0","swim-comprehension","","","","","","","","","","","","","{""Q0"":""One hundred""}","","","",""
"html-button-response","74","1959239","0.0-6.0-2.0-4.0","cc8c5c85b9987cf495e2f036c076e20486edc62f2baef904aeb1cbf849ccb03b","arctic","swim","1882","","<p>Thank you for your responses.</p><p>You will now answer some questions about your impressions of the story.</p>","0","","","","","","","","","","","","","","","","","","","","",""
"html-button-response","75","1961084","0.0-6.0-2.0-5.0-0.0","cc8c5c85b9987cf495e2f036c076e20486edc62f2baef904aeb1cbf849ccb03b","arctic","swim","1826","","E10","3","","","","swim-engagement","","","","","","","","","","","","","","4","enjoyment","",""
"html-button-response","76","1963177","0.0-6.0-2.0-5.0-0.1","cc8c5c85b9987cf495e2f036c076e20486edc62f2baef904aeb1cbf849ccb03b","arctic","swim","1829","","EE2","4","","","","swim-engagement","","","","","","","","","","","","","","5","emo-engage","",""
"html-button-response","77","1964353","0.0-6.0-2.0-5.0-0.2","cc8c5c85b9987cf495e2f036c076e20486edc62f2baef904aeb1cbf849ccb03b","arctic","swim","920","","A2","6","","","","swim-engagement","","","","","","","","","","","","","","7","absorption","",""
"html-button-response","78","1965375","0.0-6.0-2.0-5.0-0.3","cc8c5c85b9987cf495e2f036c076e20486edc62f2baef904aeb1cbf849ccb03b","arctic","swim","762","","MS2","6","","","","swim-engagement","","","","","","","","","","","","","","7","mental-sim","",""
"html-button-response","79","1966750","0.0-6.0-2.0-5.0-0.4","cc8c5c85b9987cf495e2f036c076e20486edc62f2baef904aeb1cbf849ccb03b","arctic","swim","1120","","EE4","3","","","","swim-engagement","","","","","","","","","","","","","","4","emo-engage","",""
"html-button-response","80","1967954","0.0-6.0-2.0-5.0-0.5","cc8c5c85b9987cf495e2f036c076e20486edc62f2baef904aeb1cbf849ccb03b","arctic","swim","949","","E1","4","","","","swim-engagement","","","","","","","","","","","","","","5","enjoyment","",""
"html-button-response","81","1969889","0.0-6.0-2.0-5.0-0.6","cc8c5c85b9987cf495e2f036c076e20486edc62f2baef904aeb1cbf849ccb03b","arctic","swim","1681","","EE5","2","","","","swim-engagement","","","","","","","","","","","","","","3","emo-engage","",""
"html-button-response","82","1971699","0.0-6.0-2.0-5.0-0.7","cc8c5c85b9987cf495e2f036c076e20486edc62f2baef904aeb1cbf849ccb03b","arctic","swim","1515","","A3","5","","","","swim-engagement","","","","","","","","","","","","","","6","absorption","",""
"html-button-response","83","1972925","0.0-6.0-2.0-5.0-0.8","cc8c5c85b9987cf495e2f036c076e20486edc62f2baef904aeb1cbf849ccb03b","arctic","swim","947","","MS3","4","","","","swim-engagement","","","","","","","","","","","","","","5","mental-sim","",""
"html-button-response","84","1975125","0.0-6.0-2.0-5.0-0.9","cc8c5c85b9987cf495e2f036c076e20486edc62f2baef904aeb1cbf849ccb03b","arctic","swim","1946","","EE1","5","","","","swim-engagement","","","","","","","","","","","","","","6","emo-engage","",""
"html-button-response","85","1976309","0.0-6.0-2.0-5.0-0.10","cc8c5c85b9987cf495e2f036c076e20486edc62f2baef904aeb1cbf849ccb03b","arctic","swim","928","","EE3","6","","","","swim-engagement","","","","","","","","","","","","","","7","emo-engage","",""
"html-button-response","86","1977552","0.0-6.0-2.0-5.0-0.11","cc8c5c85b9987cf495e2f036c076e20486edc62f2baef904aeb1cbf849ccb03b","arctic","swim","989","","E6","3","","","","swim-engagement","","","","","","","","","","","","","","4","enjoyment","",""
"html-button-response","87","1978756","0.0-6.0-2.0-5.0-0.12","cc8c5c85b9987cf495e2f036c076e20486edc62f2baef904aeb1cbf849ccb03b","arctic","swim","948","","A5","4","","","","swim-engagement","","","","","","","","","","","","","","5","absorption","",""
"html-button-response","88","1980098","0.0-6.0-2.0-5.0-0.13","cc8c5c85b9987cf495e2f036c076e20486edc62f2baef904aeb1cbf849ccb03b","arctic","swim","1083","","A4","2","","","","swim-engagement","","","","","","","","","","","","","","3","absorption","",""
"html-button-response","89","1981264","0.0-6.0-2.0-5.0-0.14","cc8c5c85b9987cf495e2f036c076e20486edc62f2baef904aeb1cbf849ccb03b","arctic","swim","915","","E8","2","","","","swim-engagement","","","","","","","","","","","","","","3","enjoyment","",""
"html-button-response","90","1982515","0.0-6.0-2.0-5.0-0.15","cc8c5c85b9987cf495e2f036c076e20486edc62f2baef904aeb1cbf849ccb03b","arctic","swim","995","","A1","5","","","","swim-engagement","","","","","","","","","","","","","","6","absorption","",""
"html-button-response","91","1983696","0.0-6.0-2.0-5.0-0.16","cc8c5c85b9987cf495e2f036c076e20486edc62f2baef904aeb1cbf849ccb03b","arctic","swim","926","","E7","4","","","","swim-engagement","","","","","","","","","","","","","","5","enjoyment","",""
"html-button-response","92","1984848","0.0-6.0-2.0-5.0-0.17","cc8c5c85b9987cf495e2f036c076e20486edc62f2baef904aeb1cbf849ccb03b","arctic","swim","873","","MS1","4","","","","swim-engagement","","","","","","","","","","","","","","5","mental-sim","",""
"html-button-response","93","1986750","0.0-8.0","cc8c5c85b9987cf495e2f036c076e20486edc62f2baef904aeb1cbf849ccb03b","arctic","swim","1645","","<p>Thank you for your responses.</p><p>You will now answer some demographic, hearing, and general health questions.</p>","0","","","","","","","","","","","","","","","","","","","","",""
"survey-multi-choice","94","1996480","0.0-9.0-0.0","cc8c5c85b9987cf495e2f036c076e20486edc62f2baef904aeb1cbf849ccb03b","arctic","swim","9724","","","","","","","survey","","","","","","","","","","","","","{""Q0"":""Chrome""}","","","browser",""
"survey-text","95","2001819","0.0-9.0-1.0","cc8c5c85b9987cf495e2f036c076e20486edc62f2baef904aeb1cbf849ccb03b","arctic","swim","5082","","","","","","","survey","","","","","","","","","","","","","{""AGE"":""23""}","","","age","23"
"survey-multi-choice","96","2005192","0.0-9.0-2.0","cc8c5c85b9987cf495e2f036c076e20486edc62f2baef904aeb1cbf849ccb03b","arctic","swim","3079","","","","","","","survey","","","","","","","","","","","","","{""Q0"":""Female""}","","","gender","Female"
"survey-multi-choice","97","2009382","0.0-9.0-4.0","cc8c5c85b9987cf495e2f036c076e20486edc62f2baef904aeb1cbf849ccb03b","arctic","swim","3938","","","","","","","survey","","","","","","","","","","","","","{""Q0"":""Right""}","","","handedness","Right"
"survey-multi-choice","98","2012789","0.0-9.0-5.0","cc8c5c85b9987cf495e2f036c076e20486edc62f2baef904aeb1cbf849ccb03b","arctic","swim","3111","","","","","","","survey","","","","","","","","","","","","","{""Q0"":""Bachelor's Degree""}","","","education","Bachelor's Degree"
"survey-text","99","2020760","0.0-10.0-0.0","cc8c5c85b9987cf495e2f036c076e20486edc62f2baef904aeb1cbf849ccb03b","arctic","swim","7695","","","","","","","survey","","","","","","","","","","","","","{""L1"":""English""}","","","first-language","English"
"survey-text","100","2039489","0.0-10.0-1.0","cc8c5c85b9987cf495e2f036c076e20486edc62f2baef904aeb1cbf849ccb03b","arctic","swim","18448","","","","","","","survey","","","","","","","","","","","","","{""L2name"":""English"",""L2fluency"":""1"",""L3name"":"""",""L3fluency"":"""",""L4name"":"""",""L4fluency"":""""}","","","additional-languages","{""L2name"":""English"",""L2fluency"":""1"",""L3name"":"""",""L3fluency"":"""",""L4name"":"""",""L4fluency"":""""}"
"survey-multi-choice","101","2045432","0.0-10.0-2.0","cc8c5c85b9987cf495e2f036c076e20486edc62f2baef904aeb1cbf849ccb03b","arctic","swim","5684","","","","","","","survey","","","","","","","","","","","","","{""Q0"":""Both Ears""}","","","hearing-aid","Both Ears"
"survey-multi-choice","102","2049070","0.0-10.0-3.0","cc8c5c85b9987cf495e2f036c076e20486edc62f2baef904aeb1cbf849ccb03b","arctic","swim","3371","","","","","","","survey","","","","","","","","","","","","","{""Q0"":""Always""}","","","ringing-ears","Always"
"survey-multi-choice","103","2053777","0.0-10.0-4.0-0.0","cc8c5c85b9987cf495e2f036c076e20486edc62f2baef904aeb1cbf849ccb03b","arctic","swim","4452","","","","","","","survey","","","","","","","","","","","","","{""Q0"":""Left Ear""}","","","ringing-ear-loc","Left Ear"
"survey-multi-choice","104","2057203","0.0-10.0-5.0","cc8c5c85b9987cf495e2f036c076e20486edc62f2baef904aeb1cbf849ccb03b","arctic","swim","3174","","","","","","","survey","","","","","","","","","","","","","{""Q0"":""No""}","","","neuro-disease","No"
"survey-multi-choice","105","2060340","0.0-10.0-7.0","cc8c5c85b9987cf495e2f036c076e20486edc62f2baef904aeb1cbf849ccb03b","arctic","swim","2887","","","","","","","survey","","","","","","","","","","","","","{""Q0"":""No""}","","","take-meds","No"
"survey-text","106","2070044","0.0-10.0-9.0","cc8c5c85b9987cf495e2f036c076e20486edc62f2baef904aeb1cbf849ccb03b","arctic","swim","9368","","","","","","","survey","","","","","","","","","","","","","{""HC"":""Nothing.""}","","","health-concerns","Nothing."
"html-button-response","107","2072675","0.0-11.0-0.0","cc8c5c85b9987cf495e2f036c076e20486edc62f2baef904aeb1cbf849ccb03b","arctic","swim","2378","","<p>How would you describe your musical skills/experiences?</p>","4","","","","survey","","","","","","","","","","","","","","","","music-skill","5"
"survey-multi-choice","108","2077814","0.0-11.0-1.0","cc8c5c85b9987cf495e2f036c076e20486edc62f2baef904aeb1cbf849ccb03b","arctic","swim","4883","","","","","","","survey","","","","","","","","","","","","","{""Q0"":""No""}","","","music-instrument","No"
"html-button-response","109","2080025","0.0-12.0-0.0","cc8c5c85b9987cf495e2f036c076e20486edc62f2baef904aeb1cbf849ccb03b","arctic","swim","1959","","<p>How would you describe your general hearing abilities?</p>","5","","","","survey","","","","","","","","","","","","","","","","ssq-01","6"
"html-button-response","110","2081709","0.0-12.0-1.0","cc8c5c85b9987cf495e2f036c076e20486edc62f2baef904aeb1cbf849ccb03b","arctic","swim","1421","","<p>When you talk with someone at a place that strongly reverberates/echoes (e.g., in a church or train station),</br>can you understand what the person says?</p>","6","","","","survey","","","","","","","","","","","","","","","","ssq-02","6"
"html-button-response","111","2083192","0.0-12.0-2.0","cc8c5c85b9987cf495e2f036c076e20486edc62f2baef904aeb1cbf849ccb03b","arctic","swim","1211","","<p>When you are with a group (~5 people) in a lively restaurant, can you follow the group's conversation?</p>","7","","","","survey","","","","","","","","","","","","","","","","ssq-03","7"
"html-button-response","112","2084508","0.0-12.0-3.0","cc8c5c85b9987cf495e2f036c076e20486edc62f2baef904aeb1cbf849ccb03b","arctic","swim","1053","","<p>Based on the sound of a bus or truck, can you tell whether it is moving towards or away from you?</p>","8","","","","survey","","","","","","","","","","","","","","","","ssq-04","8"
"html-button-response","113","2085614","0.0-12.0-4.0","cc8c5c85b9987cf495e2f036c076e20486edc62f2baef904aeb1cbf849ccb03b","arctic","swim","844","","<p>When you are in an unknown environment, can you tell from which direction a brief sound originates?</p>","8","","","","survey","","","","","","","","","","","","","","","","ssq-05","8"
"html-button-response","114","2086817","0.0-12.0-5.0","cc8c5c85b9987cf495e2f036c076e20486edc62f2baef904aeb1cbf849ccb03b","arctic","swim","939","","<p>Are you able to ignore distracting sounds when you concentrate on a specific aspect of your acoustic surrounding?</p>","8","","","","survey","","","","","","","","","","","","","","","","ssq-06","8"
"fullscreen","115","2088077","0.0-13.0","cc8c5c85b9987cf495e2f036c076e20486edc62f2baef904aeb1cbf849ccb03b","arctic","swim","","","","","","","","","true","","","","","","","","","","","","","","","",""
