"trial_type","trial_index","time_elapsed","internal_node_id","ParticipantID","firstStory","scramStory","rt","url","stimulus","button_pressed","key_press","correctRESP","correct","designation","success","letterStim","letterType","ONSET","TIMEOUT","CONDITION","Participant","ONSET_ACTUAL","RT","RESP","ACC","STORY","responses","response","type","surveyQuestion","QRESP"
"pavlovia","0","6","0.0-0.0","5994e3732ac4863c9ab654c90c03f95b19ecbb542a28485580c2a6122385c433","swim","arctic","","","","","","","","","","","","","","","","","","","","","","","","",""
"external-html","1","7718","0.0-1.0","5994e3732ac4863c9ab654c90c03f95b19ecbb542a28485580c2a6122385c433","swim","arctic","7384","consent/consent_updated.html","","","","","","","","","","","","","","","","","","","","","","",""
"html-button-response","2","8907","0.0-2.0-0.0","5994e3732ac4863c9ab654c90c03f95b19ecbb542a28485580c2a6122385c433","swim","arctic","1187","","<p>Before we begin the main task, you will complete a short volume calibration and headphone check.</p><p>Please make sure you are in a quiet listening environment, that you are wearing headphones, and that your computer's volume is turned on.<p></p>","0","","","","","","","","","","","","","","","","","","","","",""
"html-button-response","3","15395","0.0-2.0-1.0","5994e3732ac4863c9ab654c90c03f95b19ecbb542a28485580c2a6122385c433","swim","arctic","6213","","<p>The volume calibration will be first.</p><p>You will hear a thirty-second noise. Please adjust your computer's volume so that this noise is being presented at a comfortable level.<p></p>","0","","","","","","","","","","","","","","","","","","","","",""
"audio-button-response","4","17663","0.0-2.0-2.0","5994e3732ac4863c9ab654c90c03f95b19ecbb542a28485580c2a6122385c433","swim","arctic","1998","","audio/volumetest.mp3","0","","","","","","","","","","","","","","","","","","","","",""
"html-keyboard-response","5","21773","0.0-3.0-0.0","5994e3732ac4863c9ab654c90c03f95b19ecbb542a28485580c2a6122385c433","swim","arctic","4109","","<p>You will now complete a short headphone check.</p><p>On each trial, you will hear three tones. One of these tones will be quieter than the others. Your task is to identify whether the quiet tone occurred first, second, or third.</p><p>There are six trials in total.<p></p><p></p>(Press SPACEBAR to begin)","","32","","","","","","","","","","","","","","","","","","","",""
"html-keyboard-response","6","22527","0.0-3.0-1.0-0.0","5994e3732ac4863c9ab654c90c03f95b19ecbb542a28485580c2a6122385c433","swim","arctic","null","","<div style=""font-size:60px;"">+</div>","","null","","","","","","","","","","","","","","","","","","","",""
"audio-button-response","7","29424","0.0-3.0-1.0-1.0","5994e3732ac4863c9ab654c90c03f95b19ecbb542a28485580c2a6122385c433","swim","arctic","6895","","audio/t2_1.mp3","1","","1","1","headphone-test","","","","","","","","","","","","","","","","",""
"html-keyboard-response","8","29939","0.0-3.0-1.0-2.0","5994e3732ac4863c9ab654c90c03f95b19ecbb542a28485580c2a6122385c433","swim","arctic","null","","<p>Correct</p>","","null","","","","","","","","","","","","","","","","","","","",""
"html-keyboard-response","9","30459","0.0-3.0-1.0-0.1","5994e3732ac4863c9ab654c90c03f95b19ecbb542a28485580c2a6122385c433","swim","arctic","null","","<div style=""font-size:60px;"">+</div>","","null","","","","","","","","","","","","","","","","","","","",""
"audio-button-response","10","34653","0.0-3.0-1.0-1.1","5994e3732ac4863c9ab654c90c03f95b19ecbb542a28485580c2a6122385c433","swim","arctic","4192","","audio/t2_2.mp3","2","","1","0","headphone-test","","","","","","","","","","","","","","","","",""
"html-keyboard-response","11","35163","0.0-3.0-1.0-2.1","5994e3732ac4863c9ab654c90c03f95b19ecbb542a28485580c2a6122385c433","swim","arctic","null","","<p>Incorrect</p>","","null","","","","","","","","","","","","","","","","","","","",""
"html-keyboard-response","12","35668","0.0-3.0-1.0-0.2","5994e3732ac4863c9ab654c90c03f95b19ecbb542a28485580c2a6122385c433","swim","arctic","null","","<div style=""font-size:60px;"">+</div>","","null","","","","","","","","","","","","","","","","","","","",""
"audio-button-response","13","40169","0.0-3.0-1.0-1.2","5994e3732ac4863c9ab654c90c03f95b19ecbb542a28485580c2a6122385c433","swim","arctic","4499","","audio/t1_1.mp3","1","","0","0","headphone-test","","","","","","","","","","","","","","","","",""
"html-keyboard-response","14","40672","0.0-3.0-1.0-2.2","5994e3732ac4863c9ab654c90c03f95b19ecbb542a28485580c2a6122385c433","swim","arctic","null","","<p>Incorrect</p>","","null","","","","","","","","","","","","","","","","","","","",""
"html-keyboard-response","15","41189","0.0-3.0-1.0-0.3","5994e3732ac4863c9ab654c90c03f95b19ecbb542a28485580c2a6122385c433","swim","arctic","null","","<div style=""font-size:60px;"">+</div>","","null","","","","","","","","","","","","","","","","","","","",""
"audio-button-response","16","45702","0.0-3.0-1.0-1.3","5994e3732ac4863c9ab654c90c03f95b19ecbb542a28485580c2a6122385c433","swim","arctic","4509","","audio/t3_1.mp3","2","","2","1","headphone-test","","","","","","","","","","","","","","","","",""
"html-keyboard-response","17","46213","0.0-3.0-1.0-2.3","5994e3732ac4863c9ab654c90c03f95b19ecbb542a28485580c2a6122385c433","swim","arctic","null","","<p>Correct</p>","","null","","","","","","","","","","","","","","","","","","","",""
"html-keyboard-response","18","46728","0.0-3.0-1.0-0.4","5994e3732ac4863c9ab654c90c03f95b19ecbb542a28485580c2a6122385c433","swim","arctic","null","","<div style=""font-size:60px;"">+</div>","","null","","","","","","","","","","","","","","","","","","","",""
"audio-button-response","19","51184","0.0-3.0-1.0-1.4","5994e3732ac4863c9ab654c90c03f95b19ecbb542a28485580c2a6122385c433","swim","arctic","4454","","audio/t1_2.mp3","0","","0","1","headphone-test","","","","","","","","","","","","","","","","",""
"html-keyboard-response","20","51688","0.0-3.0-1.0-2.4","5994e3732ac4863c9ab654c90c03f95b19ecbb542a28485580c2a6122385c433","swim","arctic","null","","<p>Correct</p>","","null","","","","","","","","","","","","","","","","","","","",""
"html-keyboard-response","21","52200","0.0-3.0-1.0-0.5","5994e3732ac4863c9ab654c90c03f95b19ecbb542a28485580c2a6122385c433","swim","arctic","null","","<div style=""font-size:60px;"">+</div>","","null","","","","","","","","","","","","","","","","","","","",""
"audio-button-response","22","56515","0.0-3.0-1.0-1.5","5994e3732ac4863c9ab654c90c03f95b19ecbb542a28485580c2a6122385c433","swim","arctic","4312","","audio/t3_2.mp3","2","","2","1","headphone-test","","","","","","","","","","","","","","","","",""
"html-keyboard-response","23","57029","0.0-3.0-1.0-2.5","5994e3732ac4863c9ab654c90c03f95b19ecbb542a28485580c2a6122385c433","swim","arctic","null","","<p>Correct</p>","","null","","","","","","","","","","","","","","","","","","","",""
"fullscreen","24","60389","0.0-4.0","5994e3732ac4863c9ab654c90c03f95b19ecbb542a28485580c2a6122385c433","swim","arctic","","","","","","","","","true","","","","","","","","","","","","","","","",""
"html-button-response","25","72657","0.0-5.0-0.0","5994e3732ac4863c9ab654c90c03f95b19ecbb542a28485580c2a6122385c433","swim","arctic","12267","","<p>There are two blocks to this experiment.</p><p>In each block, you will hear a ~13.5 minute story. One of the stories will be scrambled. Please listen carefully to both stories and understand them as best you can.</p><p>After each story, you will be asked some questions to assess your comprehension.</p>","0","","","","","","","","","","","","","","","","","","","","",""
"html-button-response","26","101653","0.0-5.0-1.0","5994e3732ac4863c9ab654c90c03f95b19ecbb542a28485580c2a6122385c433","swim","arctic","28994","","<p>During each story, there will be an additional task.</p><p>A letter will occasionally appear on the screen.</br>Your job is to - as quickly as you can - decide whether the letter is lowercase or uppercase and press one of two keys on the keyboard:</p><p>If the letter is <b>lowercase</b>, press key &lt;<b>x</b>&gt;.</p><p>If the letter is <b>uppercase</b>, press key &lt;<b>m</b>&gt;.</p>","0","","","","","","","","","","","","","","","","","","","","",""
"html-keyboard-response","27","105260","0.0-5.0-2.0","5994e3732ac4863c9ab654c90c03f95b19ecbb542a28485580c2a6122385c433","swim","arctic","3604","","<p>Because we want your responses to be as quick as possible, please keep your index fingers over the keys while listening.</p><p>Each block lasts about 20 minutes.</p><p><b>Press &lt;x&gt; or &lt;m&gt; to start the first block!</b></p>","","77","","","","","","","","","","","","","","","","","","","",""
"html-keyboard-response","28","105763","0.0-7.0-0.0-0.0","5994e3732ac4863c9ab654c90c03f95b19ecbb542a28485580c2a6122385c433","swim","arctic","null","","<div style=""font-size:60px;"" tabindex=""0"">+</div>","","null","","","","","","","","","","","","","","","","","","","",""
"dual-task","null","null","null","","swim","arctic","NA","","g","null","NA","88","0","swim-dual-task","","g","lowercase","12000","1","2","5994e3732ac4863c9ab654c90c03f95b19ecbb542a28485580c2a6122385c433","12010.5","NA","NA","0","swim","","","","",""
"dual-task","null","null","null","","swim","arctic","1043.800000011921","","r","null","88","88","1","swim-dual-task","","r","lowercase","24000","0","2","5994e3732ac4863c9ab654c90c03f95b19ecbb542a28485580c2a6122385c433","24005.600000023842","1043.800000011921","88","1","swim","","","","",""
"dual-task","null","null","null","","swim","arctic","NA","","d","null","NA","88","0","swim-dual-task","","d","lowercase","34000","1","2","5994e3732ac4863c9ab654c90c03f95b19ecbb542a28485580c2a6122385c433","34002.69999998808","NA","NA","0","swim","","","","",""
"dual-task","null","null","null","","swim","arctic","1153.1000000238419","","a","null","88","88","1","swim-dual-task","","a","lowercase","42000","0","2","5994e3732ac4863c9ab654c90c03f95b19ecbb542a28485580c2a6122385c433","42013","1153.1000000238419","88","1","swim","","","","",""
"dual-task","null","null","null","","swim","arctic","1067.3999999761581","","R","null","77","77","1","swim-dual-task","","R","uppercase","50000","0","2","5994e3732ac4863c9ab654c90c03f95b19ecbb542a28485580c2a6122385c433","49998.60000002384","1067.3999999761581","77","1","swim","","","","",""
"dual-task","null","null","null","","swim","arctic","1301.800000011921","","f","null","88","88","1","swim-dual-task","","f","lowercase","58000","0","2","5994e3732ac4863c9ab654c90c03f95b19ecbb542a28485580c2a6122385c433","58002.69999998808","1301.800000011921","88","1","swim","","","","",""
"dual-task","null","null","null","","swim","arctic","1035.9000000357628","","A","null","77","77","1","swim-dual-task","","A","uppercase","68000","0","2","5994e3732ac4863c9ab654c90c03f95b19ecbb542a28485580c2a6122385c433","68007.39999997616","1035.9000000357628","77","1","swim","","","","",""
"dual-task","null","null","null","","swim","arctic","1023.8999999761581","","q","null","88","88","1","swim-dual-task","","q","lowercase","78000","0","2","5994e3732ac4863c9ab654c90c03f95b19ecbb542a28485580c2a6122385c433","78002.60000002384","1023.8999999761581","88","1","swim","","","","",""
"dual-task","null","null","null","","swim","arctic","892","","H","null","77","77","1","swim-dual-task","","H","uppercase","86000","0","2","5994e3732ac4863c9ab654c90c03f95b19ecbb542a28485580c2a6122385c433","86002.60000002384","892","77","1","swim","","","","",""
"dual-task","null","null","null","","swim","arctic","985.1000000238419","","H","null","77","77","1","swim-dual-task","","H","uppercase","98000","0","2","5994e3732ac4863c9ab654c90c03f95b19ecbb542a28485580c2a6122385c433","98002.80000001192","985.1000000238419","77","1","swim","","","","",""
"dual-task","null","null","null","","swim","arctic","1352.800000011921","","e","null","88","88","1","swim-dual-task","","e","lowercase","110000","0","2","5994e3732ac4863c9ab654c90c03f95b19ecbb542a28485580c2a6122385c433","110012.19999998808","1352.800000011921","88","1","swim","","","","",""
"dual-task","null","null","null","","swim","arctic","883.3999999761581","","e","null","88","88","1","swim-dual-task","","e","lowercase","118000","0","2","5994e3732ac4863c9ab654c90c03f95b19ecbb542a28485580c2a6122385c433","118012.69999998808","883.3999999761581","88","1","swim","","","","",""
"dual-task","null","null","null","","swim","arctic","1047.3999999761581","","A","null","77","77","1","swim-dual-task","","A","uppercase","132000","0","2","5994e3732ac4863c9ab654c90c03f95b19ecbb542a28485580c2a6122385c433","132012.5","1047.3999999761581","77","1","swim","","","","",""
"dual-task","null","null","null","","swim","arctic","1212.5999999642372","","Q","null","77","77","1","swim-dual-task","","Q","uppercase","146000","0","2","5994e3732ac4863c9ab654c90c03f95b19ecbb542a28485580c2a6122385c433","146012.69999998808","1212.5999999642372","77","1","swim","","","","",""
"dual-task","null","null","null","","swim","arctic","1165.800000011921","","R","null","77","77","1","swim-dual-task","","R","uppercase","154000","0","2","5994e3732ac4863c9ab654c90c03f95b19ecbb542a28485580c2a6122385c433","154014","1165.800000011921","77","1","swim","","","","",""
"dual-task","null","null","null","","swim","arctic","1269.6000000238419","","d","null","88","88","1","swim-dual-task","","d","lowercase","160000","0","2","5994e3732ac4863c9ab654c90c03f95b19ecbb542a28485580c2a6122385c433","159998.5","1269.6000000238419","88","1","swim","","","","",""
"dual-task","null","null","null","","swim","arctic","1044","","q","null","88","88","1","swim-dual-task","","q","lowercase","170000","0","2","5994e3732ac4863c9ab654c90c03f95b19ecbb542a28485580c2a6122385c433","170002.5","1044","88","1","swim","","","","",""
"dual-task","null","null","null","","swim","arctic","1032","","E","null","77","77","1","swim-dual-task","","E","uppercase","182000","0","2","5994e3732ac4863c9ab654c90c03f95b19ecbb542a28485580c2a6122385c433","182001.10000002384","1032","77","1","swim","","","","",""
"dual-task","null","null","null","","swim","arctic","1236.1000000238419","","T","null","77","77","1","swim-dual-task","","T","uppercase","190000","0","2","5994e3732ac4863c9ab654c90c03f95b19ecbb542a28485580c2a6122385c433","190002.30000001192","1236.1000000238419","77","1","swim","","","","",""
"dual-task","null","null","null","","swim","arctic","1118.4000000357628","","B","null","77","77","1","swim-dual-task","","B","uppercase","202000","0","2","5994e3732ac4863c9ab654c90c03f95b19ecbb542a28485580c2a6122385c433","202004.5","1118.4000000357628","77","1","swim","","","","",""
"dual-task","null","null","null","","swim","arctic","1265.7000000476837","","e","null","88","88","1","swim-dual-task","","e","lowercase","214000","0","2","5994e3732ac4863c9ab654c90c03f95b19ecbb542a28485580c2a6122385c433","214002.80000001192","1265.7000000476837","88","1","swim","","","","",""
"dual-task","null","null","null","","swim","arctic","935.6999999880791","","b","null","88","88","1","swim-dual-task","","b","lowercase","226000","0","2","5994e3732ac4863c9ab654c90c03f95b19ecbb542a28485580c2a6122385c433","226000.5","935.6999999880791","88","1","swim","","","","",""
"dual-task","null","null","null","","swim","arctic","1313.0999999642372","","n","null","88","88","1","swim-dual-task","","n","lowercase","234000","0","2","5994e3732ac4863c9ab654c90c03f95b19ecbb542a28485580c2a6122385c433","234002.60000002384","1313.0999999642372","88","1","swim","","","","",""
"dual-task","null","null","null","","swim","arctic","884","","b","null","88","88","1","swim-dual-task","","b","lowercase","242000","0","2","5994e3732ac4863c9ab654c90c03f95b19ecbb542a28485580c2a6122385c433","242002.30000001192","884","88","1","swim","","","","",""
"dual-task","null","null","null","","swim","arctic","1099.8999999761581","","B","null","77","77","1","swim-dual-task","","B","uppercase","248000","0","2","5994e3732ac4863c9ab654c90c03f95b19ecbb542a28485580c2a6122385c433","248003.10000002384","1099.8999999761581","77","1","swim","","","","",""
"dual-task","null","null","null","","swim","arctic","1227.4000000357628","","N","null","77","77","1","swim-dual-task","","N","uppercase","256000","0","2","5994e3732ac4863c9ab654c90c03f95b19ecbb542a28485580c2a6122385c433","256003.80000001192","1227.4000000357628","77","1","swim","","","","",""
"dual-task","null","null","null","","swim","arctic","1271.699999988079","","t","null","88","88","1","swim-dual-task","","t","lowercase","264000","0","2","5994e3732ac4863c9ab654c90c03f95b19ecbb542a28485580c2a6122385c433","264003.10000002384","1271.699999988079","88","1","swim","","","","",""
"dual-task","null","null","null","","swim","arctic","1349.1000000238419","","g","null","88","88","1","swim-dual-task","","g","lowercase","270000","0","2","5994e3732ac4863c9ab654c90c03f95b19ecbb542a28485580c2a6122385c433","270013.5","1349.1000000238419","88","1","swim","","","","",""
"dual-task","null","null","null","","swim","arctic","1197.9000000357628","","B","null","77","77","1","swim-dual-task","","B","uppercase","280000","0","2","5994e3732ac4863c9ab654c90c03f95b19ecbb542a28485580c2a6122385c433","280011.8000000119","1197.9000000357628","77","1","swim","","","","",""
"dual-task","null","null","null","","swim","arctic","1191.199999988079","","R","null","77","77","1","swim-dual-task","","R","uppercase","286000","0","2","5994e3732ac4863c9ab654c90c03f95b19ecbb542a28485580c2a6122385c433","286002.89999997616","1191.199999988079","77","1","swim","","","","",""
"dual-task","null","null","null","","swim","arctic","1184.6000000238419","","E","null","77","77","1","swim-dual-task","","E","uppercase","294000","0","2","5994e3732ac4863c9ab654c90c03f95b19ecbb542a28485580c2a6122385c433","294002.3000000119","1184.6000000238419","77","1","swim","","","","",""
"dual-task","null","null","null","","swim","arctic","1059.699999988079","","r","null","88","88","1","swim-dual-task","","r","lowercase","306000","0","2","5994e3732ac4863c9ab654c90c03f95b19ecbb542a28485580c2a6122385c433","306003.10000002384","1059.699999988079","88","1","swim","","","","",""
"dual-task","null","null","null","","swim","arctic","949.1999999880791","","f","null","88","88","1","swim-dual-task","","f","lowercase","314000","0","2","5994e3732ac4863c9ab654c90c03f95b19ecbb542a28485580c2a6122385c433","314011","949.1999999880791","88","1","swim","","","","",""
"dual-task","null","null","null","","swim","arctic","1090.699999988079","","t","null","88","88","1","swim-dual-task","","t","lowercase","326000","0","2","5994e3732ac4863c9ab654c90c03f95b19ecbb542a28485580c2a6122385c433","326002.89999997616","1090.699999988079","88","1","swim","","","","",""
"dual-task","null","null","null","","swim","arctic","1002.3999999761581","","B","null","77","77","1","swim-dual-task","","B","uppercase","338000","0","2","5994e3732ac4863c9ab654c90c03f95b19ecbb542a28485580c2a6122385c433","338008.1999999881","1002.3999999761581","77","1","swim","","","","",""
"dual-task","null","null","null","","swim","arctic","1328.1000000238419","","T","null","77","77","1","swim-dual-task","","T","uppercase","348000","0","2","5994e3732ac4863c9ab654c90c03f95b19ecbb542a28485580c2a6122385c433","348007.89999997616","1328.1000000238419","77","1","swim","","","","",""
"dual-task","null","null","null","","swim","arctic","1144","","Q","null","77","77","1","swim-dual-task","","Q","uppercase","356000","0","2","5994e3732ac4863c9ab654c90c03f95b19ecbb542a28485580c2a6122385c433","356031.3000000119","1144","77","1","swim","","","","",""
"dual-task","null","null","null","","swim","arctic","1247.5","","R","null","77","77","1","swim-dual-task","","R","uppercase","364000","0","2","5994e3732ac4863c9ab654c90c03f95b19ecbb542a28485580c2a6122385c433","364010.39999997616","1247.5","77","1","swim","","","","",""
"dual-task","null","null","null","","swim","arctic","953","","A","null","77","77","1","swim-dual-task","","A","uppercase","376000","0","2","5994e3732ac4863c9ab654c90c03f95b19ecbb542a28485580c2a6122385c433","376005.3000000119","953","77","1","swim","","","","",""
"dual-task","null","null","null","","swim","arctic","1070.699999988079","","A","null","77","77","1","swim-dual-task","","A","uppercase","384000","0","2","5994e3732ac4863c9ab654c90c03f95b19ecbb542a28485580c2a6122385c433","384002.39999997616","1070.699999988079","77","1","swim","","","","",""
"dual-task","null","null","null","","swim","arctic","1092.5999999642372","","F","null","77","77","1","swim-dual-task","","F","uppercase","394000","0","2","5994e3732ac4863c9ab654c90c03f95b19ecbb542a28485580c2a6122385c433","394003.10000002384","1092.5999999642372","77","1","swim","","","","",""
"dual-task","null","null","null","","swim","arctic","1104","","h","null","88","88","1","swim-dual-task","","h","lowercase","404000","0","2","5994e3732ac4863c9ab654c90c03f95b19ecbb542a28485580c2a6122385c433","403999.8000000119","1104","88","1","swim","","","","",""
"dual-task","null","null","null","","swim","arctic","1111.300000011921","","n","null","88","88","1","swim-dual-task","","n","lowercase","410000","0","2","5994e3732ac4863c9ab654c90c03f95b19ecbb542a28485580c2a6122385c433","410010.10000002384","1111.300000011921","88","1","swim","","","","",""
"dual-task","null","null","null","","swim","arctic","1251.5","","f","null","88","88","1","swim-dual-task","","f","lowercase","420000","0","2","5994e3732ac4863c9ab654c90c03f95b19ecbb542a28485580c2a6122385c433","420014.5","1251.5","88","1","swim","","","","",""
"dual-task","null","null","null","","swim","arctic","1130.3999999761581","","F","null","77","77","1","swim-dual-task","","F","uppercase","430000","0","2","5994e3732ac4863c9ab654c90c03f95b19ecbb542a28485580c2a6122385c433","429999.39999997616","1130.3999999761581","77","1","swim","","","","",""
"dual-task","null","null","null","","swim","arctic","1205.5999999642372","","D","null","77","77","1","swim-dual-task","","D","uppercase","436000","0","2","5994e3732ac4863c9ab654c90c03f95b19ecbb542a28485580c2a6122385c433","436010.3000000119","1205.5999999642372","77","1","swim","","","","",""
"dual-task","null","null","null","","swim","arctic","1230","","t","null","88","88","1","swim-dual-task","","t","lowercase","442000","0","2","5994e3732ac4863c9ab654c90c03f95b19ecbb542a28485580c2a6122385c433","442003.3000000119","1230","88","1","swim","","","","",""
"dual-task","null","null","null","","swim","arctic","1259.3999999761581","","d","null","88","88","1","swim-dual-task","","d","lowercase","454000","0","2","5994e3732ac4863c9ab654c90c03f95b19ecbb542a28485580c2a6122385c433","454003","1259.3999999761581","88","1","swim","","","","",""
"dual-task","null","null","null","","swim","arctic","1140.3999999761581","","D","null","77","77","1","swim-dual-task","","D","uppercase","462000","0","2","5994e3732ac4863c9ab654c90c03f95b19ecbb542a28485580c2a6122385c433","462012.89999997616","1140.3999999761581","77","1","swim","","","","",""
"dual-task","null","null","null","","swim","arctic","1256.199999988079","","b","null","88","88","1","swim-dual-task","","b","lowercase","476000","0","2","5994e3732ac4863c9ab654c90c03f95b19ecbb542a28485580c2a6122385c433","476015.39999997616","1256.199999988079","88","1","swim","","","","",""
"dual-task","null","null","null","","swim","arctic","1167.5","","g","null","88","88","1","swim-dual-task","","g","lowercase","490000","0","2","5994e3732ac4863c9ab654c90c03f95b19ecbb542a28485580c2a6122385c433","490001.3000000119","1167.5","88","1","swim","","","","",""
"dual-task","null","null","null","","swim","arctic","1129.800000011921","","r","null","88","88","1","swim-dual-task","","r","lowercase","496000","0","2","5994e3732ac4863c9ab654c90c03f95b19ecbb542a28485580c2a6122385c433","496003.6999999881","1129.800000011921","88","1","swim","","","","",""
"dual-task","null","null","null","","swim","arctic","1108.0999999642372","","E","null","77","77","1","swim-dual-task","","E","uppercase","510000","0","2","5994e3732ac4863c9ab654c90c03f95b19ecbb542a28485580c2a6122385c433","510004.8000000119","1108.0999999642372","77","1","swim","","","","",""
"dual-task","null","null","null","","swim","arctic","995.5","","a","null","88","88","1","swim-dual-task","","a","lowercase","520000","0","2","5994e3732ac4863c9ab654c90c03f95b19ecbb542a28485580c2a6122385c433","520003.10000002384","995.5","88","1","swim","","","","",""
"dual-task","null","null","null","","swim","arctic","1141.300000011921","","G","null","77","77","1","swim-dual-task","","G","uppercase","528000","0","2","5994e3732ac4863c9ab654c90c03f95b19ecbb542a28485580c2a6122385c433","528011.3000000119","1141.300000011921","77","1","swim","","","","",""
"dual-task","null","null","null","","swim","arctic","1660.1000000238419","","H","null","77","77","1","swim-dual-task","","H","uppercase","540000","0","2","5994e3732ac4863c9ab654c90c03f95b19ecbb542a28485580c2a6122385c433","540002.8999999762","1660.1000000238419","77","1","swim","","","","",""
"dual-task","null","null","null","","swim","arctic","1474.4000000357628","","q","null","88","88","1","swim-dual-task","","q","lowercase","546000","0","2","5994e3732ac4863c9ab654c90c03f95b19ecbb542a28485580c2a6122385c433","546012.6000000238","1474.4000000357628","88","1","swim","","","","",""
"dual-task","null","null","null","","swim","arctic","1178","","G","null","77","77","1","swim-dual-task","","G","uppercase","554000","0","2","5994e3732ac4863c9ab654c90c03f95b19ecbb542a28485580c2a6122385c433","554003","1178","77","1","swim","","","","",""
"dual-task","null","null","null","","swim","arctic","1053.300000011921","","G","null","77","77","1","swim-dual-task","","G","uppercase","566000","0","2","5994e3732ac4863c9ab654c90c03f95b19ecbb542a28485580c2a6122385c433","566003.1999999881","1053.300000011921","77","1","swim","","","","",""
"dual-task","null","null","null","","swim","arctic","1018","","N","null","77","77","1","swim-dual-task","","N","uppercase","578000","0","2","5994e3732ac4863c9ab654c90c03f95b19ecbb542a28485580c2a6122385c433","578004","1018","77","1","swim","","","","",""
"dual-task","null","null","null","","swim","arctic","1033.0999999642372","","d","null","88","88","1","swim-dual-task","","d","lowercase","588000","0","2","5994e3732ac4863c9ab654c90c03f95b19ecbb542a28485580c2a6122385c433","588012","1033.0999999642372","88","1","swim","","","","",""
"dual-task","null","null","null","","swim","arctic","1050.5999999642372","","a","null","88","88","1","swim-dual-task","","a","lowercase","600000","0","2","5994e3732ac4863c9ab654c90c03f95b19ecbb542a28485580c2a6122385c433","600003","1050.5999999642372","88","1","swim","","","","",""
"dual-task","null","null","null","","swim","arctic","1216","","D","null","77","77","1","swim-dual-task","","D","uppercase","610000","0","2","5994e3732ac4863c9ab654c90c03f95b19ecbb542a28485580c2a6122385c433","610003.1999999881","1216","77","1","swim","","","","",""
"dual-task","null","null","null","","swim","arctic","1100.0999999642372","","E","null","77","77","1","swim-dual-task","","E","uppercase","622000","0","2","5994e3732ac4863c9ab654c90c03f95b19ecbb542a28485580c2a6122385c433","622003","1100.0999999642372","77","1","swim","","","","",""
"dual-task","null","null","null","","swim","arctic","1082.6000000238419","","F","null","77","77","1","swim-dual-task","","F","uppercase","634000","0","2","5994e3732ac4863c9ab654c90c03f95b19ecbb542a28485580c2a6122385c433","634003.1000000238","1082.6000000238419","77","1","swim","","","","",""
"dual-task","null","null","null","","swim","arctic","1191.8999999761581","","N","null","77","77","1","swim-dual-task","","N","uppercase","640000","0","2","5994e3732ac4863c9ab654c90c03f95b19ecbb542a28485580c2a6122385c433","640003","1191.8999999761581","77","1","swim","","","","",""
"dual-task","null","null","null","","swim","arctic","1478.800000011921","","a","null","88","88","1","swim-dual-task","","a","lowercase","652000","0","2","5994e3732ac4863c9ab654c90c03f95b19ecbb542a28485580c2a6122385c433","652005.3999999762","1478.800000011921","88","1","swim","","","","",""
"dual-task","null","null","null","","swim","arctic","1362.5","","D","null","77","77","1","swim-dual-task","","D","uppercase","662000","0","2","5994e3732ac4863c9ab654c90c03f95b19ecbb542a28485580c2a6122385c433","662003.8999999762","1362.5","77","1","swim","","","","",""
"dual-task","null","null","null","","swim","arctic","1618.199999988079","","h","null","88","88","1","swim-dual-task","","h","lowercase","672000","0","2","5994e3732ac4863c9ab654c90c03f95b19ecbb542a28485580c2a6122385c433","672004","1618.199999988079","88","1","swim","","","","",""
"dual-task","null","null","null","","swim","arctic","928","","e","null","88","88","1","swim-dual-task","","e","lowercase","682000","0","2","5994e3732ac4863c9ab654c90c03f95b19ecbb542a28485580c2a6122385c433","682013.3000000119","928","88","1","swim","","","","",""
"dual-task","null","null","null","","swim","arctic","1301","","Q","null","77","77","1","swim-dual-task","","Q","uppercase","690000","0","2","5994e3732ac4863c9ab654c90c03f95b19ecbb542a28485580c2a6122385c433","690003.5","1301","77","1","swim","","","","",""
"dual-task","null","null","null","","swim","arctic","1136.9000000357628","","G","null","77","77","1","swim-dual-task","","G","uppercase","700000","0","2","5994e3732ac4863c9ab654c90c03f95b19ecbb542a28485580c2a6122385c433","700003.6000000238","1136.9000000357628","77","1","swim","","","","",""
"dual-task","null","null","null","","swim","arctic","1080.2999999523163","","T","null","77","77","1","swim-dual-task","","T","uppercase","708000","0","2","5994e3732ac4863c9ab654c90c03f95b19ecbb542a28485580c2a6122385c433","708003.5","1080.2999999523163","77","1","swim","","","","",""
"dual-task","null","null","null","","swim","arctic","1070","","Q","null","77","77","1","swim-dual-task","","Q","uppercase","716000","0","2","5994e3732ac4863c9ab654c90c03f95b19ecbb542a28485580c2a6122385c433","716003.1000000238","1070","77","1","swim","","","","",""
"dual-task","null","null","null","","swim","arctic","1048.5999999642372","","F","null","77","77","1","swim-dual-task","","F","uppercase","724000","0","2","5994e3732ac4863c9ab654c90c03f95b19ecbb542a28485580c2a6122385c433","724003.5","1048.5999999642372","77","1","swim","","","","",""
"dual-task","null","null","null","","swim","arctic","1063.8999999761581","","N","null","77","77","1","swim-dual-task","","N","uppercase","736000","0","2","5994e3732ac4863c9ab654c90c03f95b19ecbb542a28485580c2a6122385c433","736008.6000000238","1063.8999999761581","77","1","swim","","","","",""
"dual-task","null","null","null","","swim","arctic","1052.6000000238419","","h","null","88","88","1","swim-dual-task","","h","lowercase","744000","0","2","5994e3732ac4863c9ab654c90c03f95b19ecbb542a28485580c2a6122385c433","744013.3999999762","1052.6000000238419","88","1","swim","","","","",""
"dual-task","null","null","null","","swim","arctic","984.2999999523163","","f","null","88","88","1","swim-dual-task","","f","lowercase","756000","0","2","5994e3732ac4863c9ab654c90c03f95b19ecbb542a28485580c2a6122385c433","756016.5","984.2999999523163","88","1","swim","","","","",""
"dual-task","null","null","null","","swim","arctic","1162.2999999523163","","n","null","88","88","1","swim-dual-task","","n","lowercase","768000","0","2","5994e3732ac4863c9ab654c90c03f95b19ecbb542a28485580c2a6122385c433","768013.6000000238","1162.2999999523163","88","1","swim","","","","",""
"dual-task","null","null","null","","swim","arctic","956.1000000238419","","n","null","88","88","1","swim-dual-task","","n","lowercase","782000","0","2","5994e3732ac4863c9ab654c90c03f95b19ecbb542a28485580c2a6122385c433","782006.3999999762","956.1000000238419","88","1","swim","","","","",""
"dual-task","null","null","null","","swim","arctic","1430.6000000238419","","h","null","88","88","1","swim-dual-task","","h","lowercase","790000","0","2","5994e3732ac4863c9ab654c90c03f95b19ecbb542a28485580c2a6122385c433","790005.1000000238","1430.6000000238419","88","1","swim","","","","",""
"audio-keyboard-response","29","915840","0.0-7.0-0.0-1.0","5994e3732ac4863c9ab654c90c03f95b19ecbb542a28485580c2a6122385c433","swim","arctic","null","","audio/story_swim.mp3","","null","","","","","","","","","","","","","","","","","","","",""
"html-button-response","30","918436","0.0-7.0-0.0-2.0","5994e3732ac4863c9ab654c90c03f95b19ecbb542a28485580c2a6122385c433","swim","arctic","2591","","<p>This concludes the story. Thank you for listening.</p><p>You will now answer some questions about the content of the story.</p>","0","","","","","","","","","","","","","","","","","","","","",""
"survey-multi-choice","31","927079","0.0-7.0-0.0-3.0-0.0","5994e3732ac4863c9ab654c90c03f95b19ecbb542a28485580c2a6122385c433","swim","arctic","8632","","<b>Where is the home of naval aviation?</b>","","","","1","swim-comprehension","","","","","","","","","","","","","{""Q0"":""Pensacola""}","","","",""
"survey-multi-choice","32","933095","0.0-7.0-0.0-3.0-0.1","5994e3732ac4863c9ab654c90c03f95b19ecbb542a28485580c2a6122385c433","swim","arctic","5754","","<b>How often does the narrator swim, now that he is a good swimmer?</b>","","","","1","swim-comprehension","","","","","","","","","","","","","{""Q0"":""Never swam again in his life""}","","","",""
"survey-multi-choice","33","940483","0.0-7.0-0.0-3.0-0.2","5994e3732ac4863c9ab654c90c03f95b19ecbb542a28485580c2a6122385c433","swim","arctic","7131","","<b>What gave the narrator his greatest feeling of accomplishment?</b>","","","","1","swim-comprehension","","","","","","","","","","","","","{""Q0"":""Passing the water survival course""}","","","",""
"survey-multi-choice","34","949140","0.0-7.0-0.0-3.0-0.3","5994e3732ac4863c9ab654c90c03f95b19ecbb542a28485580c2a6122385c433","swim","arctic","8398","","<b>How many times did the astronaut candidates have to complete the final exercise to pass?</b>","","","","1","swim-comprehension","","","","","","","","","","","","","{""Q0"":""Two""}","","","",""
"survey-multi-choice","35","954016","0.0-7.0-0.0-3.0-0.4","5994e3732ac4863c9ab654c90c03f95b19ecbb542a28485580c2a6122385c433","swim","arctic","4622","","<b>How many astronaut candidates reported for duty at the Johnson Space Center?</b>","","","","0","swim-comprehension","","","","","","","","","","","","","{""Q0"":""""}","","","",""
"survey-multi-choice","36","963337","0.0-7.0-0.0-3.0-0.5","5994e3732ac4863c9ab654c90c03f95b19ecbb542a28485580c2a6122385c433","swim","arctic","9065","","<b>What was the final step of the first swim test in the pool?</b>","","","","1","swim-comprehension","","","","","","","","","","","","","{""Q0"":""Tread water with hands above the water""}","","","",""
"survey-multi-choice","37","969005","0.0-7.0-0.0-3.0-0.6","5994e3732ac4863c9ab654c90c03f95b19ecbb542a28485580c2a6122385c433","swim","arctic","5415","","<b>What is the narrator afraid of, aside from the water?</b>","","","","1","swim-comprehension","","","","","","","","","","","","","{""Q0"":""Heights""}","","","",""
"survey-multi-choice","38","980630","0.0-7.0-0.0-3.0-0.7","5994e3732ac4863c9ab654c90c03f95b19ecbb542a28485580c2a6122385c433","swim","arctic","11369","","<b>How did the narrator train for his swim test?</b>","","","","1","swim-comprehension","","","","","","","","","","","","","{""Q0"":""Took his kids to the pool every day""}","","","",""
"survey-multi-choice","39","985674","0.0-7.0-0.0-3.0-0.8","5994e3732ac4863c9ab654c90c03f95b19ecbb542a28485580c2a6122385c433","swim","arctic","4786","","<b>How many astronaut candidates passed the first swim test?</b>","","","","1","swim-comprehension","","","","","","","","","","","","","{""Q0"":""All of them""}","","","",""
"survey-multi-choice","40","998326","0.0-7.0-0.0-3.0-0.9","5994e3732ac4863c9ab654c90c03f95b19ecbb542a28485580c2a6122385c433","swim","arctic","12388","","<b>What were the astronaut candidates trained to do at the naval air station?</b>","","","","1","swim-comprehension","","","","","","","","","","","","","{""Q0"":""Eject out of aircraft and survive in water long enough to be rescued""}","","","",""
"html-button-response","41","999689","0.0-7.0-0.0-4.0","5994e3732ac4863c9ab654c90c03f95b19ecbb542a28485580c2a6122385c433","swim","arctic","1110","","<p>Thank you for your responses.</p><p>You will now answer some questions about your impressions of the story.</p>","0","","","","","","","","","","","","","","","","","","","","",""
"html-button-response","42","1001767","0.0-7.0-0.0-5.0-0.0","5994e3732ac4863c9ab654c90c03f95b19ecbb542a28485580c2a6122385c433","swim","arctic","2076","","EE4","6","","","","swim-engagement","","","","","","","","","","","","","","7","emo-engage","",""
"html-button-response","43","1004272","0.0-7.0-0.0-5.0-0.1","5994e3732ac4863c9ab654c90c03f95b19ecbb542a28485580c2a6122385c433","swim","arctic","2250","","A4","5","","","","swim-engagement","","","","","","","","","","","","","","6","absorption","",""
"html-button-response","44","1005829","0.0-7.0-0.0-5.0-0.2","5994e3732ac4863c9ab654c90c03f95b19ecbb542a28485580c2a6122385c433","swim","arctic","1305","","E6","6","","","","swim-engagement","","","","","","","","","","","","","","7","enjoyment","",""
"html-button-response","45","1008914","0.0-7.0-0.0-5.0-0.3","5994e3732ac4863c9ab654c90c03f95b19ecbb542a28485580c2a6122385c433","swim","arctic","2832","","MS2","6","","","","swim-engagement","","","","","","","","","","","","","","7","mental-sim","",""
"html-button-response","46","1010640","0.0-7.0-0.0-5.0-0.4","5994e3732ac4863c9ab654c90c03f95b19ecbb542a28485580c2a6122385c433","swim","arctic","1468","","EE2","6","","","","swim-engagement","","","","","","","","","","","","","","7","emo-engage","",""
"html-button-response","47","1012223","0.0-7.0-0.0-5.0-0.5","5994e3732ac4863c9ab654c90c03f95b19ecbb542a28485580c2a6122385c433","swim","arctic","1323","","E1","5","","","","swim-engagement","","","","","","","","","","","","","","6","enjoyment","",""
"html-button-response","48","1013401","0.0-7.0-0.0-5.0-0.6","5994e3732ac4863c9ab654c90c03f95b19ecbb542a28485580c2a6122385c433","swim","arctic","925","","E7","6","","","","swim-engagement","","","","","","","","","","","","","","7","enjoyment","",""
"html-button-response","49","1014912","0.0-7.0-0.0-5.0-0.7","5994e3732ac4863c9ab654c90c03f95b19ecbb542a28485580c2a6122385c433","swim","arctic","1258","","E8","6","","","","swim-engagement","","","","","","","","","","","","","","7","enjoyment","",""
"html-button-response","50","1018282","0.0-7.0-0.0-5.0-0.8","5994e3732ac4863c9ab654c90c03f95b19ecbb542a28485580c2a6122385c433","swim","arctic","3115","","EE5","5","","","","swim-engagement","","","","","","","","","","","","","","6","emo-engage","",""
"html-button-response","51","1021155","0.0-7.0-0.0-5.0-0.9","5994e3732ac4863c9ab654c90c03f95b19ecbb542a28485580c2a6122385c433","swim","arctic","2619","","MS1","5","","","","swim-engagement","","","","","","","","","","","","","","6","mental-sim","",""
"html-button-response","52","1023080","0.0-7.0-0.0-5.0-0.10","5994e3732ac4863c9ab654c90c03f95b19ecbb542a28485580c2a6122385c433","swim","arctic","1673","","A1","6","","","","swim-engagement","","","","","","","","","","","","","","7","absorption","",""
"html-button-response","53","1024883","0.0-7.0-0.0-5.0-0.11","5994e3732ac4863c9ab654c90c03f95b19ecbb542a28485580c2a6122385c433","swim","arctic","1550","","MS3","5","","","","swim-engagement","","","","","","","","","","","","","","6","mental-sim","",""
"html-button-response","54","1027870","0.0-7.0-0.0-5.0-0.12","5994e3732ac4863c9ab654c90c03f95b19ecbb542a28485580c2a6122385c433","swim","arctic","2733","","EE1","4","","","","swim-engagement","","","","","","","","","","","","","","5","emo-engage","",""
"html-button-response","55","1029583","0.0-7.0-0.0-5.0-0.13","5994e3732ac4863c9ab654c90c03f95b19ecbb542a28485580c2a6122385c433","swim","arctic","1461","","EE3","6","","","","swim-engagement","","","","","","","","","","","","","","7","emo-engage","",""
"html-button-response","56","1031340","0.0-7.0-0.0-5.0-0.14","5994e3732ac4863c9ab654c90c03f95b19ecbb542a28485580c2a6122385c433","swim","arctic","1497","","A5","6","","","","swim-engagement","","","","","","","","","","","","","","7","absorption","",""
"html-button-response","57","1032929","0.0-7.0-0.0-5.0-0.15","5994e3732ac4863c9ab654c90c03f95b19ecbb542a28485580c2a6122385c433","swim","arctic","1336","","A2","5","","","","swim-engagement","","","","","","","","","","","","","","6","absorption","",""
"html-button-response","58","1034925","0.0-7.0-0.0-5.0-0.16","5994e3732ac4863c9ab654c90c03f95b19ecbb542a28485580c2a6122385c433","swim","arctic","1744","","A3","6","","","","swim-engagement","","","","","","","","","","","","","","7","absorption","",""
"html-button-response","59","1036491","0.0-7.0-0.0-5.0-0.17","5994e3732ac4863c9ab654c90c03f95b19ecbb542a28485580c2a6122385c433","swim","arctic","1312","","E10","6","","","","swim-engagement","","","","","","","","","","","","","","7","enjoyment","",""
"html-keyboard-response","60","1043680","0.0-7.0-1.0","5994e3732ac4863c9ab654c90c03f95b19ecbb542a28485580c2a6122385c433","swim","arctic","6937","","<p>Thank you for your responses. You will now listen to the second story.</p><p>Remember, as you listen to the story you will see letters appear on the screen.</br>As quickly as possible, press <b>&lt;x&gt;</b> if the letter is lowercase and <b>&lt;m&gt;</b> if the letter is uppercase.</p><p>Press <b>&lt;x&gt;</b> or <b>&lt;m&gt;</b> to begin listening!</p>","","88","","","","","","","","","","","","","","","","","","","",""
"html-keyboard-response","61","1044182","0.0-7.0-2.0-0.0","5994e3732ac4863c9ab654c90c03f95b19ecbb542a28485580c2a6122385c433","swim","arctic","null","","<div style=""font-size:60px;"" tabindex=""0"">+</div>","","null","","","","","","","","","","","","","","","","","","","",""
"dual-task","null","null","null","","swim","arctic","1123.199999988079","","r","null","88","88","1","arctic-dual-task","","r","lowercase","12000","0","2","5994e3732ac4863c9ab654c90c03f95b19ecbb542a28485580c2a6122385c433","12013.399999976158","1123.199999988079","88","1","arctic","","","","",""
"dual-task","null","null","null","","swim","arctic","995.8000000119209","","q","null","88","88","1","arctic-dual-task","","q","lowercase","20000","0","2","5994e3732ac4863c9ab654c90c03f95b19ecbb542a28485580c2a6122385c433","20013.299999952316","995.8000000119209","88","1","arctic","","","","",""
"dual-task","null","null","null","","swim","arctic","914.6000000238419","","e","null","88","88","1","arctic-dual-task","","e","lowercase","26000","0","2","5994e3732ac4863c9ab654c90c03f95b19ecbb542a28485580c2a6122385c433","26007.399999976158","914.6000000238419","88","1","arctic","","","","",""
"dual-task","null","null","null","","swim","arctic","1043.9000000357628","","H","null","77","77","1","arctic-dual-task","","H","uppercase","36000","0","2","5994e3732ac4863c9ab654c90c03f95b19ecbb542a28485580c2a6122385c433","36014.39999997616","1043.9000000357628","77","1","arctic","","","","",""
"dual-task","null","null","null","","swim","arctic","1143.3999999761581","","A","null","77","77","1","arctic-dual-task","","A","uppercase","48000","0","2","5994e3732ac4863c9ab654c90c03f95b19ecbb542a28485580c2a6122385c433","48005.59999996424","1143.3999999761581","77","1","arctic","","","","",""
"dual-task","null","null","null","","swim","arctic","1124.8999999761581","","E","null","77","77","1","arctic-dual-task","","E","uppercase","54000","0","2","5994e3732ac4863c9ab654c90c03f95b19ecbb542a28485580c2a6122385c433","54003.89999997616","1124.8999999761581","77","1","arctic","","","","",""
"dual-task","null","null","null","","swim","arctic","1295.199999988079","","n","null","88","88","1","arctic-dual-task","","n","lowercase","62000","0","2","5994e3732ac4863c9ab654c90c03f95b19ecbb542a28485580c2a6122385c433","62000.69999998808","1295.199999988079","88","1","arctic","","","","",""
"dual-task","null","null","null","","swim","arctic","1041.300000011921","","A","null","77","77","1","arctic-dual-task","","A","uppercase","72000","0","2","5994e3732ac4863c9ab654c90c03f95b19ecbb542a28485580c2a6122385c433","72001.19999998808","1041.300000011921","77","1","arctic","","","","",""
"dual-task","null","null","null","","swim","arctic","934.0999999642372","","a","null","88","88","1","arctic-dual-task","","a","lowercase","78000","0","2","5994e3732ac4863c9ab654c90c03f95b19ecbb542a28485580c2a6122385c433","78000.5","934.0999999642372","88","1","arctic","","","","",""
"dual-task","null","null","null","","swim","arctic","1071.9000000357628","","T","null","77","77","1","arctic-dual-task","","T","uppercase","90000","0","2","5994e3732ac4863c9ab654c90c03f95b19ecbb542a28485580c2a6122385c433","90002.79999995232","1071.9000000357628","77","1","arctic","","","","",""
"dual-task","null","null","null","","swim","arctic","1144","","G","null","77","77","1","arctic-dual-task","","G","uppercase","96000","0","2","5994e3732ac4863c9ab654c90c03f95b19ecbb542a28485580c2a6122385c433","96016.19999998808","1144","77","1","arctic","","","","",""
"dual-task","null","null","null","","swim","arctic","959.8999999761581","","Q","null","77","77","1","arctic-dual-task","","Q","uppercase","102000","0","2","5994e3732ac4863c9ab654c90c03f95b19ecbb542a28485580c2a6122385c433","102012.39999997616","959.8999999761581","77","1","arctic","","","","",""
"dual-task","null","null","null","","swim","arctic","1047.3999999761581","","d","null","88","88","1","arctic-dual-task","","d","lowercase","114000","0","2","5994e3732ac4863c9ab654c90c03f95b19ecbb542a28485580c2a6122385c433","114005.59999996424","1047.3999999761581","88","1","arctic","","","","",""
"dual-task","null","null","null","","swim","arctic","1001.2000000476837","","H","null","77","77","1","arctic-dual-task","","H","uppercase","126000","0","2","5994e3732ac4863c9ab654c90c03f95b19ecbb542a28485580c2a6122385c433","126001.29999995232","1001.2000000476837","77","1","arctic","","","","",""
"dual-task","null","null","null","","swim","arctic","1159.1000000238419","","B","null","77","77","1","arctic-dual-task","","B","uppercase","138000","0","2","5994e3732ac4863c9ab654c90c03f95b19ecbb542a28485580c2a6122385c433","138004.89999997616","1159.1000000238419","77","1","arctic","","","","",""
"dual-task","null","null","null","","swim","arctic","1285.1000000238419","","D","null","77","77","1","arctic-dual-task","","D","uppercase","148000","0","2","5994e3732ac4863c9ab654c90c03f95b19ecbb542a28485580c2a6122385c433","148003.39999997616","1285.1000000238419","77","1","arctic","","","","",""
"dual-task","null","null","null","","swim","arctic","1232.8999999761581","","t","null","88","88","1","arctic-dual-task","","t","lowercase","158000","0","2","5994e3732ac4863c9ab654c90c03f95b19ecbb542a28485580c2a6122385c433","157999.69999998808","1232.8999999761581","88","1","arctic","","","","",""
"dual-task","null","null","null","","swim","arctic","1113.3999999761581","","G","null","77","77","1","arctic-dual-task","","G","uppercase","166000","0","2","5994e3732ac4863c9ab654c90c03f95b19ecbb542a28485580c2a6122385c433","166007.09999996424","1113.3999999761581","77","1","arctic","","","","",""
"dual-task","null","null","null","","swim","arctic","1421.0999999642372","","b","null","88","88","1","arctic-dual-task","","b","lowercase","174000","0","2","5994e3732ac4863c9ab654c90c03f95b19ecbb542a28485580c2a6122385c433","174006.19999998808","1421.0999999642372","88","1","arctic","","","","",""
"dual-task","null","null","null","","swim","arctic","1935","","H","null","77","77","1","arctic-dual-task","","H","uppercase","182000","0","2","5994e3732ac4863c9ab654c90c03f95b19ecbb542a28485580c2a6122385c433","182000.59999996424","1935","77","1","arctic","","","","",""
"dual-task","null","null","null","","swim","arctic","1301.9000000357628","","F","null","77","77","1","arctic-dual-task","","F","uppercase","190000","0","2","5994e3732ac4863c9ab654c90c03f95b19ecbb542a28485580c2a6122385c433","190011.89999997616","1301.9000000357628","77","1","arctic","","","","",""
"dual-task","null","null","null","","swim","arctic","1190.699999988079","","g","null","88","88","1","arctic-dual-task","","g","lowercase","198000","0","2","5994e3732ac4863c9ab654c90c03f95b19ecbb542a28485580c2a6122385c433","198014.5","1190.699999988079","88","1","arctic","","","","",""
"dual-task","null","null","null","","swim","arctic","1200.3999999761581","","E","null","77","77","1","arctic-dual-task","","E","uppercase","210000","0","2","5994e3732ac4863c9ab654c90c03f95b19ecbb542a28485580c2a6122385c433","210012.59999996424","1200.3999999761581","77","1","arctic","","","","",""
"dual-task","null","null","null","","swim","arctic","1040.5","","t","null","88","88","1","arctic-dual-task","","t","lowercase","222000","0","2","5994e3732ac4863c9ab654c90c03f95b19ecbb542a28485580c2a6122385c433","222006.19999998808","1040.5","88","1","arctic","","","","",""
"dual-task","null","null","null","","swim","arctic","950.6000000238419","","e","null","88","88","1","arctic-dual-task","","e","lowercase","236000","0","2","5994e3732ac4863c9ab654c90c03f95b19ecbb542a28485580c2a6122385c433","236005.89999997616","950.6000000238419","88","1","arctic","","","","",""
"dual-task","null","null","null","","swim","arctic","1130.199999988079","","F","null","77","77","1","arctic-dual-task","","F","uppercase","250000","0","2","5994e3732ac4863c9ab654c90c03f95b19ecbb542a28485580c2a6122385c433","250005.79999995232","1130.199999988079","77","1","arctic","","","","",""
"dual-task","null","null","null","","swim","arctic","1028.1000000238419","","D","null","77","77","1","arctic-dual-task","","D","uppercase","258000","0","2","5994e3732ac4863c9ab654c90c03f95b19ecbb542a28485580c2a6122385c433","258000.79999995232","1028.1000000238419","77","1","arctic","","","","",""
"dual-task","null","null","null","","swim","arctic","1059.699999988079","","N","null","77","77","1","arctic-dual-task","","N","uppercase","268000","0","2","5994e3732ac4863c9ab654c90c03f95b19ecbb542a28485580c2a6122385c433","268000.2999999523","1059.699999988079","77","1","arctic","","","","",""
"dual-task","null","null","null","","swim","arctic","1073.300000011921","","n","null","88","88","1","arctic-dual-task","","n","lowercase","278000","0","2","5994e3732ac4863c9ab654c90c03f95b19ecbb542a28485580c2a6122385c433","278002.39999997616","1073.300000011921","88","1","arctic","","","","",""
"dual-task","null","null","null","","swim","arctic","909.3000000119209","","n","null","88","88","1","arctic-dual-task","","n","lowercase","284000","0","2","5994e3732ac4863c9ab654c90c03f95b19ecbb542a28485580c2a6122385c433","284005.39999997616","909.3000000119209","88","1","arctic","","","","",""
"dual-task","null","null","null","","swim","arctic","1255","","Q","null","77","77","1","arctic-dual-task","","Q","uppercase","292000","0","2","5994e3732ac4863c9ab654c90c03f95b19ecbb542a28485580c2a6122385c433","292000.59999996424","1255","77","1","arctic","","","","",""
"dual-task","null","null","null","","swim","arctic","1003.0999999642372","","Q","null","77","77","1","arctic-dual-task","","Q","uppercase","304000","0","2","5994e3732ac4863c9ab654c90c03f95b19ecbb542a28485580c2a6122385c433","304004.5","1003.0999999642372","77","1","arctic","","","","",""
"dual-task","null","null","null","","swim","arctic","1106.5999999642372","","t","null","88","88","1","arctic-dual-task","","t","lowercase","310000","0","2","5994e3732ac4863c9ab654c90c03f95b19ecbb542a28485580c2a6122385c433","310001.09999996424","1106.5999999642372","88","1","arctic","","","","",""
"dual-task","null","null","null","","swim","arctic","983.4000000357628","","Q","null","77","77","1","arctic-dual-task","","Q","uppercase","322000","0","2","5994e3732ac4863c9ab654c90c03f95b19ecbb542a28485580c2a6122385c433","322013.6999999881","983.4000000357628","77","1","arctic","","","","",""
"dual-task","null","null","null","","swim","arctic","1268.5999999642372","","N","null","77","77","1","arctic-dual-task","","N","uppercase","336000","0","2","5994e3732ac4863c9ab654c90c03f95b19ecbb542a28485580c2a6122385c433","336010.5","1268.5999999642372","77","1","arctic","","","","",""
"dual-task","null","null","null","","swim","arctic","1441.4000000357628","","D","null","77","77","1","arctic-dual-task","","D","uppercase","344000","0","2","5994e3732ac4863c9ab654c90c03f95b19ecbb542a28485580c2a6122385c433","344000.6999999881","1441.4000000357628","77","1","arctic","","","","",""
"dual-task","null","null","null","","swim","arctic","1032","","E","null","77","77","1","arctic-dual-task","","E","uppercase","358000","0","2","5994e3732ac4863c9ab654c90c03f95b19ecbb542a28485580c2a6122385c433","358010.59999996424","1032","77","1","arctic","","","","",""
"dual-task","null","null","null","","swim","arctic","850.8999999761581","","q","null","88","88","1","arctic-dual-task","","q","lowercase","370000","0","2","5994e3732ac4863c9ab654c90c03f95b19ecbb542a28485580c2a6122385c433","370010.89999997616","850.8999999761581","88","1","arctic","","","","",""
"dual-task","null","null","null","","swim","arctic","980.3000000119209","","h","null","88","88","1","arctic-dual-task","","h","lowercase","380000","0","2","5994e3732ac4863c9ab654c90c03f95b19ecbb542a28485580c2a6122385c433","380000.59999996424","980.3000000119209","88","1","arctic","","","","",""
"dual-task","null","null","null","","swim","arctic","1008.3999999761581","","a","null","88","88","1","arctic-dual-task","","a","lowercase","392000","0","2","5994e3732ac4863c9ab654c90c03f95b19ecbb542a28485580c2a6122385c433","391999.7999999523","1008.3999999761581","88","1","arctic","","","","",""
"dual-task","null","null","null","","swim","arctic","787.5","","e","null","88","88","1","arctic-dual-task","","e","lowercase","400000","0","2","5994e3732ac4863c9ab654c90c03f95b19ecbb542a28485580c2a6122385c433","400000.6999999881","787.5","88","1","arctic","","","","",""
"dual-task","null","null","null","","swim","arctic","1729.300000011921","","d","null","88","88","1","arctic-dual-task","","d","lowercase","408000","0","2","5994e3732ac4863c9ab654c90c03f95b19ecbb542a28485580c2a6122385c433","408000.5","1729.300000011921","88","1","arctic","","","","",""
"dual-task","null","null","null","","swim","arctic","1122.300000011921","","E","null","77","77","1","arctic-dual-task","","E","uppercase","420000","0","2","5994e3732ac4863c9ab654c90c03f95b19ecbb542a28485580c2a6122385c433","420000.6999999881","1122.300000011921","77","1","arctic","","","","",""
"dual-task","null","null","null","","swim","arctic","1003.5","","d","null","88","88","1","arctic-dual-task","","d","lowercase","430000","0","2","5994e3732ac4863c9ab654c90c03f95b19ecbb542a28485580c2a6122385c433","430000.6999999881","1003.5","88","1","arctic","","","","",""
"dual-task","null","null","null","","swim","arctic","902","","f","null","88","88","1","arctic-dual-task","","f","lowercase","442000","0","2","5994e3732ac4863c9ab654c90c03f95b19ecbb542a28485580c2a6122385c433","442001.09999996424","902","88","1","arctic","","","","",""
"dual-task","null","null","null","","swim","arctic","NA","","f","null","NA","88","0","arctic-dual-task","","f","lowercase","456000","1","2","5994e3732ac4863c9ab654c90c03f95b19ecbb542a28485580c2a6122385c433","456002.2999999523","NA","NA","0","arctic","","","","",""
"dual-task","null","null","null","","swim","arctic","1059.300000011921","","A","null","77","77","1","arctic-dual-task","","A","uppercase","464000","0","2","5994e3732ac4863c9ab654c90c03f95b19ecbb542a28485580c2a6122385c433","464003.1999999881","1059.300000011921","77","1","arctic","","","","",""
"dual-task","null","null","null","","swim","arctic","NA","","F","null","NA","77","0","arctic-dual-task","","F","uppercase","470000","1","2","5994e3732ac4863c9ab654c90c03f95b19ecbb542a28485580c2a6122385c433","470002.6999999881","NA","NA","0","arctic","","","","",""
"dual-task","null","null","null","","swim","arctic","1090.8999999761581","","T","null","77","77","1","arctic-dual-task","","T","uppercase","476000","0","2","5994e3732ac4863c9ab654c90c03f95b19ecbb542a28485580c2a6122385c433","476003.5","1090.8999999761581","77","1","arctic","","","","",""
"dual-task","null","null","null","","swim","arctic","1833.3999999761581","","b","null","88","88","1","arctic-dual-task","","b","lowercase","490000","0","2","5994e3732ac4863c9ab654c90c03f95b19ecbb542a28485580c2a6122385c433","490001.5","1833.3999999761581","88","1","arctic","","","","",""
"dual-task","null","null","null","","swim","arctic","1016.1000000238419","","r","null","88","88","1","arctic-dual-task","","r","lowercase","502000","0","2","5994e3732ac4863c9ab654c90c03f95b19ecbb542a28485580c2a6122385c433","502004.5","1016.1000000238419","88","1","arctic","","","","",""
"dual-task","null","null","null","","swim","arctic","1393","","B","null","77","77","1","arctic-dual-task","","B","uppercase","510000","0","2","5994e3732ac4863c9ab654c90c03f95b19ecbb542a28485580c2a6122385c433","510010.5","1393","77","1","arctic","","","","",""
"dual-task","null","null","null","","swim","arctic","1098.7999999523163","","a","null","88","88","1","arctic-dual-task","","a","lowercase","516000","0","2","5994e3732ac4863c9ab654c90c03f95b19ecbb542a28485580c2a6122385c433","516011.2999999523","1098.7999999523163","88","1","arctic","","","","",""
"dual-task","null","null","null","","swim","arctic","1302.3999999761581","","b","null","77","88","0","arctic-dual-task","","b","lowercase","526000","0","2","5994e3732ac4863c9ab654c90c03f95b19ecbb542a28485580c2a6122385c433","526011.6999999881","1302.3999999761581","77","0","arctic","","","","",""
"dual-task","null","null","null","","swim","arctic","1301.800000011921","","D","null","77","77","1","arctic-dual-task","","D","uppercase","538000","0","2","5994e3732ac4863c9ab654c90c03f95b19ecbb542a28485580c2a6122385c433","538009.2999999523","1301.800000011921","77","1","arctic","","","","",""
"dual-task","null","null","null","","swim","arctic","1062.699999988079","","N","null","77","77","1","arctic-dual-task","","N","uppercase","552000","0","2","5994e3732ac4863c9ab654c90c03f95b19ecbb542a28485580c2a6122385c433","552000.5999999642","1062.699999988079","77","1","arctic","","","","",""
"dual-task","null","null","null","","swim","arctic","835.5999999642372","","g","null","88","88","1","arctic-dual-task","","g","lowercase","564000","0","2","5994e3732ac4863c9ab654c90c03f95b19ecbb542a28485580c2a6122385c433","564007.0999999642","835.5999999642372","88","1","arctic","","","","",""
"dual-task","null","null","null","","swim","arctic","1510.5","","r","null","88","88","1","arctic-dual-task","","r","lowercase","572000","0","2","5994e3732ac4863c9ab654c90c03f95b19ecbb542a28485580c2a6122385c433","572014.6999999881","1510.5","88","1","arctic","","","","",""
"dual-task","null","null","null","","swim","arctic","NA","","h","null","NA","88","0","arctic-dual-task","","h","lowercase","582000","1","2","5994e3732ac4863c9ab654c90c03f95b19ecbb542a28485580c2a6122385c433","582011.2999999523","NA","NA","0","arctic","","","","",""
"dual-task","null","null","null","","swim","arctic","NA","","f","null","NA","88","0","arctic-dual-task","","f","lowercase","590000","1","2","5994e3732ac4863c9ab654c90c03f95b19ecbb542a28485580c2a6122385c433","590001.8999999762","NA","NA","0","arctic","","","","",""
"dual-task","null","null","null","","swim","arctic","1062","","g","null","88","88","1","arctic-dual-task","","g","lowercase","596000","0","2","5994e3732ac4863c9ab654c90c03f95b19ecbb542a28485580c2a6122385c433","596006.5","1062","88","1","arctic","","","","",""
"dual-task","null","null","null","","swim","arctic","1502.0999999642372","","h","null","88","88","1","arctic-dual-task","","h","lowercase","604000","0","2","5994e3732ac4863c9ab654c90c03f95b19ecbb542a28485580c2a6122385c433","604001.5","1502.0999999642372","88","1","arctic","","","","",""
"dual-task","null","null","null","","swim","arctic","973.2000000476837","","g","null","88","88","1","arctic-dual-task","","g","lowercase","612000","0","2","5994e3732ac4863c9ab654c90c03f95b19ecbb542a28485580c2a6122385c433","612000.6999999881","973.2000000476837","88","1","arctic","","","","",""
"dual-task","null","null","null","","swim","arctic","1254.2000000476837","","r","null","88","88","1","arctic-dual-task","","r","lowercase","624000","0","2","5994e3732ac4863c9ab654c90c03f95b19ecbb542a28485580c2a6122385c433","624017.0999999642","1254.2000000476837","88","1","arctic","","","","",""
"dual-task","null","null","null","","swim","arctic","967.7000000476837","","h","null","88","88","1","arctic-dual-task","","h","lowercase","632000","0","2","5994e3732ac4863c9ab654c90c03f95b19ecbb542a28485580c2a6122385c433","632000.6999999881","967.7000000476837","88","1","arctic","","","","",""
"dual-task","null","null","null","","swim","arctic","1121","","T","null","77","77","1","arctic-dual-task","","T","uppercase","644000","0","2","5994e3732ac4863c9ab654c90c03f95b19ecbb542a28485580c2a6122385c433","644012.3999999762","1121","77","1","arctic","","","","",""
"dual-task","null","null","null","","swim","arctic","1003.8999999761581","","b","null","88","88","1","arctic-dual-task","","b","lowercase","654000","0","2","5994e3732ac4863c9ab654c90c03f95b19ecbb542a28485580c2a6122385c433","654000.6999999881","1003.8999999761581","88","1","arctic","","","","",""
"dual-task","null","null","null","","swim","arctic","933.4000000357628","","q","null","88","88","1","arctic-dual-task","","q","lowercase","664000","0","2","5994e3732ac4863c9ab654c90c03f95b19ecbb542a28485580c2a6122385c433","664000.8999999762","933.4000000357628","88","1","arctic","","","","",""
"dual-task","null","null","null","","swim","arctic","1221.7999999523163","","G","null","77","77","1","arctic-dual-task","","G","uppercase","672000","0","2","5994e3732ac4863c9ab654c90c03f95b19ecbb542a28485580c2a6122385c433","672012.2999999523","1221.7999999523163","77","1","arctic","","","","",""
"dual-task","null","null","null","","swim","arctic","1378.5","","R","null","77","77","1","arctic-dual-task","","R","uppercase","678000","0","2","5994e3732ac4863c9ab654c90c03f95b19ecbb542a28485580c2a6122385c433","678006","1378.5","77","1","arctic","","","","",""
"dual-task","null","null","null","","swim","arctic","1406.199999988079","","F","null","77","77","1","arctic-dual-task","","F","uppercase","686000","0","2","5994e3732ac4863c9ab654c90c03f95b19ecbb542a28485580c2a6122385c433","686001.1999999881","1406.199999988079","77","1","arctic","","","","",""
"dual-task","null","null","null","","swim","arctic","932.0999999642372","","n","null","88","88","1","arctic-dual-task","","n","lowercase","698000","0","2","5994e3732ac4863c9ab654c90c03f95b19ecbb542a28485580c2a6122385c433","698000.8999999762","932.0999999642372","88","1","arctic","","","","",""
"dual-task","null","null","null","","swim","arctic","1361.1000000238419","","R","null","77","77","1","arctic-dual-task","","R","uppercase","712000","0","2","5994e3732ac4863c9ab654c90c03f95b19ecbb542a28485580c2a6122385c433","712001.1999999881","1361.1000000238419","77","1","arctic","","","","",""
"dual-task","null","null","null","","swim","arctic","831.1999999880791","","t","null","88","88","1","arctic-dual-task","","t","lowercase","718000","0","2","5994e3732ac4863c9ab654c90c03f95b19ecbb542a28485580c2a6122385c433","718010.8999999762","831.1999999880791","88","1","arctic","","","","",""
"dual-task","null","null","null","","swim","arctic","1056","","N","null","77","77","1","arctic-dual-task","","N","uppercase","732000","0","2","5994e3732ac4863c9ab654c90c03f95b19ecbb542a28485580c2a6122385c433","732002.0999999642","1056","77","1","arctic","","","","",""
"dual-task","null","null","null","","swim","arctic","1125.7000000476837","","R","null","77","77","1","arctic-dual-task","","R","uppercase","738000","0","2","5994e3732ac4863c9ab654c90c03f95b19ecbb542a28485580c2a6122385c433","738006.8999999762","1125.7000000476837","77","1","arctic","","","","",""
"dual-task","null","null","null","","swim","arctic","976.1999999880791","","A","null","77","77","1","arctic-dual-task","","A","uppercase","752000","0","2","5994e3732ac4863c9ab654c90c03f95b19ecbb542a28485580c2a6122385c433","752001.7999999523","976.1999999880791","77","1","arctic","","","","",""
"dual-task","null","null","null","","swim","arctic","1144.699999988079","","e","null","88","88","1","arctic-dual-task","","e","lowercase","760000","0","2","5994e3732ac4863c9ab654c90c03f95b19ecbb542a28485580c2a6122385c433","760002.5999999642","1144.699999988079","88","1","arctic","","","","",""
"dual-task","null","null","null","","swim","arctic","884.2000000476837","","f","null","88","88","1","arctic-dual-task","","f","lowercase","768000","0","2","5994e3732ac4863c9ab654c90c03f95b19ecbb542a28485580c2a6122385c433","768001.1999999881","884.2000000476837","88","1","arctic","","","","",""
"dual-task","null","null","null","","swim","arctic","1159.800000011921","","B","null","77","77","1","arctic-dual-task","","B","uppercase","780000","0","2","5994e3732ac4863c9ab654c90c03f95b19ecbb542a28485580c2a6122385c433","780011.5","1159.800000011921","77","1","arctic","","","","",""
"audio-keyboard-response","62","1842250","0.0-7.0-2.0-1.0","5994e3732ac4863c9ab654c90c03f95b19ecbb542a28485580c2a6122385c433","swim","arctic","null","","audio/story_arctic_scrambled.mp3","","null","","","","","","","","","","","","","","","","","","","",""
"html-button-response","63","1844703","0.0-7.0-2.0-2.0","5994e3732ac4863c9ab654c90c03f95b19ecbb542a28485580c2a6122385c433","swim","arctic","2449","","<p>This concludes the story. Thank you for listening.</p><p>You will now answer some questions about the content of the story.</p>","0","","","","","","","","","","","","","","","","","","","","",""
"survey-multi-choice","64","1857851","0.0-7.0-2.0-3.0-0.0","5994e3732ac4863c9ab654c90c03f95b19ecbb542a28485580c2a6122385c433","swim","arctic","13141","","<b>How did the narrator prepare for her expedition?</b>","","","","1","arctic-comprehension","","","","","","","","","","","","","{""Q0"":""Trained in Alaska learning how to dogsled""}","","","",""
"survey-multi-choice","65","1866731","0.0-7.0-2.0-3.0-0.1","5994e3732ac4863c9ab654c90c03f95b19ecbb542a28485580c2a6122385c433","swim","arctic","8611","","<b>How did the narrator&#39;s encounter with the polar bears end?</b>","","","","1","arctic-comprehension","","","","","","","","","","","","","{""Q0"":""The bears walked back to their den.""}","","","",""
"survey-multi-choice","66","1871894","0.0-7.0-2.0-3.0-0.2","5994e3732ac4863c9ab654c90c03f95b19ecbb542a28485580c2a6122385c433","swim","arctic","4889","","<b>How many sponsorships did the narrator receive to support her expedition?</b>","","","","1","arctic-comprehension","","","","","","","","","","","","","{""Q0"":""None""}","","","",""
"survey-multi-choice","67","1881457","0.0-7.0-2.0-3.0-0.3","5994e3732ac4863c9ab654c90c03f95b19ecbb542a28485580c2a6122385c433","swim","arctic","9305","","<b>How did the narrator&#39;s neighbour respond when she told him about her expedition?</b>","","","","1","arctic-comprehension","","","","","","","","","","","","","{""Q0"":""He said she was going to fail.""}","","","",""
"survey-multi-choice","68","1889584","0.0-7.0-2.0-3.0-0.4","5994e3732ac4863c9ab654c90c03f95b19ecbb542a28485580c2a6122385c433","swim","arctic","7870","","<b>What did the narrator do for leisure while in her tent?</b>","","","","1","arctic-comprehension","","","","","","","","","","","","","{""Q0"":""Read""}","","","",""
"survey-multi-choice","69","1897495","0.0-7.0-2.0-3.0-0.5","5994e3732ac4863c9ab654c90c03f95b19ecbb542a28485580c2a6122385c433","swim","arctic","7647","","<b>Which dog on the narrator&#39;s dog team never followed instructions?</b>","","","","0","arctic-comprehension","","","","","","","","","","","","","{""Q0"":""Douggie-dog""}","","","",""
"survey-multi-choice","70","1900512","0.0-7.0-2.0-3.0-0.6","5994e3732ac4863c9ab654c90c03f95b19ecbb542a28485580c2a6122385c433","swim","arctic","2757","","<b>What is the name of the narrator&#39;s neighbour?</b>","","","","1","arctic-comprehension","","","","","","","","","","","","","{""Q0"":""Dave""}","","","",""
"survey-multi-choice","71","1910292","0.0-7.0-2.0-3.0-0.7","5994e3732ac4863c9ab654c90c03f95b19ecbb542a28485580c2a6122385c433","swim","arctic","9521","","<b>What was the objective of the narrator&#39;s expedition?</b>","","","","1","arctic-comprehension","","","","","","","","","","","","","{""Q0"":""Dogsled across Arctic America""}","","","",""
"survey-multi-choice","72","1921223","0.0-7.0-2.0-3.0-0.8","5994e3732ac4863c9ab654c90c03f95b19ecbb542a28485580c2a6122385c433","swim","arctic","10674","","<b>How did the dogs respond when they saw the bears?</b>","","","","1","arctic-comprehension","","","","","","","","","","","","","{""Q0"":""Approached them""}","","","",""
"survey-multi-choice","73","1926227","0.0-7.0-2.0-3.0-0.9","5994e3732ac4863c9ab654c90c03f95b19ecbb542a28485580c2a6122385c433","swim","arctic","4745","","<b>What were the weather conditions in the Arctic like the winter of the narrator&#39;s expedition?</b>","","","","0","arctic-comprehension","","","","","","","","","","","","","{""Q0"":""It was the coldest winter in recorded history.""}","","","",""
"html-button-response","74","1928005","0.0-7.0-2.0-4.0","5994e3732ac4863c9ab654c90c03f95b19ecbb542a28485580c2a6122385c433","swim","arctic","1526","","<p>Thank you for your responses.</p><p>You will now answer some questions about your impressions of the story.</p>","0","","","","","","","","","","","","","","","","","","","","",""
"html-button-response","75","1931233","0.0-7.0-2.0-5.0-0.0","5994e3732ac4863c9ab654c90c03f95b19ecbb542a28485580c2a6122385c433","swim","arctic","3226","","EE4","1","","","","arctic-engagement","","","","","","","","","","","","","","2","emo-engage","",""
"html-button-response","76","1934676","0.0-7.0-2.0-5.0-0.1","5994e3732ac4863c9ab654c90c03f95b19ecbb542a28485580c2a6122385c433","swim","arctic","3187","","MS2","2","","","","arctic-engagement","","","","","","","","","","","","","","3","mental-sim","",""
"html-button-response","77","1935514","0.0-7.0-2.0-5.0-0.2","5994e3732ac4863c9ab654c90c03f95b19ecbb542a28485580c2a6122385c433","swim","arctic","584","","E7","1","","","","arctic-engagement","","","","","","","","","","","","","","2","enjoyment","",""
"html-button-response","78","1937637","0.0-7.0-2.0-5.0-0.3","5994e3732ac4863c9ab654c90c03f95b19ecbb542a28485580c2a6122385c433","swim","arctic","1870","","EE5","0","","","","arctic-engagement","","","","","","","","","","","","","","1","emo-engage","",""
"html-button-response","79","1938863","0.0-7.0-2.0-5.0-0.4","5994e3732ac4863c9ab654c90c03f95b19ecbb542a28485580c2a6122385c433","swim","arctic","972","","A3","1","","","","arctic-engagement","","","","","","","","","","","","","","2","absorption","",""
"html-button-response","80","1939678","0.0-7.0-2.0-5.0-0.5","5994e3732ac4863c9ab654c90c03f95b19ecbb542a28485580c2a6122385c433","swim","arctic","562","","E1","1","","","","arctic-engagement","","","","","","","","","","","","","","2","enjoyment","",""
"html-button-response","81","1940825","0.0-7.0-2.0-5.0-0.6","5994e3732ac4863c9ab654c90c03f95b19ecbb542a28485580c2a6122385c433","swim","arctic","890","","E10","0","","","","arctic-engagement","","","","","","","","","","","","","","1","enjoyment","",""
"html-button-response","82","1941901","0.0-7.0-2.0-5.0-0.7","5994e3732ac4863c9ab654c90c03f95b19ecbb542a28485580c2a6122385c433","swim","arctic","823","","E6","0","","","","arctic-engagement","","","","","","","","","","","","","","1","enjoyment","",""
"html-button-response","83","1944292","0.0-7.0-2.0-5.0-0.8","5994e3732ac4863c9ab654c90c03f95b19ecbb542a28485580c2a6122385c433","swim","arctic","2136","","A1","1","","","","arctic-engagement","","","","","","","","","","","","","","2","absorption","",""
"html-button-response","84","1946522","0.0-7.0-2.0-5.0-0.9","5994e3732ac4863c9ab654c90c03f95b19ecbb542a28485580c2a6122385c433","swim","arctic","1977","","MS1","0","","","","arctic-engagement","","","","","","","","","","","","","","1","mental-sim","",""
"html-button-response","85","1950111","0.0-7.0-2.0-5.0-0.10","5994e3732ac4863c9ab654c90c03f95b19ecbb542a28485580c2a6122385c433","swim","arctic","3330","","EE1","2","","","","arctic-engagement","","","","","","","","","","","","","","3","emo-engage","",""
"html-button-response","86","1951196","0.0-7.0-2.0-5.0-0.11","5994e3732ac4863c9ab654c90c03f95b19ecbb542a28485580c2a6122385c433","swim","arctic","832","","MS3","1","","","","arctic-engagement","","","","","","","","","","","","","","2","mental-sim","",""
"html-button-response","87","1953467","0.0-7.0-2.0-5.0-0.12","5994e3732ac4863c9ab654c90c03f95b19ecbb542a28485580c2a6122385c433","swim","arctic","2015","","A2","0","","","","arctic-engagement","","","","","","","","","","","","","","1","absorption","",""
"html-button-response","88","1955400","0.0-7.0-2.0-5.0-0.13","5994e3732ac4863c9ab654c90c03f95b19ecbb542a28485580c2a6122385c433","swim","arctic","1680","","E8","2","","","","arctic-engagement","","","","","","","","","","","","","","3","enjoyment","",""
"html-button-response","89","1957163","0.0-7.0-2.0-5.0-0.14","5994e3732ac4863c9ab654c90c03f95b19ecbb542a28485580c2a6122385c433","swim","arctic","1510","","A4","1","","","","arctic-engagement","","","","","","","","","","","","","","2","absorption","",""
"html-button-response","90","1959311","0.0-7.0-2.0-5.0-0.15","5994e3732ac4863c9ab654c90c03f95b19ecbb542a28485580c2a6122385c433","swim","arctic","1895","","EE2","2","","","","arctic-engagement","","","","","","","","","","","","","","3","emo-engage","",""
"html-button-response","91","1960844","0.0-7.0-2.0-5.0-0.16","5994e3732ac4863c9ab654c90c03f95b19ecbb542a28485580c2a6122385c433","swim","arctic","1270","","A5","1","","","","arctic-engagement","","","","","","","","","","","","","","2","absorption","",""
"html-button-response","92","1962312","0.0-7.0-2.0-5.0-0.17","5994e3732ac4863c9ab654c90c03f95b19ecbb542a28485580c2a6122385c433","swim","arctic","1215","","EE3","0","","","","arctic-engagement","","","","","","","","","","","","","","1","emo-engage","",""
"html-button-response","93","1963511","0.0-8.0","5994e3732ac4863c9ab654c90c03f95b19ecbb542a28485580c2a6122385c433","swim","arctic","946","","<p>Thank you for your responses.</p><p>You will now answer some demographic, hearing, and general health questions.</p>","0","","","","","","","","","","","","","","","","","","","","",""
"survey-multi-choice","94","1965841","0.0-9.0-0.0","5994e3732ac4863c9ab654c90c03f95b19ecbb542a28485580c2a6122385c433","swim","arctic","2321","","","","","","","survey","","","","","","","","","","","","","{""Q0"":""Chrome""}","","","browser",""
"survey-text","95","1969564","0.0-9.0-1.0","5994e3732ac4863c9ab654c90c03f95b19ecbb542a28485580c2a6122385c433","swim","arctic","3463.699999988079","","","","","","","survey","","","","","","","","","","","","","{""AGE"":""28""}","","","age","28"
"survey-multi-choice","96","1972024","0.0-9.0-2.0","5994e3732ac4863c9ab654c90c03f95b19ecbb542a28485580c2a6122385c433","swim","arctic","2201","","","","","","","survey","","","","","","","","","","","","","{""Q0"":""Female""}","","","gender","Female"
"survey-multi-choice","97","1974751","0.0-9.0-4.0","5994e3732ac4863c9ab654c90c03f95b19ecbb542a28485580c2a6122385c433","swim","arctic","2472","","","","","","","survey","","","","","","","","","","","","","{""Q0"":""Right""}","","","handedness","Right"
"survey-multi-choice","98","1977939","0.0-9.0-5.0","5994e3732ac4863c9ab654c90c03f95b19ecbb542a28485580c2a6122385c433","swim","arctic","2925","","","","","","","survey","","","","","","","","","","","","","{""Q0"":""College Degree (2 years)""}","","","education","College Degree (2 years)"
"survey-text","99","1988885","0.0-10.0-0.0","5994e3732ac4863c9ab654c90c03f95b19ecbb542a28485580c2a6122385c433","swim","arctic","10684.199999988079","","","","","","","survey","","","","","","","","","","","","","{""L1"":""english""}","","","first-language","english"
"survey-text","100","2003786","0.0-10.0-1.0","5994e3732ac4863c9ab654c90c03f95b19ecbb542a28485580c2a6122385c433","swim","arctic","14633.599999964237","","","","","","","survey","","","","","","","","","","","","","{""L2name"":"""",""L2fluency"":"""",""L3name"":"""",""L3fluency"":"""",""L4name"":"""",""L4fluency"":""""}","","","additional-languages","{""L2name"":"""",""L2fluency"":"""",""L3name"":"""",""L3fluency"":"""",""L4name"":"""",""L4fluency"":""""}"
"survey-multi-choice","101","2008083","0.0-10.0-2.0","5994e3732ac4863c9ab654c90c03f95b19ecbb542a28485580c2a6122385c433","swim","arctic","4040","","","","","","","survey","","","","","","","","","","","","","{""Q0"":""No""}","","","hearing-aid","No"
"survey-multi-choice","102","2011604","0.0-10.0-3.0","5994e3732ac4863c9ab654c90c03f95b19ecbb542a28485580c2a6122385c433","swim","arctic","3265","","","","","","","survey","","","","","","","","","","","","","{""Q0"":""Never""}","","","ringing-ears","Never"
"survey-multi-choice","103","2013814","0.0-10.0-5.0","5994e3732ac4863c9ab654c90c03f95b19ecbb542a28485580c2a6122385c433","swim","arctic","1953","","","","","","","survey","","","","","","","","","","","","","{""Q0"":""No""}","","","neuro-disease","No"
"survey-multi-choice","104","2020930","0.0-10.0-7.0","5994e3732ac4863c9ab654c90c03f95b19ecbb542a28485580c2a6122385c433","swim","arctic","6862","","","","","","","survey","","","","","","","","","","","","","{""Q0"":""No""}","","","take-meds","No"
"survey-text","105","2023959","0.0-10.0-9.0","5994e3732ac4863c9ab654c90c03f95b19ecbb542a28485580c2a6122385c433","swim","arctic","2685","","","","","","","survey","","","","","","","","","","","","","{""HC"":""""}","","","health-concerns",""
"html-button-response","106","2027162","0.0-11.0-0.0","5994e3732ac4863c9ab654c90c03f95b19ecbb542a28485580c2a6122385c433","swim","arctic","2946","","<p>How would you describe your musical skills/experiences?</p>","2","","","","survey","","","","","","","","","","","","","","","","music-skill","3"
"survey-multi-choice","107","2030185","0.0-11.0-1.0","5994e3732ac4863c9ab654c90c03f95b19ecbb542a28485580c2a6122385c433","swim","arctic","2751","","","","","","","survey","","","","","","","","","","","","","{""Q0"":""No""}","","","music-instrument","No"
"html-button-response","108","2032571","0.0-12.0-0.0","5994e3732ac4863c9ab654c90c03f95b19ecbb542a28485580c2a6122385c433","swim","arctic","2129","","<p>How would you describe your general hearing abilities?</p>","4","","","","survey","","","","","","","","","","","","","","","","ssq-01","5"
"html-button-response","109","2041293","0.0-12.0-1.0","5994e3732ac4863c9ab654c90c03f95b19ecbb542a28485580c2a6122385c433","swim","arctic","8468","","<p>When you talk with someone at a place that strongly reverberates/echoes (e.g., in a church or train station),</br>can you understand what the person says?</p>","9","","","","survey","","","","","","","","","","","","","","","","ssq-02","9"
"html-button-response","110","2044112","0.0-12.0-2.0","5994e3732ac4863c9ab654c90c03f95b19ecbb542a28485580c2a6122385c433","swim","arctic","2564","","<p>When you are with a group (~5 people) in a lively restaurant, can you follow the group's conversation?</p>","9","","","","survey","","","","","","","","","","","","","","","","ssq-03","9"
"html-button-response","111","2048252","0.0-12.0-3.0","5994e3732ac4863c9ab654c90c03f95b19ecbb542a28485580c2a6122385c433","swim","arctic","3885","","<p>Based on the sound of a bus or truck, can you tell whether it is moving towards or away from you?</p>","9","","","","survey","","","","","","","","","","","","","","","","ssq-04","9"
"html-button-response","112","2050476","0.0-12.0-4.0","5994e3732ac4863c9ab654c90c03f95b19ecbb542a28485580c2a6122385c433","swim","arctic","1971","","<p>When you are in an unknown environment, can you tell from which direction a brief sound originates?</p>","8","","","","survey","","","","","","","","","","","","","","","","ssq-05","8"
"html-button-response","113","2052940","0.0-12.0-5.0","5994e3732ac4863c9ab654c90c03f95b19ecbb542a28485580c2a6122385c433","swim","arctic","2207","","<p>Are you able to ignore distracting sounds when you concentrate on a specific aspect of your acoustic surrounding?</p>","9","","","","survey","","","","","","","","","","","","","","","","ssq-06","9"
"fullscreen","114","2054200","0.0-13.0","5994e3732ac4863c9ab654c90c03f95b19ecbb542a28485580c2a6122385c433","swim","arctic","","","","","","","","","true","","","","","","","","","","","","","","","",""
