"trial_type","trial_index","time_elapsed","internal_node_id","ParticipantID","firstStory","scramStory","rt","url","stimulus","button_pressed","key_press","correctRESP","correct","designation","success","letterStim","letterType","ONSET","TIMEOUT","CONDITION","Participant","ONSET_ACTUAL","RT","RESP","ACC","STORY","responses","response","type","surveyQuestion","QRESP"
"pavlovia","0","4","0.0-0.0","01d92d17ed0ea9d99d2bac6381808c7ee69318be66dd3daf29c6bf4568786f8d","swim","swim","","","","","","","","","","","","","","","","","","","","","","","","",""
"external-html","1","7959","0.0-1.0","01d92d17ed0ea9d99d2bac6381808c7ee69318be66dd3daf29c6bf4568786f8d","swim","swim","7846","consent/consent_updated.html","","","","","","","","","","","","","","","","","","","","","","",""
"html-button-response","2","13799","0.0-2.0-0.0","01d92d17ed0ea9d99d2bac6381808c7ee69318be66dd3daf29c6bf4568786f8d","swim","swim","5838","","<p>Before we begin the main task, you will complete a short volume calibration and headphone check.</p><p>Please make sure you are in a quiet listening environment, that you are wearing headphones, and that your computer's volume is turned on.<p></p>","0","","","","","","","","","","","","","","","","","","","","",""
"html-button-response","3","16604","0.0-2.0-1.0","01d92d17ed0ea9d99d2bac6381808c7ee69318be66dd3daf29c6bf4568786f8d","swim","swim","2552","","<p>The volume calibration will be first.</p><p>You will hear a thirty-second noise. Please adjust your computer's volume so that this noise is being presented at a comfortable level.<p></p>","0","","","","","","","","","","","","","","","","","","","","",""
"audio-button-response","4","20550","0.0-2.0-2.0","01d92d17ed0ea9d99d2bac6381808c7ee69318be66dd3daf29c6bf4568786f8d","swim","swim","3693","","audio/volumetest.mp3","0","","","","","","","","","","","","","","","","","","","","",""
"html-keyboard-response","5","26775","0.0-3.0-0.0","01d92d17ed0ea9d99d2bac6381808c7ee69318be66dd3daf29c6bf4568786f8d","swim","swim","6223","","<p>You will now complete a short headphone check.</p><p>On each trial, you will hear three tones. One of these tones will be quieter than the others. Your task is to identify whether the quiet tone occurred first, second, or third.</p><p>There are six trials in total.<p></p><p></p>(Press SPACEBAR to begin)","","32","","","","","","","","","","","","","","","","","","","",""
"html-keyboard-response","6","27526","0.0-3.0-1.0-0.0","01d92d17ed0ea9d99d2bac6381808c7ee69318be66dd3daf29c6bf4568786f8d","swim","swim","null","","<div style=""font-size:60px;"">+</div>","","null","","","","","","","","","","","","","","","","","","","",""
"audio-button-response","7","31907","0.0-3.0-1.0-1.0","01d92d17ed0ea9d99d2bac6381808c7ee69318be66dd3daf29c6bf4568786f8d","swim","swim","4379","","audio/t2_2.mp3","1","","1","1","headphone-test","","","","","","","","","","","","","","","","",""
"html-keyboard-response","8","32408","0.0-3.0-1.0-2.0","01d92d17ed0ea9d99d2bac6381808c7ee69318be66dd3daf29c6bf4568786f8d","swim","swim","null","","<p>Correct</p>","","null","","","","","","","","","","","","","","","","","","","",""
"html-keyboard-response","9","32909","0.0-3.0-1.0-0.1","01d92d17ed0ea9d99d2bac6381808c7ee69318be66dd3daf29c6bf4568786f8d","swim","swim","null","","<div style=""font-size:60px;"">+</div>","","null","","","","","","","","","","","","","","","","","","","",""
"audio-button-response","10","37135","0.0-3.0-1.0-1.1","01d92d17ed0ea9d99d2bac6381808c7ee69318be66dd3daf29c6bf4568786f8d","swim","swim","4225","","audio/t3_2.mp3","2","","2","1","headphone-test","","","","","","","","","","","","","","","","",""
"html-keyboard-response","11","37636","0.0-3.0-1.0-2.1","01d92d17ed0ea9d99d2bac6381808c7ee69318be66dd3daf29c6bf4568786f8d","swim","swim","null","","<p>Correct</p>","","null","","","","","","","","","","","","","","","","","","","",""
"html-keyboard-response","12","38137","0.0-3.0-1.0-0.2","01d92d17ed0ea9d99d2bac6381808c7ee69318be66dd3daf29c6bf4568786f8d","swim","swim","null","","<div style=""font-size:60px;"">+</div>","","null","","","","","","","","","","","","","","","","","","","",""
"audio-button-response","13","42414","0.0-3.0-1.0-1.2","01d92d17ed0ea9d99d2bac6381808c7ee69318be66dd3daf29c6bf4568786f8d","swim","swim","4275","","audio/t1_1.mp3","0","","0","1","headphone-test","","","","","","","","","","","","","","","","",""
"html-keyboard-response","14","42916","0.0-3.0-1.0-2.2","01d92d17ed0ea9d99d2bac6381808c7ee69318be66dd3daf29c6bf4568786f8d","swim","swim","null","","<p>Correct</p>","","null","","","","","","","","","","","","","","","","","","","",""
"html-keyboard-response","15","43418","0.0-3.0-1.0-0.3","01d92d17ed0ea9d99d2bac6381808c7ee69318be66dd3daf29c6bf4568786f8d","swim","swim","null","","<div style=""font-size:60px;"">+</div>","","null","","","","","","","","","","","","","","","","","","","",""
"audio-button-response","16","47642","0.0-3.0-1.0-1.3","01d92d17ed0ea9d99d2bac6381808c7ee69318be66dd3daf29c6bf4568786f8d","swim","swim","4222","","audio/t2_1.mp3","1","","1","1","headphone-test","","","","","","","","","","","","","","","","",""
"html-keyboard-response","17","48145","0.0-3.0-1.0-2.3","01d92d17ed0ea9d99d2bac6381808c7ee69318be66dd3daf29c6bf4568786f8d","swim","swim","null","","<p>Correct</p>","","null","","","","","","","","","","","","","","","","","","","",""
"html-keyboard-response","18","48646","0.0-3.0-1.0-0.4","01d92d17ed0ea9d99d2bac6381808c7ee69318be66dd3daf29c6bf4568786f8d","swim","swim","null","","<div style=""font-size:60px;"">+</div>","","null","","","","","","","","","","","","","","","","","","","",""
"audio-button-response","19","52873","0.0-3.0-1.0-1.4","01d92d17ed0ea9d99d2bac6381808c7ee69318be66dd3daf29c6bf4568786f8d","swim","swim","4226","","audio/t1_2.mp3","0","","0","1","headphone-test","","","","","","","","","","","","","","","","",""
"html-keyboard-response","20","53374","0.0-3.0-1.0-2.4","01d92d17ed0ea9d99d2bac6381808c7ee69318be66dd3daf29c6bf4568786f8d","swim","swim","null","","<p>Correct</p>","","null","","","","","","","","","","","","","","","","","","","",""
"html-keyboard-response","21","53875","0.0-3.0-1.0-0.5","01d92d17ed0ea9d99d2bac6381808c7ee69318be66dd3daf29c6bf4568786f8d","swim","swim","null","","<div style=""font-size:60px;"">+</div>","","null","","","","","","","","","","","","","","","","","","","",""
"audio-button-response","22","57988","0.0-3.0-1.0-1.5","01d92d17ed0ea9d99d2bac6381808c7ee69318be66dd3daf29c6bf4568786f8d","swim","swim","4112","","audio/t3_1.mp3","2","","2","1","headphone-test","","","","","","","","","","","","","","","","",""
"html-keyboard-response","23","58490","0.0-3.0-1.0-2.5","01d92d17ed0ea9d99d2bac6381808c7ee69318be66dd3daf29c6bf4568786f8d","swim","swim","null","","<p>Correct</p>","","null","","","","","","","","","","","","","","","","","","","",""
"fullscreen","24","60876","0.0-4.0","01d92d17ed0ea9d99d2bac6381808c7ee69318be66dd3daf29c6bf4568786f8d","swim","swim","","","","","","","","","true","","","","","","","","","","","","","","","",""
"html-button-response","25","67865","0.0-5.0-0.0","01d92d17ed0ea9d99d2bac6381808c7ee69318be66dd3daf29c6bf4568786f8d","swim","swim","6988","","<p>There are two blocks to this experiment.</p><p>In each block, you will hear a ~13.5 minute story. One of the stories will be scrambled. Please listen carefully to both stories and understand them as best you can.</p><p>After each story, you will be asked some questions to assess your comprehension.</p>","0","","","","","","","","","","","","","","","","","","","","",""
"html-button-response","26","85708","0.0-5.0-1.0","01d92d17ed0ea9d99d2bac6381808c7ee69318be66dd3daf29c6bf4568786f8d","swim","swim","17842","","<p>During each story, there will be an additional task.</p><p>A letter will occasionally appear on the screen.</br>Your job is to - as quickly as you can - decide whether the letter is lowercase or uppercase and press one of two keys on the keyboard:</p><p>If the letter is <b>lowercase</b>, press key &lt;<b>x</b>&gt;.</p><p>If the letter is <b>uppercase</b>, press key &lt;<b>m</b>&gt;.</p>","0","","","","","","","","","","","","","","","","","","","","",""
"html-keyboard-response","27","92689","0.0-5.0-2.0","01d92d17ed0ea9d99d2bac6381808c7ee69318be66dd3daf29c6bf4568786f8d","swim","swim","6980","","<p>Because we want your responses to be as quick as possible, please keep your index fingers over the keys while listening.</p><p>Each block lasts about 20 minutes.</p><p><b>Press &lt;x&gt; or &lt;m&gt; to start the first block!</b></p>","","88","","","","","","","","","","","","","","","","","","","",""
"html-keyboard-response","28","93191","0.0-7.0-0.0-0.0","01d92d17ed0ea9d99d2bac6381808c7ee69318be66dd3daf29c6bf4568786f8d","swim","swim","null","","<div style=""font-size:60px;"" tabindex=""0"">+</div>","","null","","","","","","","","","","","","","","","","","","","",""
"dual-task","null","null","null","","swim","swim","756","","q","null","88","88","1","swim-dual-task","","q","lowercase","18000","0","6","01d92d17ed0ea9d99d2bac6381808c7ee69318be66dd3daf29c6bf4568786f8d","17999","756","88","1","swim","","","","",""
"dual-task","null","null","null","","swim","swim","928","","Q","null","77","77","1","swim-dual-task","","Q","uppercase","30000","0","6","01d92d17ed0ea9d99d2bac6381808c7ee69318be66dd3daf29c6bf4568786f8d","30000","928","77","1","swim","","","","",""
"dual-task","null","null","null","","swim","swim","663","","A","null","77","77","1","swim-dual-task","","A","uppercase","40000","0","6","01d92d17ed0ea9d99d2bac6381808c7ee69318be66dd3daf29c6bf4568786f8d","40000","663","77","1","swim","","","","",""
"dual-task","null","null","null","","swim","swim","603","","g","null","88","88","1","swim-dual-task","","g","lowercase","54000","0","6","01d92d17ed0ea9d99d2bac6381808c7ee69318be66dd3daf29c6bf4568786f8d","53999","603","88","1","swim","","","","",""
"dual-task","null","null","null","","swim","swim","523","","h","null","77","88","0","swim-dual-task","","h","lowercase","62000","0","6","01d92d17ed0ea9d99d2bac6381808c7ee69318be66dd3daf29c6bf4568786f8d","62000","523","77","0","swim","","","","",""
"dual-task","null","null","null","","swim","swim","649","","n","null","88","88","1","swim-dual-task","","n","lowercase","76000","0","6","01d92d17ed0ea9d99d2bac6381808c7ee69318be66dd3daf29c6bf4568786f8d","76000","649","88","1","swim","","","","",""
"dual-task","null","null","null","","swim","swim","701","","N","null","77","77","1","swim-dual-task","","N","uppercase","86000","0","6","01d92d17ed0ea9d99d2bac6381808c7ee69318be66dd3daf29c6bf4568786f8d","86000","701","77","1","swim","","","","",""
"dual-task","null","null","null","","swim","swim","644","","H","null","77","77","1","swim-dual-task","","H","uppercase","100000","0","6","01d92d17ed0ea9d99d2bac6381808c7ee69318be66dd3daf29c6bf4568786f8d","100000","644","77","1","swim","","","","",""
"dual-task","null","null","null","","swim","swim","627","","F","null","77","77","1","swim-dual-task","","F","uppercase","106000","0","6","01d92d17ed0ea9d99d2bac6381808c7ee69318be66dd3daf29c6bf4568786f8d","106000","627","77","1","swim","","","","",""
"dual-task","null","null","null","","swim","swim","578","","T","null","77","77","1","swim-dual-task","","T","uppercase","114000","0","6","01d92d17ed0ea9d99d2bac6381808c7ee69318be66dd3daf29c6bf4568786f8d","114000","578","77","1","swim","","","","",""
"dual-task","null","null","null","","swim","swim","767","","h","null","88","88","1","swim-dual-task","","h","lowercase","128000","0","6","01d92d17ed0ea9d99d2bac6381808c7ee69318be66dd3daf29c6bf4568786f8d","128000","767","88","1","swim","","","","",""
"dual-task","null","null","null","","swim","swim","844","","t","null","88","88","1","swim-dual-task","","t","lowercase","140000","0","6","01d92d17ed0ea9d99d2bac6381808c7ee69318be66dd3daf29c6bf4568786f8d","140000","844","88","1","swim","","","","",""
"dual-task","null","null","null","","swim","swim","915","","g","null","88","88","1","swim-dual-task","","g","lowercase","152000","0","6","01d92d17ed0ea9d99d2bac6381808c7ee69318be66dd3daf29c6bf4568786f8d","152000","915","88","1","swim","","","","",""
"dual-task","null","null","null","","swim","swim","696","","B","null","77","77","1","swim-dual-task","","B","uppercase","164000","0","6","01d92d17ed0ea9d99d2bac6381808c7ee69318be66dd3daf29c6bf4568786f8d","164000","696","77","1","swim","","","","",""
"dual-task","null","null","null","","swim","swim","1470","","T","null","77","77","1","swim-dual-task","","T","uppercase","172000","0","6","01d92d17ed0ea9d99d2bac6381808c7ee69318be66dd3daf29c6bf4568786f8d","172000","1470","77","1","swim","","","","",""
"dual-task","null","null","null","","swim","swim","764","","r","null","88","88","1","swim-dual-task","","r","lowercase","184000","0","6","01d92d17ed0ea9d99d2bac6381808c7ee69318be66dd3daf29c6bf4568786f8d","184000","764","88","1","swim","","","","",""
"dual-task","null","null","null","","swim","swim","698","","A","null","77","77","1","swim-dual-task","","A","uppercase","194000","0","6","01d92d17ed0ea9d99d2bac6381808c7ee69318be66dd3daf29c6bf4568786f8d","194000","698","77","1","swim","","","","",""
"dual-task","null","null","null","","swim","swim","745","","G","null","77","77","1","swim-dual-task","","G","uppercase","206000","0","6","01d92d17ed0ea9d99d2bac6381808c7ee69318be66dd3daf29c6bf4568786f8d","206000","745","77","1","swim","","","","",""
"dual-task","null","null","null","","swim","swim","630","","b","null","88","88","1","swim-dual-task","","b","lowercase","220000","0","6","01d92d17ed0ea9d99d2bac6381808c7ee69318be66dd3daf29c6bf4568786f8d","220000","630","88","1","swim","","","","",""
"dual-task","null","null","null","","swim","swim","603","","E","null","77","77","1","swim-dual-task","","E","uppercase","232000","0","6","01d92d17ed0ea9d99d2bac6381808c7ee69318be66dd3daf29c6bf4568786f8d","232000","603","77","1","swim","","","","",""
"dual-task","null","null","null","","swim","swim","594","","H","null","77","77","1","swim-dual-task","","H","uppercase","242000","0","6","01d92d17ed0ea9d99d2bac6381808c7ee69318be66dd3daf29c6bf4568786f8d","242000","594","77","1","swim","","","","",""
"dual-task","null","null","null","","swim","swim","854","","e","null","88","88","1","swim-dual-task","","e","lowercase","256000","0","6","01d92d17ed0ea9d99d2bac6381808c7ee69318be66dd3daf29c6bf4568786f8d","256000","854","88","1","swim","","","","",""
"dual-task","null","null","null","","swim","swim","630","","H","null","77","77","1","swim-dual-task","","H","uppercase","262000","0","6","01d92d17ed0ea9d99d2bac6381808c7ee69318be66dd3daf29c6bf4568786f8d","262000","630","77","1","swim","","","","",""
"dual-task","null","null","null","","swim","swim","715","","d","null","88","88","1","swim-dual-task","","d","lowercase","272000","0","6","01d92d17ed0ea9d99d2bac6381808c7ee69318be66dd3daf29c6bf4568786f8d","272000","715","88","1","swim","","","","",""
"dual-task","null","null","null","","swim","swim","994","","D","null","77","77","1","swim-dual-task","","D","uppercase","280000","0","6","01d92d17ed0ea9d99d2bac6381808c7ee69318be66dd3daf29c6bf4568786f8d","280001","994","77","1","swim","","","","",""
"dual-task","null","null","null","","swim","swim","672","","t","null","88","88","1","swim-dual-task","","t","lowercase","288000","0","6","01d92d17ed0ea9d99d2bac6381808c7ee69318be66dd3daf29c6bf4568786f8d","288000","672","88","1","swim","","","","",""
"dual-task","null","null","null","","swim","swim","647","","H","null","77","77","1","swim-dual-task","","H","uppercase","300000","0","6","01d92d17ed0ea9d99d2bac6381808c7ee69318be66dd3daf29c6bf4568786f8d","300000","647","77","1","swim","","","","",""
"dual-task","null","null","null","","swim","swim","621","","B","null","77","77","1","swim-dual-task","","B","uppercase","308000","0","6","01d92d17ed0ea9d99d2bac6381808c7ee69318be66dd3daf29c6bf4568786f8d","308000","621","77","1","swim","","","","",""
"dual-task","null","null","null","","swim","swim","780","","e","null","88","88","1","swim-dual-task","","e","lowercase","314000","0","6","01d92d17ed0ea9d99d2bac6381808c7ee69318be66dd3daf29c6bf4568786f8d","314000","780","88","1","swim","","","","",""
"dual-task","null","null","null","","swim","swim","579","","e","null","88","88","1","swim-dual-task","","e","lowercase","324000","0","6","01d92d17ed0ea9d99d2bac6381808c7ee69318be66dd3daf29c6bf4568786f8d","324000","579","88","1","swim","","","","",""
"dual-task","null","null","null","","swim","swim","595","","Q","null","77","77","1","swim-dual-task","","Q","uppercase","334000","0","6","01d92d17ed0ea9d99d2bac6381808c7ee69318be66dd3daf29c6bf4568786f8d","334006","595","77","1","swim","","","","",""
"dual-task","null","null","null","","swim","swim","760","","r","null","88","88","1","swim-dual-task","","r","lowercase","342000","0","6","01d92d17ed0ea9d99d2bac6381808c7ee69318be66dd3daf29c6bf4568786f8d","342001","760","88","1","swim","","","","",""
"dual-task","null","null","null","","swim","swim","598","","g","null","88","88","1","swim-dual-task","","g","lowercase","350000","0","6","01d92d17ed0ea9d99d2bac6381808c7ee69318be66dd3daf29c6bf4568786f8d","350000","598","88","1","swim","","","","",""
"dual-task","null","null","null","","swim","swim","598","","F","null","77","77","1","swim-dual-task","","F","uppercase","358000","0","6","01d92d17ed0ea9d99d2bac6381808c7ee69318be66dd3daf29c6bf4568786f8d","358031","598","77","1","swim","","","","",""
"dual-task","null","null","null","","swim","swim","1028","","r","null","88","88","1","swim-dual-task","","r","lowercase","368000","0","6","01d92d17ed0ea9d99d2bac6381808c7ee69318be66dd3daf29c6bf4568786f8d","368000","1028","88","1","swim","","","","",""
"dual-task","null","null","null","","swim","swim","601","","Q","null","77","77","1","swim-dual-task","","Q","uppercase","376000","0","6","01d92d17ed0ea9d99d2bac6381808c7ee69318be66dd3daf29c6bf4568786f8d","376000","601","77","1","swim","","","","",""
"dual-task","null","null","null","","swim","swim","1263","","d","null","88","88","1","swim-dual-task","","d","lowercase","386000","0","6","01d92d17ed0ea9d99d2bac6381808c7ee69318be66dd3daf29c6bf4568786f8d","386000","1263","88","1","swim","","","","",""
"dual-task","null","null","null","","swim","swim","678","","h","null","88","88","1","swim-dual-task","","h","lowercase","396000","0","6","01d92d17ed0ea9d99d2bac6381808c7ee69318be66dd3daf29c6bf4568786f8d","396000","678","88","1","swim","","","","",""
"dual-task","null","null","null","","swim","swim","700","","G","null","77","77","1","swim-dual-task","","G","uppercase","402000","0","6","01d92d17ed0ea9d99d2bac6381808c7ee69318be66dd3daf29c6bf4568786f8d","402001","700","77","1","swim","","","","",""
"dual-task","null","null","null","","swim","swim","515","","t","null","88","88","1","swim-dual-task","","t","lowercase","414000","0","6","01d92d17ed0ea9d99d2bac6381808c7ee69318be66dd3daf29c6bf4568786f8d","414000","515","88","1","swim","","","","",""
"dual-task","null","null","null","","swim","swim","672","","G","null","77","77","1","swim-dual-task","","G","uppercase","426000","0","6","01d92d17ed0ea9d99d2bac6381808c7ee69318be66dd3daf29c6bf4568786f8d","426000","672","77","1","swim","","","","",""
"dual-task","null","null","null","","swim","swim","798","","a","null","88","88","1","swim-dual-task","","a","lowercase","434000","0","6","01d92d17ed0ea9d99d2bac6381808c7ee69318be66dd3daf29c6bf4568786f8d","434000","798","88","1","swim","","","","",""
"dual-task","null","null","null","","swim","swim","620","","D","null","77","77","1","swim-dual-task","","D","uppercase","446000","0","6","01d92d17ed0ea9d99d2bac6381808c7ee69318be66dd3daf29c6bf4568786f8d","446001","620","77","1","swim","","","","",""
"dual-task","null","null","null","","swim","swim","746","","h","null","88","88","1","swim-dual-task","","h","lowercase","452000","0","6","01d92d17ed0ea9d99d2bac6381808c7ee69318be66dd3daf29c6bf4568786f8d","452000","746","88","1","swim","","","","",""
"dual-task","null","null","null","","swim","swim","602","","N","null","77","77","1","swim-dual-task","","N","uppercase","462000","0","6","01d92d17ed0ea9d99d2bac6381808c7ee69318be66dd3daf29c6bf4568786f8d","462000","602","77","1","swim","","","","",""
"dual-task","null","null","null","","swim","swim","634","","R","null","77","77","1","swim-dual-task","","R","uppercase","468000","0","6","01d92d17ed0ea9d99d2bac6381808c7ee69318be66dd3daf29c6bf4568786f8d","468000","634","77","1","swim","","","","",""
"dual-task","null","null","null","","swim","swim","598","","R","null","77","77","1","swim-dual-task","","R","uppercase","480000","0","6","01d92d17ed0ea9d99d2bac6381808c7ee69318be66dd3daf29c6bf4568786f8d","480001","598","77","1","swim","","","","",""
"dual-task","null","null","null","","swim","swim","677","","b","null","88","88","1","swim-dual-task","","b","lowercase","488000","0","6","01d92d17ed0ea9d99d2bac6381808c7ee69318be66dd3daf29c6bf4568786f8d","488001","677","88","1","swim","","","","",""
"dual-task","null","null","null","","swim","swim","756","","n","null","88","88","1","swim-dual-task","","n","lowercase","496000","0","6","01d92d17ed0ea9d99d2bac6381808c7ee69318be66dd3daf29c6bf4568786f8d","496000","756","88","1","swim","","","","",""
"dual-task","null","null","null","","swim","swim","682","","R","null","77","77","1","swim-dual-task","","R","uppercase","504000","0","6","01d92d17ed0ea9d99d2bac6381808c7ee69318be66dd3daf29c6bf4568786f8d","504000","682","77","1","swim","","","","",""
"dual-task","null","null","null","","swim","swim","663","","Q","null","77","77","1","swim-dual-task","","Q","uppercase","514000","0","6","01d92d17ed0ea9d99d2bac6381808c7ee69318be66dd3daf29c6bf4568786f8d","514000","663","77","1","swim","","","","",""
"dual-task","null","null","null","","swim","swim","607","","A","null","77","77","1","swim-dual-task","","A","uppercase","526000","0","6","01d92d17ed0ea9d99d2bac6381808c7ee69318be66dd3daf29c6bf4568786f8d","526000","607","77","1","swim","","","","",""
"dual-task","null","null","null","","swim","swim","691","","A","null","77","77","1","swim-dual-task","","A","uppercase","534000","0","6","01d92d17ed0ea9d99d2bac6381808c7ee69318be66dd3daf29c6bf4568786f8d","534001","691","77","1","swim","","","","",""
"dual-task","null","null","null","","swim","swim","522","","G","null","77","77","1","swim-dual-task","","G","uppercase","546000","0","6","01d92d17ed0ea9d99d2bac6381808c7ee69318be66dd3daf29c6bf4568786f8d","546000","522","77","1","swim","","","","",""
"dual-task","null","null","null","","swim","swim","664","","T","null","77","77","1","swim-dual-task","","T","uppercase","558000","0","6","01d92d17ed0ea9d99d2bac6381808c7ee69318be66dd3daf29c6bf4568786f8d","558001","664","77","1","swim","","","","",""
"dual-task","null","null","null","","swim","swim","821","","a","null","88","88","1","swim-dual-task","","a","lowercase","570000","0","6","01d92d17ed0ea9d99d2bac6381808c7ee69318be66dd3daf29c6bf4568786f8d","570000","821","88","1","swim","","","","",""
"dual-task","null","null","null","","swim","swim","699","","d","null","88","88","1","swim-dual-task","","d","lowercase","582000","0","6","01d92d17ed0ea9d99d2bac6381808c7ee69318be66dd3daf29c6bf4568786f8d","582000","699","88","1","swim","","","","",""
"dual-task","null","null","null","","swim","swim","713","","d","null","88","88","1","swim-dual-task","","d","lowercase","594000","0","6","01d92d17ed0ea9d99d2bac6381808c7ee69318be66dd3daf29c6bf4568786f8d","594001","713","88","1","swim","","","","",""
"dual-task","null","null","null","","swim","swim","632","","B","null","77","77","1","swim-dual-task","","B","uppercase","602000","0","6","01d92d17ed0ea9d99d2bac6381808c7ee69318be66dd3daf29c6bf4568786f8d","602000","632","77","1","swim","","","","",""
"dual-task","null","null","null","","swim","swim","533","","q","null","88","88","1","swim-dual-task","","q","lowercase","616000","0","6","01d92d17ed0ea9d99d2bac6381808c7ee69318be66dd3daf29c6bf4568786f8d","616000","533","88","1","swim","","","","",""
"dual-task","null","null","null","","swim","swim","669","","e","null","88","88","1","swim-dual-task","","e","lowercase","622000","0","6","01d92d17ed0ea9d99d2bac6381808c7ee69318be66dd3daf29c6bf4568786f8d","622000","669","88","1","swim","","","","",""
"dual-task","null","null","null","","swim","swim","584","","D","null","77","77","1","swim-dual-task","","D","uppercase","636000","0","6","01d92d17ed0ea9d99d2bac6381808c7ee69318be66dd3daf29c6bf4568786f8d","636001","584","77","1","swim","","","","",""
"dual-task","null","null","null","","swim","swim","791","","f","null","88","88","1","swim-dual-task","","f","lowercase","644000","0","6","01d92d17ed0ea9d99d2bac6381808c7ee69318be66dd3daf29c6bf4568786f8d","644001","791","88","1","swim","","","","",""
"dual-task","null","null","null","","swim","swim","574","","E","null","77","77","1","swim-dual-task","","E","uppercase","654000","0","6","01d92d17ed0ea9d99d2bac6381808c7ee69318be66dd3daf29c6bf4568786f8d","654000","574","77","1","swim","","","","",""
"dual-task","null","null","null","","swim","swim","612","","B","null","77","77","1","swim-dual-task","","B","uppercase","668000","0","6","01d92d17ed0ea9d99d2bac6381808c7ee69318be66dd3daf29c6bf4568786f8d","668001","612","77","1","swim","","","","",""
"dual-task","null","null","null","","swim","swim","1066","","f","null","88","88","1","swim-dual-task","","f","lowercase","676000","0","6","01d92d17ed0ea9d99d2bac6381808c7ee69318be66dd3daf29c6bf4568786f8d","676000","1066","88","1","swim","","","","",""
"dual-task","null","null","null","","swim","swim","576","","N","null","77","77","1","swim-dual-task","","N","uppercase","686000","0","6","01d92d17ed0ea9d99d2bac6381808c7ee69318be66dd3daf29c6bf4568786f8d","686001","576","77","1","swim","","","","",""
"dual-task","null","null","null","","swim","swim","662","","T","null","77","77","1","swim-dual-task","","T","uppercase","698000","0","6","01d92d17ed0ea9d99d2bac6381808c7ee69318be66dd3daf29c6bf4568786f8d","698000","662","77","1","swim","","","","",""
"dual-task","null","null","null","","swim","swim","532","","a","null","88","88","1","swim-dual-task","","a","lowercase","708000","0","6","01d92d17ed0ea9d99d2bac6381808c7ee69318be66dd3daf29c6bf4568786f8d","708000","532","88","1","swim","","","","",""
"dual-task","null","null","null","","swim","swim","611","","N","null","77","77","1","swim-dual-task","","N","uppercase","720000","0","6","01d92d17ed0ea9d99d2bac6381808c7ee69318be66dd3daf29c6bf4568786f8d","720001","611","77","1","swim","","","","",""
"dual-task","null","null","null","","swim","swim","489","","F","null","77","77","1","swim-dual-task","","F","uppercase","728000","0","6","01d92d17ed0ea9d99d2bac6381808c7ee69318be66dd3daf29c6bf4568786f8d","728001","489","77","1","swim","","","","",""
"dual-task","null","null","null","","swim","swim","695","","t","null","88","88","1","swim-dual-task","","t","lowercase","740000","0","6","01d92d17ed0ea9d99d2bac6381808c7ee69318be66dd3daf29c6bf4568786f8d","740001","695","88","1","swim","","","","",""
"dual-task","null","null","null","","swim","swim","604","","E","null","77","77","1","swim-dual-task","","E","uppercase","754000","0","6","01d92d17ed0ea9d99d2bac6381808c7ee69318be66dd3daf29c6bf4568786f8d","754000","604","77","1","swim","","","","",""
"dual-task","null","null","null","","swim","swim","618","","R","null","77","77","1","swim-dual-task","","R","uppercase","762000","0","6","01d92d17ed0ea9d99d2bac6381808c7ee69318be66dd3daf29c6bf4568786f8d","762000","618","77","1","swim","","","","",""
"dual-task","null","null","null","","swim","swim","576","","E","null","77","77","1","swim-dual-task","","E","uppercase","770000","0","6","01d92d17ed0ea9d99d2bac6381808c7ee69318be66dd3daf29c6bf4568786f8d","770001","576","77","1","swim","","","","",""
"dual-task","null","null","null","","swim","swim","943","","q","null","88","88","1","swim-dual-task","","q","lowercase","778000","0","6","01d92d17ed0ea9d99d2bac6381808c7ee69318be66dd3daf29c6bf4568786f8d","778001","943","88","1","swim","","","","",""
"dual-task","null","null","null","","swim","swim","815","","n","null","88","88","1","swim-dual-task","","n","lowercase","786000","0","6","01d92d17ed0ea9d99d2bac6381808c7ee69318be66dd3daf29c6bf4568786f8d","786001","815","88","1","swim","","","","",""
"dual-task","null","null","null","","swim","swim","1843","","n","null","88","88","1","swim-dual-task","","n","lowercase","800000","0","6","01d92d17ed0ea9d99d2bac6381808c7ee69318be66dd3daf29c6bf4568786f8d","800001","1843","88","1","swim","","","","",""
"audio-keyboard-response","29","903195","0.0-7.0-0.0-1.0","01d92d17ed0ea9d99d2bac6381808c7ee69318be66dd3daf29c6bf4568786f8d","swim","swim","null","","audio/story_swim_scrambled.mp3","","null","","","","","","","","","","","","","","","","","","","",""
"html-button-response","30","906536","0.0-7.0-0.0-2.0","01d92d17ed0ea9d99d2bac6381808c7ee69318be66dd3daf29c6bf4568786f8d","swim","swim","3340","","<p>This concludes the story. Thank you for listening.</p><p>You will now answer some questions about the content of the story.</p>","0","","","","","","","","","","","","","","","","","","","","",""
"survey-multi-choice","31","910908","0.0-7.0-0.0-3.0-0.0","01d92d17ed0ea9d99d2bac6381808c7ee69318be66dd3daf29c6bf4568786f8d","swim","swim","4365","","<b>How many times did the astronaut candidates have to complete the final exercise to pass?</b>","","","","0","swim-comprehension","","","","","","","","","","","","","{""Q0"":""Ten""}","","","",""
"survey-multi-choice","32","920964","0.0-7.0-0.0-3.0-0.1","01d92d17ed0ea9d99d2bac6381808c7ee69318be66dd3daf29c6bf4568786f8d","swim","swim","9800","","<b>How often does the narrator swim, now that he is a good swimmer?</b>","","","","1","swim-comprehension","","","","","","","","","","","","","{""Q0"":""Never swam again in his life""}","","","",""
"survey-multi-choice","33","927376","0.0-7.0-0.0-3.0-0.2","01d92d17ed0ea9d99d2bac6381808c7ee69318be66dd3daf29c6bf4568786f8d","swim","swim","6154","","<b>How did the narrator train for his swim test?</b>","","","","0","swim-comprehension","","","","","","","","","","","","","{""Q0"":""Signed up for a swim class""}","","","",""
"survey-multi-choice","34","931349","0.0-7.0-0.0-3.0-0.3","01d92d17ed0ea9d99d2bac6381808c7ee69318be66dd3daf29c6bf4568786f8d","swim","swim","3717","","<b>Where is the home of naval aviation?</b>","","","","1","swim-comprehension","","","","","","","","","","","","","{""Q0"":""Pensacola""}","","","",""
"survey-multi-choice","35","934979","0.0-7.0-0.0-3.0-0.4","01d92d17ed0ea9d99d2bac6381808c7ee69318be66dd3daf29c6bf4568786f8d","swim","swim","3375","","<b>What is the narrator afraid of, aside from the water?</b>","","","","1","swim-comprehension","","","","","","","","","","","","","{""Q0"":""Heights""}","","","",""
"survey-multi-choice","36","946801","0.0-7.0-0.0-3.0-0.5","01d92d17ed0ea9d99d2bac6381808c7ee69318be66dd3daf29c6bf4568786f8d","swim","swim","11567","","<b>What were the astronaut candidates trained to do at the naval air station?</b>","","","","1","swim-comprehension","","","","","","","","","","","","","{""Q0"":""Eject out of aircraft and survive in water long enough to be rescued""}","","","",""
"survey-multi-choice","37","956738","0.0-7.0-0.0-3.0-0.6","01d92d17ed0ea9d99d2bac6381808c7ee69318be66dd3daf29c6bf4568786f8d","swim","swim","9682","","<b>What was the final step of the first swim test in the pool?</b>","","","","1","swim-comprehension","","","","","","","","","","","","","{""Q0"":""Tread water with hands above the water""}","","","",""
"survey-multi-choice","38","968980","0.0-7.0-0.0-3.0-0.7","01d92d17ed0ea9d99d2bac6381808c7ee69318be66dd3daf29c6bf4568786f8d","swim","swim","11987","","<b>What gave the narrator his greatest feeling of accomplishment?</b>","","","","1","swim-comprehension","","","","","","","","","","","","","{""Q0"":""Passing the water survival course""}","","","",""
"survey-multi-choice","39","976219","0.0-7.0-0.0-3.0-0.8","01d92d17ed0ea9d99d2bac6381808c7ee69318be66dd3daf29c6bf4568786f8d","swim","swim","6984","","<b>How many astronaut candidates reported for duty at the Johnson Space Center?</b>","","","","1","swim-comprehension","","","","","","","","","","","","","{""Q0"":""Forty-four""}","","","",""
"survey-multi-choice","40","981902","0.0-7.0-0.0-3.0-0.9","01d92d17ed0ea9d99d2bac6381808c7ee69318be66dd3daf29c6bf4568786f8d","swim","swim","5428","","<b>How many astronaut candidates passed the first swim test?</b>","","","","1","swim-comprehension","","","","","","","","","","","","","{""Q0"":""All of them""}","","","",""
"html-button-response","41","984324","0.0-7.0-0.0-4.0","01d92d17ed0ea9d99d2bac6381808c7ee69318be66dd3daf29c6bf4568786f8d","swim","swim","2171","","<p>Thank you for your responses.</p><p>You will now answer some questions about your impressions of the story.</p>","0","","","","","","","","","","","","","","","","","","","","",""
"html-button-response","42","986565","0.0-7.0-0.0-5.0-0.0","01d92d17ed0ea9d99d2bac6381808c7ee69318be66dd3daf29c6bf4568786f8d","swim","swim","2240","","E1","5","","","","swim-engagement","","","","","","","","","","","","","","6","enjoyment","",""
"html-button-response","43","988614","0.0-7.0-0.0-5.0-0.1","01d92d17ed0ea9d99d2bac6381808c7ee69318be66dd3daf29c6bf4568786f8d","swim","swim","1798","","MS1","4","","","","swim-engagement","","","","","","","","","","","","","","5","mental-sim","",""
"html-button-response","44","992438","0.0-7.0-0.0-5.0-0.2","01d92d17ed0ea9d99d2bac6381808c7ee69318be66dd3daf29c6bf4568786f8d","swim","swim","3573","","A4","4","","","","swim-engagement","","","","","","","","","","","","","","5","absorption","",""
"html-button-response","45","995711","0.0-7.0-0.0-5.0-0.3","01d92d17ed0ea9d99d2bac6381808c7ee69318be66dd3daf29c6bf4568786f8d","swim","swim","3020","","MS2","4","","","","swim-engagement","","","","","","","","","","","","","","5","mental-sim","",""
"html-button-response","46","997813","0.0-7.0-0.0-5.0-0.4","01d92d17ed0ea9d99d2bac6381808c7ee69318be66dd3daf29c6bf4568786f8d","swim","swim","1851","","A1","5","","","","swim-engagement","","","","","","","","","","","","","","6","absorption","",""
"html-button-response","47","1000474","0.0-7.0-0.0-5.0-0.5","01d92d17ed0ea9d99d2bac6381808c7ee69318be66dd3daf29c6bf4568786f8d","swim","swim","2409","","EE1","4","","","","swim-engagement","","","","","","","","","","","","","","5","emo-engage","",""
"html-button-response","48","1002587","0.0-7.0-0.0-5.0-0.6","01d92d17ed0ea9d99d2bac6381808c7ee69318be66dd3daf29c6bf4568786f8d","swim","swim","1860","","E7","5","","","","swim-engagement","","","","","","","","","","","","","","6","enjoyment","",""
"html-button-response","49","1005193","0.0-7.0-0.0-5.0-0.7","01d92d17ed0ea9d99d2bac6381808c7ee69318be66dd3daf29c6bf4568786f8d","swim","swim","2356","","EE4","3","","","","swim-engagement","","","","","","","","","","","","","","4","emo-engage","",""
"html-button-response","50","1007604","0.0-7.0-0.0-5.0-0.8","01d92d17ed0ea9d99d2bac6381808c7ee69318be66dd3daf29c6bf4568786f8d","swim","swim","2160","","A5","4","","","","swim-engagement","","","","","","","","","","","","","","5","absorption","",""
"html-button-response","51","1011140","0.0-7.0-0.0-5.0-0.9","01d92d17ed0ea9d99d2bac6381808c7ee69318be66dd3daf29c6bf4568786f8d","swim","swim","3285","","E10","3","","","","swim-engagement","","","","","","","","","","","","","","4","enjoyment","",""
"html-button-response","52","1013603","0.0-7.0-0.0-5.0-0.10","01d92d17ed0ea9d99d2bac6381808c7ee69318be66dd3daf29c6bf4568786f8d","swim","swim","2213","","EE5","3","","","","swim-engagement","","","","","","","","","","","","","","4","emo-engage","",""
"html-button-response","53","1014838","0.0-7.0-0.0-5.0-0.11","01d92d17ed0ea9d99d2bac6381808c7ee69318be66dd3daf29c6bf4568786f8d","swim","swim","982","","EE2","4","","","","swim-engagement","","","","","","","","","","","","","","5","emo-engage","",""
"html-button-response","54","1017325","0.0-7.0-0.0-5.0-0.12","01d92d17ed0ea9d99d2bac6381808c7ee69318be66dd3daf29c6bf4568786f8d","swim","swim","2237","","A2","5","","","","swim-engagement","","","","","","","","","","","","","","6","absorption","",""
"html-button-response","55","1019115","0.0-7.0-0.0-5.0-0.13","01d92d17ed0ea9d99d2bac6381808c7ee69318be66dd3daf29c6bf4568786f8d","swim","swim","1539","","A3","4","","","","swim-engagement","","","","","","","","","","","","","","5","absorption","",""
"html-button-response","56","1020603","0.0-7.0-0.0-5.0-0.14","01d92d17ed0ea9d99d2bac6381808c7ee69318be66dd3daf29c6bf4568786f8d","swim","swim","1236","","E6","4","","","","swim-engagement","","","","","","","","","","","","","","5","enjoyment","",""
"html-button-response","57","1022693","0.0-7.0-0.0-5.0-0.15","01d92d17ed0ea9d99d2bac6381808c7ee69318be66dd3daf29c6bf4568786f8d","swim","swim","1839","","EE3","3","","","","swim-engagement","","","","","","","","","","","","","","4","emo-engage","",""
"html-button-response","58","1024663","0.0-7.0-0.0-5.0-0.16","01d92d17ed0ea9d99d2bac6381808c7ee69318be66dd3daf29c6bf4568786f8d","swim","swim","1719","","MS3","4","","","","swim-engagement","","","","","","","","","","","","","","5","mental-sim","",""
"html-button-response","59","1026578","0.0-7.0-0.0-5.0-0.17","01d92d17ed0ea9d99d2bac6381808c7ee69318be66dd3daf29c6bf4568786f8d","swim","swim","1663","","E8","3","","","","swim-engagement","","","","","","","","","","","","","","4","enjoyment","",""
"html-keyboard-response","60","1039419","0.0-7.0-1.0","01d92d17ed0ea9d99d2bac6381808c7ee69318be66dd3daf29c6bf4568786f8d","swim","swim","12591","","<p>Thank you for your responses. You will now listen to the second story.</p><p>Remember, as you listen to the story you will see letters appear on the screen.</br>As quickly as possible, press <b>&lt;x&gt;</b> if the letter is lowercase and <b>&lt;m&gt;</b> if the letter is uppercase.</p><p>Press <b>&lt;x&gt;</b> or <b>&lt;m&gt;</b> to begin listening!</p>","","88","","","","","","","","","","","","","","","","","","","",""
"html-keyboard-response","61","1039920","0.0-7.0-2.0-0.0","01d92d17ed0ea9d99d2bac6381808c7ee69318be66dd3daf29c6bf4568786f8d","swim","swim","null","","<div style=""font-size:60px;"" tabindex=""0"">+</div>","","null","","","","","","","","","","","","","","","","","","","",""
"dual-task","null","null","null","","swim","swim","695","","g","null","88","88","1","arctic-dual-task","","g","lowercase","12000","0","6","01d92d17ed0ea9d99d2bac6381808c7ee69318be66dd3daf29c6bf4568786f8d","12000","695","88","1","arctic","","","","",""
"dual-task","null","null","null","","swim","swim","837","","q","null","88","88","1","arctic-dual-task","","q","lowercase","24000","0","6","01d92d17ed0ea9d99d2bac6381808c7ee69318be66dd3daf29c6bf4568786f8d","24000","837","88","1","arctic","","","","",""
"dual-task","null","null","null","","swim","swim","578","","A","null","77","77","1","arctic-dual-task","","A","uppercase","36000","0","6","01d92d17ed0ea9d99d2bac6381808c7ee69318be66dd3daf29c6bf4568786f8d","35999","578","77","1","arctic","","","","",""
"dual-task","null","null","null","","swim","swim","417","","G","null","77","77","1","arctic-dual-task","","G","uppercase","46000","0","6","01d92d17ed0ea9d99d2bac6381808c7ee69318be66dd3daf29c6bf4568786f8d","45999","417","77","1","arctic","","","","",""
"dual-task","null","null","null","","swim","swim","494","","h","null","88","88","1","arctic-dual-task","","h","lowercase","60000","0","6","01d92d17ed0ea9d99d2bac6381808c7ee69318be66dd3daf29c6bf4568786f8d","59999","494","88","1","arctic","","","","",""
"dual-task","null","null","null","","swim","swim","517","","D","null","77","77","1","arctic-dual-task","","D","uppercase","70000","0","6","01d92d17ed0ea9d99d2bac6381808c7ee69318be66dd3daf29c6bf4568786f8d","69999","517","77","1","arctic","","","","",""
"dual-task","null","null","null","","swim","swim","587","","b","null","88","88","1","arctic-dual-task","","b","lowercase","82000","0","6","01d92d17ed0ea9d99d2bac6381808c7ee69318be66dd3daf29c6bf4568786f8d","81999","587","88","1","arctic","","","","",""
"dual-task","null","null","null","","swim","swim","537","","f","null","88","88","1","arctic-dual-task","","f","lowercase","92000","0","6","01d92d17ed0ea9d99d2bac6381808c7ee69318be66dd3daf29c6bf4568786f8d","91999","537","88","1","arctic","","","","",""
"dual-task","null","null","null","","swim","swim","398","","b","null","88","88","1","arctic-dual-task","","b","lowercase","104000","0","6","01d92d17ed0ea9d99d2bac6381808c7ee69318be66dd3daf29c6bf4568786f8d","103999","398","88","1","arctic","","","","",""
"dual-task","null","null","null","","swim","swim","549","","N","null","77","77","1","arctic-dual-task","","N","uppercase","112000","0","6","01d92d17ed0ea9d99d2bac6381808c7ee69318be66dd3daf29c6bf4568786f8d","111999","549","77","1","arctic","","","","",""
"dual-task","null","null","null","","swim","swim","492","","E","null","77","77","1","arctic-dual-task","","E","uppercase","120000","0","6","01d92d17ed0ea9d99d2bac6381808c7ee69318be66dd3daf29c6bf4568786f8d","120000","492","77","1","arctic","","","","",""
"dual-task","null","null","null","","swim","swim","465","","E","null","77","77","1","arctic-dual-task","","E","uppercase","130000","0","6","01d92d17ed0ea9d99d2bac6381808c7ee69318be66dd3daf29c6bf4568786f8d","129999","465","77","1","arctic","","","","",""
"dual-task","null","null","null","","swim","swim","544","","F","null","77","77","1","arctic-dual-task","","F","uppercase","136000","0","6","01d92d17ed0ea9d99d2bac6381808c7ee69318be66dd3daf29c6bf4568786f8d","136000","544","77","1","arctic","","","","",""
"dual-task","null","null","null","","swim","swim","615","","e","null","88","88","1","arctic-dual-task","","e","lowercase","144000","0","6","01d92d17ed0ea9d99d2bac6381808c7ee69318be66dd3daf29c6bf4568786f8d","143999","615","88","1","arctic","","","","",""
"dual-task","null","null","null","","swim","swim","573","","g","null","88","88","1","arctic-dual-task","","g","lowercase","158000","0","6","01d92d17ed0ea9d99d2bac6381808c7ee69318be66dd3daf29c6bf4568786f8d","158000","573","88","1","arctic","","","","",""
"dual-task","null","null","null","","swim","swim","563","","e","null","88","88","1","arctic-dual-task","","e","lowercase","168000","0","6","01d92d17ed0ea9d99d2bac6381808c7ee69318be66dd3daf29c6bf4568786f8d","167999","563","88","1","arctic","","","","",""
"dual-task","null","null","null","","swim","swim","600","","R","null","77","77","1","arctic-dual-task","","R","uppercase","178000","0","6","01d92d17ed0ea9d99d2bac6381808c7ee69318be66dd3daf29c6bf4568786f8d","177999","600","77","1","arctic","","","","",""
"dual-task","null","null","null","","swim","swim","551","","d","null","88","88","1","arctic-dual-task","","d","lowercase","188000","0","6","01d92d17ed0ea9d99d2bac6381808c7ee69318be66dd3daf29c6bf4568786f8d","188000","551","88","1","arctic","","","","",""
"dual-task","null","null","null","","swim","swim","612","","D","null","77","77","1","arctic-dual-task","","D","uppercase","202000","0","6","01d92d17ed0ea9d99d2bac6381808c7ee69318be66dd3daf29c6bf4568786f8d","202000","612","77","1","arctic","","","","",""
"dual-task","null","null","null","","swim","swim","546","","R","null","77","77","1","arctic-dual-task","","R","uppercase","214000","0","6","01d92d17ed0ea9d99d2bac6381808c7ee69318be66dd3daf29c6bf4568786f8d","214000","546","77","1","arctic","","","","",""
"dual-task","null","null","null","","swim","swim","497","","d","null","77","88","0","arctic-dual-task","","d","lowercase","220000","0","6","01d92d17ed0ea9d99d2bac6381808c7ee69318be66dd3daf29c6bf4568786f8d","219999","497","77","0","arctic","","","","",""
"dual-task","null","null","null","","swim","swim","609","","B","null","77","77","1","arctic-dual-task","","B","uppercase","232000","0","6","01d92d17ed0ea9d99d2bac6381808c7ee69318be66dd3daf29c6bf4568786f8d","232045","609","77","1","arctic","","","","",""
"dual-task","null","null","null","","swim","swim","661","","T","null","77","77","1","arctic-dual-task","","T","uppercase","240000","0","6","01d92d17ed0ea9d99d2bac6381808c7ee69318be66dd3daf29c6bf4568786f8d","240000","661","77","1","arctic","","","","",""
"dual-task","null","null","null","","swim","swim","620","","H","null","77","77","1","arctic-dual-task","","H","uppercase","248000","0","6","01d92d17ed0ea9d99d2bac6381808c7ee69318be66dd3daf29c6bf4568786f8d","248000","620","77","1","arctic","","","","",""
"dual-task","null","null","null","","swim","swim","457","","N","null","77","77","1","arctic-dual-task","","N","uppercase","258000","0","6","01d92d17ed0ea9d99d2bac6381808c7ee69318be66dd3daf29c6bf4568786f8d","258000","457","77","1","arctic","","","","",""
"dual-task","null","null","null","","swim","swim","535","","A","null","77","77","1","arctic-dual-task","","A","uppercase","270000","0","6","01d92d17ed0ea9d99d2bac6381808c7ee69318be66dd3daf29c6bf4568786f8d","270000","535","77","1","arctic","","","","",""
"dual-task","null","null","null","","swim","swim","686","","q","null","88","88","1","arctic-dual-task","","q","lowercase","282000","0","6","01d92d17ed0ea9d99d2bac6381808c7ee69318be66dd3daf29c6bf4568786f8d","282000","686","88","1","arctic","","","","",""
"dual-task","null","null","null","","swim","swim","547","","F","null","77","77","1","arctic-dual-task","","F","uppercase","292000","0","6","01d92d17ed0ea9d99d2bac6381808c7ee69318be66dd3daf29c6bf4568786f8d","292000","547","77","1","arctic","","","","",""
"dual-task","null","null","null","","swim","swim","858","","H","null","77","77","1","arctic-dual-task","","H","uppercase","300000","0","6","01d92d17ed0ea9d99d2bac6381808c7ee69318be66dd3daf29c6bf4568786f8d","300000","858","77","1","arctic","","","","",""
"dual-task","null","null","null","","swim","swim","625","","Q","null","77","77","1","arctic-dual-task","","Q","uppercase","306000","0","6","01d92d17ed0ea9d99d2bac6381808c7ee69318be66dd3daf29c6bf4568786f8d","306000","625","77","1","arctic","","","","",""
"dual-task","null","null","null","","swim","swim","752","","a","null","88","88","1","arctic-dual-task","","a","lowercase","312000","0","6","01d92d17ed0ea9d99d2bac6381808c7ee69318be66dd3daf29c6bf4568786f8d","312000","752","88","1","arctic","","","","",""
"dual-task","null","null","null","","swim","swim","1215","","T","null","77","77","1","arctic-dual-task","","T","uppercase","318000","0","6","01d92d17ed0ea9d99d2bac6381808c7ee69318be66dd3daf29c6bf4568786f8d","318000","1215","77","1","arctic","","","","",""
"dual-task","null","null","null","","swim","swim","580","","G","null","77","77","1","arctic-dual-task","","G","uppercase","332000","0","6","01d92d17ed0ea9d99d2bac6381808c7ee69318be66dd3daf29c6bf4568786f8d","332000","580","77","1","arctic","","","","",""
"dual-task","null","null","null","","swim","swim","634","","n","null","88","88","1","arctic-dual-task","","n","lowercase","344000","0","6","01d92d17ed0ea9d99d2bac6381808c7ee69318be66dd3daf29c6bf4568786f8d","343999","634","88","1","arctic","","","","",""
"dual-task","null","null","null","","swim","swim","897","","G","null","77","77","1","arctic-dual-task","","G","uppercase","350000","0","6","01d92d17ed0ea9d99d2bac6381808c7ee69318be66dd3daf29c6bf4568786f8d","350000","897","77","1","arctic","","","","",""
"dual-task","null","null","null","","swim","swim","927","","A","null","77","77","1","arctic-dual-task","","A","uppercase","356000","0","6","01d92d17ed0ea9d99d2bac6381808c7ee69318be66dd3daf29c6bf4568786f8d","355999","927","77","1","arctic","","","","",""
"dual-task","null","null","null","","swim","swim","870","","g","null","88","88","1","arctic-dual-task","","g","lowercase","368000","0","6","01d92d17ed0ea9d99d2bac6381808c7ee69318be66dd3daf29c6bf4568786f8d","368000","870","88","1","arctic","","","","",""
"dual-task","null","null","null","","swim","swim","524","","E","null","77","77","1","arctic-dual-task","","E","uppercase","378000","0","6","01d92d17ed0ea9d99d2bac6381808c7ee69318be66dd3daf29c6bf4568786f8d","377999","524","77","1","arctic","","","","",""
"dual-task","null","null","null","","swim","swim","626","","H","null","77","77","1","arctic-dual-task","","H","uppercase","390000","0","6","01d92d17ed0ea9d99d2bac6381808c7ee69318be66dd3daf29c6bf4568786f8d","390000","626","77","1","arctic","","","","",""
"dual-task","null","null","null","","swim","swim","743","","b","null","88","88","1","arctic-dual-task","","b","lowercase","402000","0","6","01d92d17ed0ea9d99d2bac6381808c7ee69318be66dd3daf29c6bf4568786f8d","402000","743","88","1","arctic","","","","",""
"dual-task","null","null","null","","swim","swim","664","","r","null","88","88","1","arctic-dual-task","","r","lowercase","408000","0","6","01d92d17ed0ea9d99d2bac6381808c7ee69318be66dd3daf29c6bf4568786f8d","407999","664","88","1","arctic","","","","",""
"dual-task","null","null","null","","swim","swim","661","","F","null","77","77","1","arctic-dual-task","","F","uppercase","414000","0","6","01d92d17ed0ea9d99d2bac6381808c7ee69318be66dd3daf29c6bf4568786f8d","413999","661","77","1","arctic","","","","",""
"dual-task","null","null","null","","swim","swim","618","","t","null","88","88","1","arctic-dual-task","","t","lowercase","428000","0","6","01d92d17ed0ea9d99d2bac6381808c7ee69318be66dd3daf29c6bf4568786f8d","428000","618","88","1","arctic","","","","",""
"dual-task","null","null","null","","swim","swim","576","","r","null","88","88","1","arctic-dual-task","","r","lowercase","442000","0","6","01d92d17ed0ea9d99d2bac6381808c7ee69318be66dd3daf29c6bf4568786f8d","441999","576","88","1","arctic","","","","",""
"dual-task","null","null","null","","swim","swim","639","","D","null","77","77","1","arctic-dual-task","","D","uppercase","448000","0","6","01d92d17ed0ea9d99d2bac6381808c7ee69318be66dd3daf29c6bf4568786f8d","448000","639","77","1","arctic","","","","",""
"dual-task","null","null","null","","swim","swim","645","","d","null","88","88","1","arctic-dual-task","","d","lowercase","458000","0","6","01d92d17ed0ea9d99d2bac6381808c7ee69318be66dd3daf29c6bf4568786f8d","458000","645","88","1","arctic","","","","",""
"dual-task","null","null","null","","swim","swim","956","","A","null","77","77","1","arctic-dual-task","","A","uppercase","468000","0","6","01d92d17ed0ea9d99d2bac6381808c7ee69318be66dd3daf29c6bf4568786f8d","467999","956","77","1","arctic","","","","",""
"dual-task","null","null","null","","swim","swim","1130","","g","null","88","88","1","arctic-dual-task","","g","lowercase","476000","0","6","01d92d17ed0ea9d99d2bac6381808c7ee69318be66dd3daf29c6bf4568786f8d","476000","1130","88","1","arctic","","","","",""
"dual-task","null","null","null","","swim","swim","888","","G","null","77","77","1","arctic-dual-task","","G","uppercase","486000","0","6","01d92d17ed0ea9d99d2bac6381808c7ee69318be66dd3daf29c6bf4568786f8d","485999","888","77","1","arctic","","","","",""
"dual-task","null","null","null","","swim","swim","885","","R","null","77","77","1","arctic-dual-task","","R","uppercase","496000","0","6","01d92d17ed0ea9d99d2bac6381808c7ee69318be66dd3daf29c6bf4568786f8d","496000","885","77","1","arctic","","","","",""
"dual-task","null","null","null","","swim","swim","685","","t","null","88","88","1","arctic-dual-task","","t","lowercase","506000","0","6","01d92d17ed0ea9d99d2bac6381808c7ee69318be66dd3daf29c6bf4568786f8d","506000","685","88","1","arctic","","","","",""
"dual-task","null","null","null","","swim","swim","634","","b","null","88","88","1","arctic-dual-task","","b","lowercase","516000","0","6","01d92d17ed0ea9d99d2bac6381808c7ee69318be66dd3daf29c6bf4568786f8d","516000","634","88","1","arctic","","","","",""
"dual-task","null","null","null","","swim","swim","1737","","h","null","88","88","1","arctic-dual-task","","h","lowercase","524000","0","6","01d92d17ed0ea9d99d2bac6381808c7ee69318be66dd3daf29c6bf4568786f8d","524000","1737","88","1","arctic","","","","",""
"dual-task","null","null","null","","swim","swim","720","","T","null","77","77","1","arctic-dual-task","","T","uppercase","532000","0","6","01d92d17ed0ea9d99d2bac6381808c7ee69318be66dd3daf29c6bf4568786f8d","532000","720","77","1","arctic","","","","",""
"dual-task","null","null","null","","swim","swim","1670","","a","null","88","88","1","arctic-dual-task","","a","lowercase","540000","0","6","01d92d17ed0ea9d99d2bac6381808c7ee69318be66dd3daf29c6bf4568786f8d","540000","1670","88","1","arctic","","","","",""
"dual-task","null","null","null","","swim","swim","701","","t","null","88","88","1","arctic-dual-task","","t","lowercase","548000","0","6","01d92d17ed0ea9d99d2bac6381808c7ee69318be66dd3daf29c6bf4568786f8d","548000","701","88","1","arctic","","","","",""
"dual-task","null","null","null","","swim","swim","627","","H","null","77","77","1","arctic-dual-task","","H","uppercase","558000","0","6","01d92d17ed0ea9d99d2bac6381808c7ee69318be66dd3daf29c6bf4568786f8d","558000","627","77","1","arctic","","","","",""
"dual-task","null","null","null","","swim","swim","592","","d","null","88","88","1","arctic-dual-task","","d","lowercase","566000","0","6","01d92d17ed0ea9d99d2bac6381808c7ee69318be66dd3daf29c6bf4568786f8d","566000","592","88","1","arctic","","","","",""
"dual-task","null","null","null","","swim","swim","864","","h","null","88","88","1","arctic-dual-task","","h","lowercase","574000","0","6","01d92d17ed0ea9d99d2bac6381808c7ee69318be66dd3daf29c6bf4568786f8d","574000","864","88","1","arctic","","","","",""
"dual-task","null","null","null","","swim","swim","687","","Q","null","77","77","1","arctic-dual-task","","Q","uppercase","582000","0","6","01d92d17ed0ea9d99d2bac6381808c7ee69318be66dd3daf29c6bf4568786f8d","582000","687","77","1","arctic","","","","",""
"dual-task","null","null","null","","swim","swim","892","","q","null","88","88","1","arctic-dual-task","","q","lowercase","588000","0","6","01d92d17ed0ea9d99d2bac6381808c7ee69318be66dd3daf29c6bf4568786f8d","588000","892","88","1","arctic","","","","",""
"dual-task","null","null","null","","swim","swim","660","","T","null","77","77","1","arctic-dual-task","","T","uppercase","596000","0","6","01d92d17ed0ea9d99d2bac6381808c7ee69318be66dd3daf29c6bf4568786f8d","596000","660","77","1","arctic","","","","",""
"dual-task","null","null","null","","swim","swim","626","","f","null","88","88","1","arctic-dual-task","","f","lowercase","606000","0","6","01d92d17ed0ea9d99d2bac6381808c7ee69318be66dd3daf29c6bf4568786f8d","606000","626","88","1","arctic","","","","",""
"dual-task","null","null","null","","swim","swim","721","","D","null","77","77","1","arctic-dual-task","","D","uppercase","616000","0","6","01d92d17ed0ea9d99d2bac6381808c7ee69318be66dd3daf29c6bf4568786f8d","616000","721","77","1","arctic","","","","",""
"dual-task","null","null","null","","swim","swim","960","","h","null","88","88","1","arctic-dual-task","","h","lowercase","626000","0","6","01d92d17ed0ea9d99d2bac6381808c7ee69318be66dd3daf29c6bf4568786f8d","626006","960","88","1","arctic","","","","",""
"dual-task","null","null","null","","swim","swim","786","","B","null","77","77","1","arctic-dual-task","","B","uppercase","634000","0","6","01d92d17ed0ea9d99d2bac6381808c7ee69318be66dd3daf29c6bf4568786f8d","634000","786","77","1","arctic","","","","",""
"dual-task","null","null","null","","swim","swim","1572","","Q","null","77","77","1","arctic-dual-task","","Q","uppercase","640000","0","6","01d92d17ed0ea9d99d2bac6381808c7ee69318be66dd3daf29c6bf4568786f8d","640000","1572","77","1","arctic","","","","",""
"dual-task","null","null","null","","swim","swim","978","","n","null","88","88","1","arctic-dual-task","","n","lowercase","648000","0","6","01d92d17ed0ea9d99d2bac6381808c7ee69318be66dd3daf29c6bf4568786f8d","648000","978","88","1","arctic","","","","",""
"dual-task","null","null","null","","swim","swim","943","","f","null","88","88","1","arctic-dual-task","","f","lowercase","660000","0","6","01d92d17ed0ea9d99d2bac6381808c7ee69318be66dd3daf29c6bf4568786f8d","660001","943","88","1","arctic","","","","",""
"dual-task","null","null","null","","swim","swim","733","","n","null","88","88","1","arctic-dual-task","","n","lowercase","668000","0","6","01d92d17ed0ea9d99d2bac6381808c7ee69318be66dd3daf29c6bf4568786f8d","668000","733","88","1","arctic","","","","",""
"dual-task","null","null","null","","swim","swim","581","","t","null","88","88","1","arctic-dual-task","","t","lowercase","676000","0","6","01d92d17ed0ea9d99d2bac6381808c7ee69318be66dd3daf29c6bf4568786f8d","676000","581","88","1","arctic","","","","",""
"dual-task","null","null","null","","swim","swim","659","","N","null","77","77","1","arctic-dual-task","","N","uppercase","686000","0","6","01d92d17ed0ea9d99d2bac6381808c7ee69318be66dd3daf29c6bf4568786f8d","686000","659","77","1","arctic","","","","",""
"dual-task","null","null","null","","swim","swim","1786","","a","null","88","88","1","arctic-dual-task","","a","lowercase","692000","0","6","01d92d17ed0ea9d99d2bac6381808c7ee69318be66dd3daf29c6bf4568786f8d","692000","1786","88","1","arctic","","","","",""
"dual-task","null","null","null","","swim","swim","609","","e","null","88","88","1","arctic-dual-task","","e","lowercase","702000","0","6","01d92d17ed0ea9d99d2bac6381808c7ee69318be66dd3daf29c6bf4568786f8d","702000","609","88","1","arctic","","","","",""
"dual-task","null","null","null","","swim","swim","800","","a","null","88","88","1","arctic-dual-task","","a","lowercase","710000","0","6","01d92d17ed0ea9d99d2bac6381808c7ee69318be66dd3daf29c6bf4568786f8d","710000","800","88","1","arctic","","","","",""
"dual-task","null","null","null","","swim","swim","574","","q","null","88","88","1","arctic-dual-task","","q","lowercase","716000","0","6","01d92d17ed0ea9d99d2bac6381808c7ee69318be66dd3daf29c6bf4568786f8d","716001","574","88","1","arctic","","","","",""
"dual-task","null","null","null","","swim","swim","637","","r","null","88","88","1","arctic-dual-task","","r","lowercase","724000","0","6","01d92d17ed0ea9d99d2bac6381808c7ee69318be66dd3daf29c6bf4568786f8d","724000","637","88","1","arctic","","","","",""
"dual-task","null","null","null","","swim","swim","556","","e","null","88","88","1","arctic-dual-task","","e","lowercase","732000","0","6","01d92d17ed0ea9d99d2bac6381808c7ee69318be66dd3daf29c6bf4568786f8d","732000","556","88","1","arctic","","","","",""
"dual-task","null","null","null","","swim","swim","882","","E","null","77","77","1","arctic-dual-task","","E","uppercase","740000","0","6","01d92d17ed0ea9d99d2bac6381808c7ee69318be66dd3daf29c6bf4568786f8d","740000","882","77","1","arctic","","","","",""
"dual-task","null","null","null","","swim","swim","656","","f","null","88","88","1","arctic-dual-task","","f","lowercase","748000","0","6","01d92d17ed0ea9d99d2bac6381808c7ee69318be66dd3daf29c6bf4568786f8d","748000","656","88","1","arctic","","","","",""
"dual-task","null","null","null","","swim","swim","757","","N","null","77","77","1","arctic-dual-task","","N","uppercase","760000","0","6","01d92d17ed0ea9d99d2bac6381808c7ee69318be66dd3daf29c6bf4568786f8d","760000","757","77","1","arctic","","","","",""
"dual-task","null","null","null","","swim","swim","603","","B","null","77","77","1","arctic-dual-task","","B","uppercase","770000","0","6","01d92d17ed0ea9d99d2bac6381808c7ee69318be66dd3daf29c6bf4568786f8d","770000","603","77","1","arctic","","","","",""
"dual-task","null","null","null","","swim","swim","889","","R","null","77","77","1","arctic-dual-task","","R","uppercase","776000","0","6","01d92d17ed0ea9d99d2bac6381808c7ee69318be66dd3daf29c6bf4568786f8d","776000","889","77","1","arctic","","","","",""
"dual-task","null","null","null","","swim","swim","649","","n","null","88","88","1","arctic-dual-task","","n","lowercase","790000","0","6","01d92d17ed0ea9d99d2bac6381808c7ee69318be66dd3daf29c6bf4568786f8d","790000","649","88","1","arctic","","","","",""
"audio-keyboard-response","62","1837980","0.0-7.0-2.0-1.0","01d92d17ed0ea9d99d2bac6381808c7ee69318be66dd3daf29c6bf4568786f8d","swim","swim","null","","audio/story_arctic.mp3","","null","","","","","","","","","","","","","","","","","","","",""
"html-button-response","63","1840472","0.0-7.0-2.0-2.0","01d92d17ed0ea9d99d2bac6381808c7ee69318be66dd3daf29c6bf4568786f8d","swim","swim","2491","","<p>This concludes the story. Thank you for listening.</p><p>You will now answer some questions about the content of the story.</p>","0","","","","","","","","","","","","","","","","","","","","",""
"survey-multi-choice","64","1843953","0.0-7.0-2.0-3.0-0.0","01d92d17ed0ea9d99d2bac6381808c7ee69318be66dd3daf29c6bf4568786f8d","swim","swim","3475","","<b>What was the objective of the narrator&#39;s expedition?</b>","","","","1","arctic-comprehension","","","","","","","","","","","","","{""Q0"":""Dogsled across Arctic America""}","","","",""
"survey-multi-choice","65","1851034","0.0-7.0-2.0-3.0-0.1","01d92d17ed0ea9d99d2bac6381808c7ee69318be66dd3daf29c6bf4568786f8d","swim","swim","6823","","<b>How did the narrator&#39;s neighbour respond when she told him about her expedition?</b>","","","","1","arctic-comprehension","","","","","","","","","","","","","{""Q0"":""He said she was going to fail.""}","","","",""
"survey-multi-choice","66","1855036","0.0-7.0-2.0-3.0-0.2","01d92d17ed0ea9d99d2bac6381808c7ee69318be66dd3daf29c6bf4568786f8d","swim","swim","3748","","<b>How many sponsorships did the narrator receive to support her expedition?</b>","","","","1","arctic-comprehension","","","","","","","","","","","","","{""Q0"":""None""}","","","",""
"survey-multi-choice","67","1857833","0.0-7.0-2.0-3.0-0.3","01d92d17ed0ea9d99d2bac6381808c7ee69318be66dd3daf29c6bf4568786f8d","swim","swim","2542","","<b>What is the name of the narrator&#39;s neighbour?</b>","","","","1","arctic-comprehension","","","","","","","","","","","","","{""Q0"":""Dave""}","","","",""
"survey-multi-choice","68","1864211","0.0-7.0-2.0-3.0-0.4","01d92d17ed0ea9d99d2bac6381808c7ee69318be66dd3daf29c6bf4568786f8d","swim","swim","6122","","<b>What were the weather conditions in the Arctic like the winter of the narrator&#39;s expedition?</b>","","","","1","arctic-comprehension","","","","","","","","","","","","","{""Q0"":""There were more storms than any other winter in recorded history.""}","","","",""
"survey-multi-choice","69","1869486","0.0-7.0-2.0-3.0-0.5","01d92d17ed0ea9d99d2bac6381808c7ee69318be66dd3daf29c6bf4568786f8d","swim","swim","5020","","<b>How did the narrator&#39;s encounter with the polar bears end?</b>","","","","1","arctic-comprehension","","","","","","","","","","","","","{""Q0"":""The bears walked back to their den.""}","","","",""
"survey-multi-choice","70","1876283","0.0-7.0-2.0-3.0-0.6","01d92d17ed0ea9d99d2bac6381808c7ee69318be66dd3daf29c6bf4568786f8d","swim","swim","6539","","<b>How did the narrator prepare for her expedition?</b>","","","","1","arctic-comprehension","","","","","","","","","","","","","{""Q0"":""Trained in Alaska learning how to dogsled""}","","","",""
"survey-multi-choice","71","1883709","0.0-7.0-2.0-3.0-0.7","01d92d17ed0ea9d99d2bac6381808c7ee69318be66dd3daf29c6bf4568786f8d","swim","swim","7171","","<b>Which dog on the narrator&#39;s dog team never followed instructions?</b>","","","","1","arctic-comprehension","","","","","","","","","","","","","{""Q0"":""Robert""}","","","",""
"survey-multi-choice","72","1888182","0.0-7.0-2.0-3.0-0.8","01d92d17ed0ea9d99d2bac6381808c7ee69318be66dd3daf29c6bf4568786f8d","swim","swim","4217","","<b>What did the narrator do for leisure while in her tent?</b>","","","","1","arctic-comprehension","","","","","","","","","","","","","{""Q0"":""Read""}","","","",""
"survey-multi-choice","73","1894331","0.0-7.0-2.0-3.0-0.9","01d92d17ed0ea9d99d2bac6381808c7ee69318be66dd3daf29c6bf4568786f8d","swim","swim","5893","","<b>How did the dogs respond when they saw the bears?</b>","","","","1","arctic-comprehension","","","","","","","","","","","","","{""Q0"":""Approached them""}","","","",""
"html-button-response","74","1896001","0.0-7.0-2.0-4.0","01d92d17ed0ea9d99d2bac6381808c7ee69318be66dd3daf29c6bf4568786f8d","swim","swim","1417","","<p>Thank you for your responses.</p><p>You will now answer some questions about your impressions of the story.</p>","0","","","","","","","","","","","","","","","","","","","","",""
"html-button-response","75","1897995","0.0-7.0-2.0-5.0-0.0","01d92d17ed0ea9d99d2bac6381808c7ee69318be66dd3daf29c6bf4568786f8d","swim","swim","1991","","MS1","5","","","","arctic-engagement","","","","","","","","","","","","","","6","mental-sim","",""
"html-button-response","76","1899387","0.0-7.0-2.0-5.0-0.1","01d92d17ed0ea9d99d2bac6381808c7ee69318be66dd3daf29c6bf4568786f8d","swim","swim","1140","","EE2","5","","","","arctic-engagement","","","","","","","","","","","","","","6","emo-engage","",""
"html-button-response","77","1900583","0.0-7.0-2.0-5.0-0.2","01d92d17ed0ea9d99d2bac6381808c7ee69318be66dd3daf29c6bf4568786f8d","swim","swim","945","","MS2","5","","","","arctic-engagement","","","","","","","","","","","","","","6","mental-sim","",""
"html-button-response","78","1902817","0.0-7.0-2.0-5.0-0.3","01d92d17ed0ea9d99d2bac6381808c7ee69318be66dd3daf29c6bf4568786f8d","swim","swim","1982","","A4","4","","","","arctic-engagement","","","","","","","","","","","","","","5","absorption","",""
"html-button-response","79","1904488","0.0-7.0-2.0-5.0-0.4","01d92d17ed0ea9d99d2bac6381808c7ee69318be66dd3daf29c6bf4568786f8d","swim","swim","1419","","EE3","5","","","","arctic-engagement","","","","","","","","","","","","","","6","emo-engage","",""
"html-button-response","80","1906731","0.0-7.0-2.0-5.0-0.5","01d92d17ed0ea9d99d2bac6381808c7ee69318be66dd3daf29c6bf4568786f8d","swim","swim","1991","","E6","6","","","","arctic-engagement","","","","","","","","","","","","","","7","enjoyment","",""
"html-button-response","81","1908311","0.0-7.0-2.0-5.0-0.6","01d92d17ed0ea9d99d2bac6381808c7ee69318be66dd3daf29c6bf4568786f8d","swim","swim","1328","","E1","5","","","","arctic-engagement","","","","","","","","","","","","","","6","enjoyment","",""
"html-button-response","82","1910561","0.0-7.0-2.0-5.0-0.7","01d92d17ed0ea9d99d2bac6381808c7ee69318be66dd3daf29c6bf4568786f8d","swim","swim","1999","","A1","5","","","","arctic-engagement","","","","","","","","","","","","","","6","absorption","",""
"html-button-response","83","1912018","0.0-7.0-2.0-5.0-0.8","01d92d17ed0ea9d99d2bac6381808c7ee69318be66dd3daf29c6bf4568786f8d","swim","swim","1207","","E8","4","","","","arctic-engagement","","","","","","","","","","","","","","5","enjoyment","",""
"html-button-response","84","1913355","0.0-7.0-2.0-5.0-0.9","01d92d17ed0ea9d99d2bac6381808c7ee69318be66dd3daf29c6bf4568786f8d","swim","swim","1085","","EE1","5","","","","arctic-engagement","","","","","","","","","","","","","","6","emo-engage","",""
"html-button-response","85","1915375","0.0-7.0-2.0-5.0-0.10","01d92d17ed0ea9d99d2bac6381808c7ee69318be66dd3daf29c6bf4568786f8d","swim","swim","1768","","A5","5","","","","arctic-engagement","","","","","","","","","","","","","","6","absorption","",""
"html-button-response","86","1917426","0.0-7.0-2.0-5.0-0.11","01d92d17ed0ea9d99d2bac6381808c7ee69318be66dd3daf29c6bf4568786f8d","swim","swim","1798","","A2","6","","","","arctic-engagement","","","","","","","","","","","","","","7","absorption","",""
"html-button-response","87","1919218","0.0-7.0-2.0-5.0-0.12","01d92d17ed0ea9d99d2bac6381808c7ee69318be66dd3daf29c6bf4568786f8d","swim","swim","1541","","E10","6","","","","arctic-engagement","","","","","","","","","","","","","","7","enjoyment","",""
"html-button-response","88","1920407","0.0-7.0-2.0-5.0-0.13","01d92d17ed0ea9d99d2bac6381808c7ee69318be66dd3daf29c6bf4568786f8d","swim","swim","938","","EE4","5","","","","arctic-engagement","","","","","","","","","","","","","","6","emo-engage","",""
"html-button-response","89","1921919","0.0-7.0-2.0-5.0-0.14","01d92d17ed0ea9d99d2bac6381808c7ee69318be66dd3daf29c6bf4568786f8d","swim","swim","1261","","MS3","6","","","","arctic-engagement","","","","","","","","","","","","","","7","mental-sim","",""
"html-button-response","90","1923300","0.0-7.0-2.0-5.0-0.15","01d92d17ed0ea9d99d2bac6381808c7ee69318be66dd3daf29c6bf4568786f8d","swim","swim","1131","","A3","5","","","","arctic-engagement","","","","","","","","","","","","","","6","absorption","",""
"html-button-response","91","1924642","0.0-7.0-2.0-5.0-0.16","01d92d17ed0ea9d99d2bac6381808c7ee69318be66dd3daf29c6bf4568786f8d","swim","swim","1090","","EE5","5","","","","arctic-engagement","","","","","","","","","","","","","","6","emo-engage","",""
"html-button-response","92","1926493","0.0-7.0-2.0-5.0-0.17","01d92d17ed0ea9d99d2bac6381808c7ee69318be66dd3daf29c6bf4568786f8d","swim","swim","1599","","E7","5","","","","arctic-engagement","","","","","","","","","","","","","","6","enjoyment","",""
"html-button-response","93","1928076","0.0-8.0","01d92d17ed0ea9d99d2bac6381808c7ee69318be66dd3daf29c6bf4568786f8d","swim","swim","1332","","<p>Thank you for your responses.</p><p>You will now answer some demographic, hearing, and general health questions.</p>","0","","","","","","","","","","","","","","","","","","","","",""
"survey-multi-choice","94","1931051","0.0-9.0-0.0","01d92d17ed0ea9d99d2bac6381808c7ee69318be66dd3daf29c6bf4568786f8d","swim","swim","2968","","","","","","","survey","","","","","","","","","","","","","{""Q0"":""Firefox""}","","","browser",""
"survey-text","95","1936104","0.0-9.0-1.0","01d92d17ed0ea9d99d2bac6381808c7ee69318be66dd3daf29c6bf4568786f8d","swim","swim","4798","","","","","","","survey","","","","","","","","","","","","","{""AGE"":""27""}","","","age","27"
"survey-multi-choice","96","1938141","0.0-9.0-2.0","01d92d17ed0ea9d99d2bac6381808c7ee69318be66dd3daf29c6bf4568786f8d","swim","swim","1780","","","","","","","survey","","","","","","","","","","","","","{""Q0"":""Male""}","","","gender","Male"
"survey-multi-choice","97","1940557","0.0-9.0-4.0","01d92d17ed0ea9d99d2bac6381808c7ee69318be66dd3daf29c6bf4568786f8d","swim","swim","2164","","","","","","","survey","","","","","","","","","","","","","{""Q0"":""Left""}","","","handedness","Left"
"survey-multi-choice","98","1943468","0.0-9.0-5.0","01d92d17ed0ea9d99d2bac6381808c7ee69318be66dd3daf29c6bf4568786f8d","swim","swim","2653","","","","","","","survey","","","","","","","","","","","","","{""Q0"":""High school""}","","","education","High school"
"survey-text","99","1948145","0.0-10.0-0.0","01d92d17ed0ea9d99d2bac6381808c7ee69318be66dd3daf29c6bf4568786f8d","swim","swim","4422","","","","","","","survey","","","","","","","","","","","","","{""L1"":""English""}","","","first-language","English"
"survey-text","100","1961357","0.0-10.0-1.0","01d92d17ed0ea9d99d2bac6381808c7ee69318be66dd3daf29c6bf4568786f8d","swim","swim","12956","","","","","","","survey","","","","","","","","","","","","","{""L2name"":"""",""L2fluency"":"""",""L3name"":"""",""L3fluency"":"""",""L4name"":"""",""L4fluency"":""""}","","","additional-languages","{""L2name"":"""",""L2fluency"":"""",""L3name"":"""",""L3fluency"":"""",""L4name"":"""",""L4fluency"":""""}"
"survey-multi-choice","101","1964326","0.0-10.0-2.0","01d92d17ed0ea9d99d2bac6381808c7ee69318be66dd3daf29c6bf4568786f8d","swim","swim","2713","","","","","","","survey","","","","","","","","","","","","","{""Q0"":""No""}","","","hearing-aid","No"
"survey-multi-choice","102","1967109","0.0-10.0-3.0","01d92d17ed0ea9d99d2bac6381808c7ee69318be66dd3daf29c6bf4568786f8d","swim","swim","2529","","","","","","","survey","","","","","","","","","","","","","{""Q0"":""Sometimes""}","","","ringing-ears","Sometimes"
"survey-multi-choice","103","1970320","0.0-10.0-4.0-0.0","01d92d17ed0ea9d99d2bac6381808c7ee69318be66dd3daf29c6bf4568786f8d","swim","swim","2956","","","","","","","survey","","","","","","","","","","","","","{""Q0"":""Both Ears""}","","","ringing-ear-loc","Both Ears"
"survey-multi-choice","104","1972761","0.0-10.0-5.0","01d92d17ed0ea9d99d2bac6381808c7ee69318be66dd3daf29c6bf4568786f8d","swim","swim","2186","","","","","","","survey","","","","","","","","","","","","","{""Q0"":""No""}","","","neuro-disease","No"
"survey-multi-choice","105","1975753","0.0-10.0-7.0","01d92d17ed0ea9d99d2bac6381808c7ee69318be66dd3daf29c6bf4568786f8d","swim","swim","2738","","","","","","","survey","","","","","","","","","","","","","{""Q0"":""No""}","","","take-meds","No"
"survey-text","106","1978740","0.0-10.0-9.0","01d92d17ed0ea9d99d2bac6381808c7ee69318be66dd3daf29c6bf4568786f8d","swim","swim","2731","","","","","","","survey","","","","","","","","","","","","","{""HC"":""""}","","","health-concerns",""
"html-button-response","107","1981287","0.0-11.0-0.0","01d92d17ed0ea9d99d2bac6381808c7ee69318be66dd3daf29c6bf4568786f8d","swim","swim","2295","","<p>How would you describe your musical skills/experiences?</p>","2","","","","survey","","","","","","","","","","","","","","","","music-skill","3"
"survey-multi-choice","108","1983727","0.0-11.0-1.0","01d92d17ed0ea9d99d2bac6381808c7ee69318be66dd3daf29c6bf4568786f8d","swim","swim","2188","","","","","","","survey","","","","","","","","","","","","","{""Q0"":""No""}","","","music-instrument","No"
"html-button-response","109","1986695","0.0-12.0-0.0","01d92d17ed0ea9d99d2bac6381808c7ee69318be66dd3daf29c6bf4568786f8d","swim","swim","2716","","<p>How would you describe your general hearing abilities?</p>","4","","","","survey","","","","","","","","","","","","","","","","ssq-01","5"
"html-button-response","110","1996115","0.0-12.0-1.0","01d92d17ed0ea9d99d2bac6381808c7ee69318be66dd3daf29c6bf4568786f8d","swim","swim","9169","","<p>When you talk with someone at a place that strongly reverberates/echoes (e.g., in a church or train station),</br>can you understand what the person says?</p>","8","","","","survey","","","","","","","","","","","","","","","","ssq-02","8"
"html-button-response","111","1999458","0.0-12.0-2.0","01d92d17ed0ea9d99d2bac6381808c7ee69318be66dd3daf29c6bf4568786f8d","swim","swim","3089","","<p>When you are with a group (~5 people) in a lively restaurant, can you follow the group's conversation?</p>","7","","","","survey","","","","","","","","","","","","","","","","ssq-03","7"
"html-button-response","112","2003458","0.0-12.0-3.0","01d92d17ed0ea9d99d2bac6381808c7ee69318be66dd3daf29c6bf4568786f8d","swim","swim","3748","","<p>Based on the sound of a bus or truck, can you tell whether it is moving towards or away from you?</p>","8","","","","survey","","","","","","","","","","","","","","","","ssq-04","8"
"html-button-response","113","2006874","0.0-12.0-4.0","01d92d17ed0ea9d99d2bac6381808c7ee69318be66dd3daf29c6bf4568786f8d","swim","swim","3164","","<p>When you are in an unknown environment, can you tell from which direction a brief sound originates?</p>","8","","","","survey","","","","","","","","","","","","","","","","ssq-05","8"
"html-button-response","114","2010220","0.0-12.0-5.0","01d92d17ed0ea9d99d2bac6381808c7ee69318be66dd3daf29c6bf4568786f8d","swim","swim","3094","","<p>Are you able to ignore distracting sounds when you concentrate on a specific aspect of your acoustic surrounding?</p>","6","","","","survey","","","","","","","","","","","","","","","","ssq-06","6"
"fullscreen","115","2011471","0.0-13.0","01d92d17ed0ea9d99d2bac6381808c7ee69318be66dd3daf29c6bf4568786f8d","swim","swim","","","","","","","","","true","","","","","","","","","","","","","","","",""
