"trial_type","trial_index","time_elapsed","internal_node_id","ParticipantID","firstStory","scramStory","rt","url","stimulus","button_pressed","key_press","correctRESP","correct","designation","success","letterStim","letterType","ONSET","TIMEOUT","CONDITION","Participant","ONSET_ACTUAL","RT","RESP","ACC","STORY","responses","response","type","surveyQuestion","QRESP"
"pavlovia","0","5","0.0-0.0","f8b30101a34549c3e95f36030da3b5f289afb411f88937e19d9de1fa086a9ce4","swim","arctic","","","","","","","","","","","","","","","","","","","","","","","","",""
"external-html","1","86336","0.0-1.0","f8b30101a34549c3e95f36030da3b5f289afb411f88937e19d9de1fa086a9ce4","swim","arctic","86189","consent/consent_updated.html","","","","","","","","","","","","","","","","","","","","","","",""
"html-button-response","2","90560","0.0-2.0-0.0","f8b30101a34549c3e95f36030da3b5f289afb411f88937e19d9de1fa086a9ce4","swim","arctic","4222","","<p>Before we begin the main task, you will complete a short volume calibration and headphone check.</p><p>Please make sure you are in a quiet listening environment, that you are wearing headphones, and that your computer's volume is turned on.<p></p>","0","","","","","","","","","","","","","","","","","","","","",""
"html-button-response","3","104826","0.0-2.0-1.0","f8b30101a34549c3e95f36030da3b5f289afb411f88937e19d9de1fa086a9ce4","swim","arctic","14013","","<p>The volume calibration will be first.</p><p>You will hear a thirty-second noise. Please adjust your computer's volume so that this noise is being presented at a comfortable level.<p></p>","0","","","","","","","","","","","","","","","","","","","","",""
"audio-button-response","4","107497","0.0-2.0-2.0","f8b30101a34549c3e95f36030da3b5f289afb411f88937e19d9de1fa086a9ce4","swim","arctic","2399","","audio/volumetest.mp3","0","","","","","","","","","","","","","","","","","","","","",""
"html-keyboard-response","5","130173","0.0-3.0-0.0","f8b30101a34549c3e95f36030da3b5f289afb411f88937e19d9de1fa086a9ce4","swim","arctic","22675","","<p>You will now complete a short headphone check.</p><p>On each trial, you will hear three tones. One of these tones will be quieter than the others. Your task is to identify whether the quiet tone occurred first, second, or third.</p><p>There are six trials in total.<p></p><p></p>(Press SPACEBAR to begin)","","32","","","","","","","","","","","","","","","","","","","",""
"html-keyboard-response","6","130941","0.0-3.0-1.0-0.0","f8b30101a34549c3e95f36030da3b5f289afb411f88937e19d9de1fa086a9ce4","swim","arctic","null","","<div style=""font-size:60px;"">+</div>","","null","","","","","","","","","","","","","","","","","","","",""
"audio-button-response","7","135259","0.0-3.0-1.0-1.0","f8b30101a34549c3e95f36030da3b5f289afb411f88937e19d9de1fa086a9ce4","swim","arctic","4316","","audio/t2_1.mp3","1","","1","1","headphone-test","","","","","","","","","","","","","","","","",""
"html-keyboard-response","8","135766","0.0-3.0-1.0-2.0","f8b30101a34549c3e95f36030da3b5f289afb411f88937e19d9de1fa086a9ce4","swim","arctic","null","","<p>Correct</p>","","null","","","","","","","","","","","","","","","","","","","",""
"html-keyboard-response","9","136271","0.0-3.0-1.0-0.1","f8b30101a34549c3e95f36030da3b5f289afb411f88937e19d9de1fa086a9ce4","swim","arctic","null","","<div style=""font-size:60px;"">+</div>","","null","","","","","","","","","","","","","","","","","","","",""
"audio-button-response","10","140788","0.0-3.0-1.0-1.1","f8b30101a34549c3e95f36030da3b5f289afb411f88937e19d9de1fa086a9ce4","swim","arctic","4517","","audio/t3_2.mp3","2","","2","1","headphone-test","","","","","","","","","","","","","","","","",""
"html-keyboard-response","11","141291","0.0-3.0-1.0-2.1","f8b30101a34549c3e95f36030da3b5f289afb411f88937e19d9de1fa086a9ce4","swim","arctic","null","","<p>Correct</p>","","null","","","","","","","","","","","","","","","","","","","",""
"html-keyboard-response","12","141794","0.0-3.0-1.0-0.2","f8b30101a34549c3e95f36030da3b5f289afb411f88937e19d9de1fa086a9ce4","swim","arctic","null","","<div style=""font-size:60px;"">+</div>","","null","","","","","","","","","","","","","","","","","","","",""
"audio-button-response","13","146158","0.0-3.0-1.0-1.2","f8b30101a34549c3e95f36030da3b5f289afb411f88937e19d9de1fa086a9ce4","swim","arctic","4363","","audio/t1_1.mp3","0","","0","1","headphone-test","","","","","","","","","","","","","","","","",""
"html-keyboard-response","14","146667","0.0-3.0-1.0-2.2","f8b30101a34549c3e95f36030da3b5f289afb411f88937e19d9de1fa086a9ce4","swim","arctic","null","","<p>Correct</p>","","null","","","","","","","","","","","","","","","","","","","",""
"html-keyboard-response","15","147182","0.0-3.0-1.0-0.3","f8b30101a34549c3e95f36030da3b5f289afb411f88937e19d9de1fa086a9ce4","swim","arctic","null","","<div style=""font-size:60px;"">+</div>","","null","","","","","","","","","","","","","","","","","","","",""
"audio-button-response","16","151517","0.0-3.0-1.0-1.3","f8b30101a34549c3e95f36030da3b5f289afb411f88937e19d9de1fa086a9ce4","swim","arctic","4335","","audio/t1_2.mp3","0","","0","1","headphone-test","","","","","","","","","","","","","","","","",""
"html-keyboard-response","17","152023","0.0-3.0-1.0-2.3","f8b30101a34549c3e95f36030da3b5f289afb411f88937e19d9de1fa086a9ce4","swim","arctic","null","","<p>Correct</p>","","null","","","","","","","","","","","","","","","","","","","",""
"html-keyboard-response","18","152538","0.0-3.0-1.0-0.4","f8b30101a34549c3e95f36030da3b5f289afb411f88937e19d9de1fa086a9ce4","swim","arctic","null","","<div style=""font-size:60px;"">+</div>","","null","","","","","","","","","","","","","","","","","","","",""
"audio-button-response","19","157054","0.0-3.0-1.0-1.4","f8b30101a34549c3e95f36030da3b5f289afb411f88937e19d9de1fa086a9ce4","swim","arctic","4515","","audio/t3_1.mp3","2","","2","1","headphone-test","","","","","","","","","","","","","","","","",""
"html-keyboard-response","20","157565","0.0-3.0-1.0-2.4","f8b30101a34549c3e95f36030da3b5f289afb411f88937e19d9de1fa086a9ce4","swim","arctic","null","","<p>Correct</p>","","null","","","","","","","","","","","","","","","","","","","",""
"html-keyboard-response","21","158077","0.0-3.0-1.0-0.5","f8b30101a34549c3e95f36030da3b5f289afb411f88937e19d9de1fa086a9ce4","swim","arctic","null","","<div style=""font-size:60px;"">+</div>","","null","","","","","","","","","","","","","","","","","","","",""
"audio-button-response","22","162877","0.0-3.0-1.0-1.5","f8b30101a34549c3e95f36030da3b5f289afb411f88937e19d9de1fa086a9ce4","swim","arctic","4798","","audio/t2_2.mp3","1","","1","1","headphone-test","","","","","","","","","","","","","","","","",""
"html-keyboard-response","23","163379","0.0-3.0-1.0-2.5","f8b30101a34549c3e95f36030da3b5f289afb411f88937e19d9de1fa086a9ce4","swim","arctic","null","","<p>Correct</p>","","null","","","","","","","","","","","","","","","","","","","",""
"fullscreen","24","297252","0.0-4.0","f8b30101a34549c3e95f36030da3b5f289afb411f88937e19d9de1fa086a9ce4","swim","arctic","","","","","","","","","true","","","","","","","","","","","","","","","",""
"html-button-response","25","306774","0.0-5.0-0.0","f8b30101a34549c3e95f36030da3b5f289afb411f88937e19d9de1fa086a9ce4","swim","arctic","9521","","<p>There are two blocks to this experiment.</p><p>In each block, you will hear a ~13.5 minute story. One of the stories will be scrambled. Please listen carefully to both stories and understand them as best you can.</p><p>After each story, you will be asked some questions to assess your comprehension.</p>","0","","","","","","","","","","","","","","","","","","","","",""
"html-button-response","26","327330","0.0-5.0-1.0","f8b30101a34549c3e95f36030da3b5f289afb411f88937e19d9de1fa086a9ce4","swim","arctic","20554","","<p>During each story, there will be an additional task.</p><p>A letter will occasionally appear on the screen.</br>Your job is to - as quickly as you can - decide whether the letter is lowercase or uppercase and press one of two keys on the keyboard:</p><p>If the letter is <b>lowercase</b>, press key &lt;<b>x</b>&gt;.</p><p>If the letter is <b>uppercase</b>, press key &lt;<b>m</b>&gt;.</p>","0","","","","","","","","","","","","","","","","","","","","",""
"html-keyboard-response","27","331849","0.0-5.0-2.0","f8b30101a34549c3e95f36030da3b5f289afb411f88937e19d9de1fa086a9ce4","swim","arctic","4519","","<p>Because we want your responses to be as quick as possible, please keep your index fingers over the keys while listening.</p><p>Each block lasts about 20 minutes.</p><p><b>Press &lt;x&gt; or &lt;m&gt; to start the first block!</b></p>","","88","","","","","","","","","","","","","","","","","","","",""
"html-keyboard-response","28","332352","0.0-7.0-0.0-0.0","f8b30101a34549c3e95f36030da3b5f289afb411f88937e19d9de1fa086a9ce4","swim","arctic","null","","<div style=""font-size:60px;"" tabindex=""0"">+</div>","","null","","","","","","","","","","","","","","","","","","","",""
"dual-task","null","null","null","","swim","arctic","1155","","g","null","88","88","1","swim-dual-task","","g","lowercase","16000","0","5","f8b30101a34549c3e95f36030da3b5f289afb411f88937e19d9de1fa086a9ce4","15997","1155","88","1","swim","","","","",""
"dual-task","null","null","null","","swim","arctic","674","","f","null","88","88","1","swim-dual-task","","f","lowercase","26000","0","5","f8b30101a34549c3e95f36030da3b5f289afb411f88937e19d9de1fa086a9ce4","26005","674","88","1","swim","","","","",""
"dual-task","null","null","null","","swim","arctic","1046","","a","null","88","88","1","swim-dual-task","","a","lowercase","38000","0","5","f8b30101a34549c3e95f36030da3b5f289afb411f88937e19d9de1fa086a9ce4","37996","1046","88","1","swim","","","","",""
"dual-task","null","null","null","","swim","arctic","489","","D","null","88","77","0","swim-dual-task","","D","uppercase","48000","0","5","f8b30101a34549c3e95f36030da3b5f289afb411f88937e19d9de1fa086a9ce4","47997","489","88","0","swim","","","","",""
"dual-task","null","null","null","","swim","arctic","681","","f","null","88","88","1","swim-dual-task","","f","lowercase","54000","0","5","f8b30101a34549c3e95f36030da3b5f289afb411f88937e19d9de1fa086a9ce4","53996","681","88","1","swim","","","","",""
"dual-task","null","null","null","","swim","arctic","704","","e","null","88","88","1","swim-dual-task","","e","lowercase","64000","0","5","f8b30101a34549c3e95f36030da3b5f289afb411f88937e19d9de1fa086a9ce4","64005","704","88","1","swim","","","","",""
"dual-task","null","null","null","","swim","arctic","522","","H","null","77","77","1","swim-dual-task","","H","uppercase","74000","0","5","f8b30101a34549c3e95f36030da3b5f289afb411f88937e19d9de1fa086a9ce4","74001","522","77","1","swim","","","","",""
"dual-task","null","null","null","","swim","arctic","626","","g","null","88","88","1","swim-dual-task","","g","lowercase","80000","0","5","f8b30101a34549c3e95f36030da3b5f289afb411f88937e19d9de1fa086a9ce4","80006","626","88","1","swim","","","","",""
"dual-task","null","null","null","","swim","arctic","577","","g","null","88","88","1","swim-dual-task","","g","lowercase","92000","0","5","f8b30101a34549c3e95f36030da3b5f289afb411f88937e19d9de1fa086a9ce4","92002","577","88","1","swim","","","","",""
"dual-task","null","null","null","","swim","arctic","830","","q","null","88","88","1","swim-dual-task","","q","lowercase","104000","0","5","f8b30101a34549c3e95f36030da3b5f289afb411f88937e19d9de1fa086a9ce4","104000","830","88","1","swim","","","","",""
"dual-task","null","null","null","","swim","arctic","585","","d","null","88","88","1","swim-dual-task","","d","lowercase","112000","0","5","f8b30101a34549c3e95f36030da3b5f289afb411f88937e19d9de1fa086a9ce4","112001","585","88","1","swim","","","","",""
"dual-task","null","null","null","","swim","arctic","633","","T","null","77","77","1","swim-dual-task","","T","uppercase","126000","0","5","f8b30101a34549c3e95f36030da3b5f289afb411f88937e19d9de1fa086a9ce4","126005","633","77","1","swim","","","","",""
"dual-task","null","null","null","","swim","arctic","630","","e","null","88","88","1","swim-dual-task","","e","lowercase","138000","0","5","f8b30101a34549c3e95f36030da3b5f289afb411f88937e19d9de1fa086a9ce4","138008","630","88","1","swim","","","","",""
"dual-task","null","null","null","","swim","arctic","592","","F","null","77","77","1","swim-dual-task","","F","uppercase","144000","0","5","f8b30101a34549c3e95f36030da3b5f289afb411f88937e19d9de1fa086a9ce4","144000","592","77","1","swim","","","","",""
"dual-task","null","null","null","","swim","arctic","527","","R","null","77","77","1","swim-dual-task","","R","uppercase","156000","0","5","f8b30101a34549c3e95f36030da3b5f289afb411f88937e19d9de1fa086a9ce4","156005","527","77","1","swim","","","","",""
"dual-task","null","null","null","","swim","arctic","606","","Q","null","77","77","1","swim-dual-task","","Q","uppercase","168000","0","5","f8b30101a34549c3e95f36030da3b5f289afb411f88937e19d9de1fa086a9ce4","168001","606","77","1","swim","","","","",""
"dual-task","null","null","null","","swim","arctic","656","","b","null","88","88","1","swim-dual-task","","b","lowercase","178000","0","5","f8b30101a34549c3e95f36030da3b5f289afb411f88937e19d9de1fa086a9ce4","178001","656","88","1","swim","","","","",""
"dual-task","null","null","null","","swim","arctic","562","","b","null","88","88","1","swim-dual-task","","b","lowercase","186000","0","5","f8b30101a34549c3e95f36030da3b5f289afb411f88937e19d9de1fa086a9ce4","186009","562","88","1","swim","","","","",""
"dual-task","null","null","null","","swim","arctic","559","","Q","null","77","77","1","swim-dual-task","","Q","uppercase","194000","0","5","f8b30101a34549c3e95f36030da3b5f289afb411f88937e19d9de1fa086a9ce4","193998","559","77","1","swim","","","","",""
"dual-task","null","null","null","","swim","arctic","596","","r","null","88","88","1","swim-dual-task","","r","lowercase","204000","0","5","f8b30101a34549c3e95f36030da3b5f289afb411f88937e19d9de1fa086a9ce4","204006","596","88","1","swim","","","","",""
"dual-task","null","null","null","","swim","arctic","654","","n","null","88","88","1","swim-dual-task","","n","lowercase","212000","0","5","f8b30101a34549c3e95f36030da3b5f289afb411f88937e19d9de1fa086a9ce4","212005","654","88","1","swim","","","","",""
"dual-task","null","null","null","","swim","arctic","684","","G","null","77","77","1","swim-dual-task","","G","uppercase","224000","0","5","f8b30101a34549c3e95f36030da3b5f289afb411f88937e19d9de1fa086a9ce4","224000","684","77","1","swim","","","","",""
"dual-task","null","null","null","","swim","arctic","622","","N","null","77","77","1","swim-dual-task","","N","uppercase","236000","0","5","f8b30101a34549c3e95f36030da3b5f289afb411f88937e19d9de1fa086a9ce4","235994","622","77","1","swim","","","","",""
"dual-task","null","null","null","","swim","arctic","596","","T","null","77","77","1","swim-dual-task","","T","uppercase","248000","0","5","f8b30101a34549c3e95f36030da3b5f289afb411f88937e19d9de1fa086a9ce4","248001","596","77","1","swim","","","","",""
"dual-task","null","null","null","","swim","arctic","569","","t","null","88","88","1","swim-dual-task","","t","lowercase","254000","0","5","f8b30101a34549c3e95f36030da3b5f289afb411f88937e19d9de1fa086a9ce4","253995","569","88","1","swim","","","","",""
"dual-task","null","null","null","","swim","arctic","635","","a","null","88","88","1","swim-dual-task","","a","lowercase","266000","0","5","f8b30101a34549c3e95f36030da3b5f289afb411f88937e19d9de1fa086a9ce4","266008","635","88","1","swim","","","","",""
"dual-task","null","null","null","","swim","arctic","886","","d","null","88","88","1","swim-dual-task","","d","lowercase","276000","0","5","f8b30101a34549c3e95f36030da3b5f289afb411f88937e19d9de1fa086a9ce4","276002","886","88","1","swim","","","","",""
"dual-task","null","null","null","","swim","arctic","570","","E","null","77","77","1","swim-dual-task","","E","uppercase","290000","0","5","f8b30101a34549c3e95f36030da3b5f289afb411f88937e19d9de1fa086a9ce4","289997","570","77","1","swim","","","","",""
"dual-task","null","null","null","","swim","arctic","570","","D","null","77","77","1","swim-dual-task","","D","uppercase","298000","0","5","f8b30101a34549c3e95f36030da3b5f289afb411f88937e19d9de1fa086a9ce4","297996","570","77","1","swim","","","","",""
"dual-task","null","null","null","","swim","arctic","646","","t","null","88","88","1","swim-dual-task","","t","lowercase","308000","0","5","f8b30101a34549c3e95f36030da3b5f289afb411f88937e19d9de1fa086a9ce4","307996","646","88","1","swim","","","","",""
"dual-task","null","null","null","","swim","arctic","594","","h","null","88","88","1","swim-dual-task","","h","lowercase","320000","0","5","f8b30101a34549c3e95f36030da3b5f289afb411f88937e19d9de1fa086a9ce4","320010","594","88","1","swim","","","","",""
"dual-task","null","null","null","","swim","arctic","699","","F","null","77","77","1","swim-dual-task","","F","uppercase","332000","0","5","f8b30101a34549c3e95f36030da3b5f289afb411f88937e19d9de1fa086a9ce4","332000","699","77","1","swim","","","","",""
"dual-task","null","null","null","","swim","arctic","623","","G","null","77","77","1","swim-dual-task","","G","uppercase","342000","0","5","f8b30101a34549c3e95f36030da3b5f289afb411f88937e19d9de1fa086a9ce4","342000","623","77","1","swim","","","","",""
"dual-task","null","null","null","","swim","arctic","591","","t","null","88","88","1","swim-dual-task","","t","lowercase","354000","0","5","f8b30101a34549c3e95f36030da3b5f289afb411f88937e19d9de1fa086a9ce4","354006","591","88","1","swim","","","","",""
"dual-task","null","null","null","","swim","arctic","579","","f","null","88","88","1","swim-dual-task","","f","lowercase","362000","0","5","f8b30101a34549c3e95f36030da3b5f289afb411f88937e19d9de1fa086a9ce4","362008","579","88","1","swim","","","","",""
"dual-task","null","null","null","","swim","arctic","594","","e","null","88","88","1","swim-dual-task","","e","lowercase","370000","0","5","f8b30101a34549c3e95f36030da3b5f289afb411f88937e19d9de1fa086a9ce4","369999","594","88","1","swim","","","","",""
"dual-task","null","null","null","","swim","arctic","777","","B","null","77","77","1","swim-dual-task","","B","uppercase","380000","0","5","f8b30101a34549c3e95f36030da3b5f289afb411f88937e19d9de1fa086a9ce4","379997","777","77","1","swim","","","","",""
"dual-task","null","null","null","","swim","arctic","562","","b","null","88","88","1","swim-dual-task","","b","lowercase","388000","0","5","f8b30101a34549c3e95f36030da3b5f289afb411f88937e19d9de1fa086a9ce4","388002","562","88","1","swim","","","","",""
"dual-task","null","null","null","","swim","arctic","631","","R","null","77","77","1","swim-dual-task","","R","uppercase","402000","0","5","f8b30101a34549c3e95f36030da3b5f289afb411f88937e19d9de1fa086a9ce4","402005","631","77","1","swim","","","","",""
"dual-task","null","null","null","","swim","arctic","603","","A","null","77","77","1","swim-dual-task","","A","uppercase","412000","0","5","f8b30101a34549c3e95f36030da3b5f289afb411f88937e19d9de1fa086a9ce4","412019","603","77","1","swim","","","","",""
"dual-task","null","null","null","","swim","arctic","966","","r","null","88","88","1","swim-dual-task","","r","lowercase","422000","0","5","f8b30101a34549c3e95f36030da3b5f289afb411f88937e19d9de1fa086a9ce4","422006","966","88","1","swim","","","","",""
"dual-task","null","null","null","","swim","arctic","635","","T","null","77","77","1","swim-dual-task","","T","uppercase","432000","0","5","f8b30101a34549c3e95f36030da3b5f289afb411f88937e19d9de1fa086a9ce4","432006","635","77","1","swim","","","","",""
"dual-task","null","null","null","","swim","arctic","651","","F","null","77","77","1","swim-dual-task","","F","uppercase","444000","0","5","f8b30101a34549c3e95f36030da3b5f289afb411f88937e19d9de1fa086a9ce4","443997","651","77","1","swim","","","","",""
"dual-task","null","null","null","","swim","arctic","581","","E","null","77","77","1","swim-dual-task","","E","uppercase","450000","0","5","f8b30101a34549c3e95f36030da3b5f289afb411f88937e19d9de1fa086a9ce4","450002","581","77","1","swim","","","","",""
"dual-task","null","null","null","","swim","arctic","629","","Q","null","77","77","1","swim-dual-task","","Q","uppercase","464000","0","5","f8b30101a34549c3e95f36030da3b5f289afb411f88937e19d9de1fa086a9ce4","464001","629","77","1","swim","","","","",""
"dual-task","null","null","null","","swim","arctic","608","","R","null","77","77","1","swim-dual-task","","R","uppercase","470000","0","5","f8b30101a34549c3e95f36030da3b5f289afb411f88937e19d9de1fa086a9ce4","469998","608","77","1","swim","","","","",""
"dual-task","null","null","null","","swim","arctic","553","","R","null","77","77","1","swim-dual-task","","R","uppercase","482000","0","5","f8b30101a34549c3e95f36030da3b5f289afb411f88937e19d9de1fa086a9ce4","482003","553","77","1","swim","","","","",""
"dual-task","null","null","null","","swim","arctic","674","","f","null","88","88","1","swim-dual-task","","f","lowercase","490000","0","5","f8b30101a34549c3e95f36030da3b5f289afb411f88937e19d9de1fa086a9ce4","489997","674","88","1","swim","","","","",""
"dual-task","null","null","null","","swim","arctic","649","","q","null","88","88","1","swim-dual-task","","q","lowercase","500000","0","5","f8b30101a34549c3e95f36030da3b5f289afb411f88937e19d9de1fa086a9ce4","500003","649","88","1","swim","","","","",""
"dual-task","null","null","null","","swim","arctic","565","","A","null","77","77","1","swim-dual-task","","A","uppercase","506000","0","5","f8b30101a34549c3e95f36030da3b5f289afb411f88937e19d9de1fa086a9ce4","506005","565","77","1","swim","","","","",""
"dual-task","null","null","null","","swim","arctic","810","","d","null","88","88","1","swim-dual-task","","d","lowercase","516000","0","5","f8b30101a34549c3e95f36030da3b5f289afb411f88937e19d9de1fa086a9ce4","516008","810","88","1","swim","","","","",""
"dual-task","null","null","null","","swim","arctic","610","","g","null","88","88","1","swim-dual-task","","g","lowercase","530000","0","5","f8b30101a34549c3e95f36030da3b5f289afb411f88937e19d9de1fa086a9ce4","530005","610","88","1","swim","","","","",""
"dual-task","null","null","null","","swim","arctic","625","","F","null","77","77","1","swim-dual-task","","F","uppercase","542000","0","5","f8b30101a34549c3e95f36030da3b5f289afb411f88937e19d9de1fa086a9ce4","542002","625","77","1","swim","","","","",""
"dual-task","null","null","null","","swim","arctic","635","","e","null","88","88","1","swim-dual-task","","e","lowercase","552000","0","5","f8b30101a34549c3e95f36030da3b5f289afb411f88937e19d9de1fa086a9ce4","551998","635","88","1","swim","","","","",""
"dual-task","null","null","null","","swim","arctic","622","","q","null","88","88","1","swim-dual-task","","q","lowercase","564000","0","5","f8b30101a34549c3e95f36030da3b5f289afb411f88937e19d9de1fa086a9ce4","563999","622","88","1","swim","","","","",""
"dual-task","null","null","null","","swim","arctic","695","","t","null","88","88","1","swim-dual-task","","t","lowercase","572000","0","5","f8b30101a34549c3e95f36030da3b5f289afb411f88937e19d9de1fa086a9ce4","572007","695","88","1","swim","","","","",""
"dual-task","null","null","null","","swim","arctic","604","","d","null","88","88","1","swim-dual-task","","d","lowercase","586000","0","5","f8b30101a34549c3e95f36030da3b5f289afb411f88937e19d9de1fa086a9ce4","585999","604","88","1","swim","","","","",""
"dual-task","null","null","null","","swim","arctic","549","","H","null","77","77","1","swim-dual-task","","H","uppercase","598000","0","5","f8b30101a34549c3e95f36030da3b5f289afb411f88937e19d9de1fa086a9ce4","598003","549","77","1","swim","","","","",""
"dual-task","null","null","null","","swim","arctic","644","","r","null","88","88","1","swim-dual-task","","r","lowercase","610000","0","5","f8b30101a34549c3e95f36030da3b5f289afb411f88937e19d9de1fa086a9ce4","610005","644","88","1","swim","","","","",""
"dual-task","null","null","null","","swim","arctic","579","","b","null","88","88","1","swim-dual-task","","b","lowercase","616000","0","5","f8b30101a34549c3e95f36030da3b5f289afb411f88937e19d9de1fa086a9ce4","616008","579","88","1","swim","","","","",""
"dual-task","null","null","null","","swim","arctic","608","","N","null","77","77","1","swim-dual-task","","N","uppercase","630000","0","5","f8b30101a34549c3e95f36030da3b5f289afb411f88937e19d9de1fa086a9ce4","630010","608","77","1","swim","","","","",""
"dual-task","null","null","null","","swim","arctic","555","","h","null","88","88","1","swim-dual-task","","h","lowercase","642000","0","5","f8b30101a34549c3e95f36030da3b5f289afb411f88937e19d9de1fa086a9ce4","642011","555","88","1","swim","","","","",""
"dual-task","null","null","null","","swim","arctic","548","","G","null","77","77","1","swim-dual-task","","G","uppercase","650000","0","5","f8b30101a34549c3e95f36030da3b5f289afb411f88937e19d9de1fa086a9ce4","650003","548","77","1","swim","","","","",""
"dual-task","null","null","null","","swim","arctic","675","","r","null","88","88","1","swim-dual-task","","r","lowercase","658000","0","5","f8b30101a34549c3e95f36030da3b5f289afb411f88937e19d9de1fa086a9ce4","657996","675","88","1","swim","","","","",""
"dual-task","null","null","null","","swim","arctic","627","","h","null","88","88","1","swim-dual-task","","h","lowercase","666000","0","5","f8b30101a34549c3e95f36030da3b5f289afb411f88937e19d9de1fa086a9ce4","666003","627","88","1","swim","","","","",""
"dual-task","null","null","null","","swim","arctic","559","","N","null","77","77","1","swim-dual-task","","N","uppercase","674000","0","5","f8b30101a34549c3e95f36030da3b5f289afb411f88937e19d9de1fa086a9ce4","673996","559","77","1","swim","","","","",""
"dual-task","null","null","null","","swim","arctic","564","","q","null","88","88","1","swim-dual-task","","q","lowercase","684000","0","5","f8b30101a34549c3e95f36030da3b5f289afb411f88937e19d9de1fa086a9ce4","684011","564","88","1","swim","","","","",""
"dual-task","null","null","null","","swim","arctic","621","","G","null","77","77","1","swim-dual-task","","G","uppercase","696000","0","5","f8b30101a34549c3e95f36030da3b5f289afb411f88937e19d9de1fa086a9ce4","696009","621","77","1","swim","","","","",""
"dual-task","null","null","null","","swim","arctic","586","","H","null","77","77","1","swim-dual-task","","H","uppercase","702000","0","5","f8b30101a34549c3e95f36030da3b5f289afb411f88937e19d9de1fa086a9ce4","702012","586","77","1","swim","","","","",""
"dual-task","null","null","null","","swim","arctic","472","","Q","null","77","77","1","swim-dual-task","","Q","uppercase","716000","0","5","f8b30101a34549c3e95f36030da3b5f289afb411f88937e19d9de1fa086a9ce4","716001","472","77","1","swim","","","","",""
"dual-task","null","null","null","","swim","arctic","589","","B","null","77","77","1","swim-dual-task","","B","uppercase","726000","0","5","f8b30101a34549c3e95f36030da3b5f289afb411f88937e19d9de1fa086a9ce4","726008","589","77","1","swim","","","","",""
"dual-task","null","null","null","","swim","arctic","546","","E","null","77","77","1","swim-dual-task","","E","uppercase","732000","0","5","f8b30101a34549c3e95f36030da3b5f289afb411f88937e19d9de1fa086a9ce4","732010","546","77","1","swim","","","","",""
"dual-task","null","null","null","","swim","arctic","624","","n","null","88","88","1","swim-dual-task","","n","lowercase","740000","0","5","f8b30101a34549c3e95f36030da3b5f289afb411f88937e19d9de1fa086a9ce4","740021","624","88","1","swim","","","","",""
"dual-task","null","null","null","","swim","arctic","540","","B","null","77","77","1","swim-dual-task","","B","uppercase","752000","0","5","f8b30101a34549c3e95f36030da3b5f289afb411f88937e19d9de1fa086a9ce4","752003","540","77","1","swim","","","","",""
"dual-task","null","null","null","","swim","arctic","612","","h","null","88","88","1","swim-dual-task","","h","lowercase","764000","0","5","f8b30101a34549c3e95f36030da3b5f289afb411f88937e19d9de1fa086a9ce4","764005","612","88","1","swim","","","","",""
"dual-task","null","null","null","","swim","arctic","537","","D","null","77","77","1","swim-dual-task","","D","uppercase","776000","0","5","f8b30101a34549c3e95f36030da3b5f289afb411f88937e19d9de1fa086a9ce4","776004","537","77","1","swim","","","","",""
"dual-task","null","null","null","","swim","arctic","655","","N","null","77","77","1","swim-dual-task","","N","uppercase","786000","0","5","f8b30101a34549c3e95f36030da3b5f289afb411f88937e19d9de1fa086a9ce4","786014","655","77","1","swim","","","","",""
"dual-task","null","null","null","","swim","arctic","942","","A","null","77","77","1","swim-dual-task","","A","uppercase","798000","0","5","f8b30101a34549c3e95f36030da3b5f289afb411f88937e19d9de1fa086a9ce4","798010","942","77","1","swim","","","","",""
"audio-keyboard-response","29","1142402","0.0-7.0-0.0-1.0","f8b30101a34549c3e95f36030da3b5f289afb411f88937e19d9de1fa086a9ce4","swim","arctic","null","","audio/story_swim.mp3","","null","","","","","","","","","","","","","","","","","","","",""
"html-button-response","30","1147906","0.0-7.0-0.0-2.0","f8b30101a34549c3e95f36030da3b5f289afb411f88937e19d9de1fa086a9ce4","swim","arctic","5502","","<p>This concludes the story. Thank you for listening.</p><p>You will now answer some questions about the content of the story.</p>","0","","","","","","","","","","","","","","","","","","","","",""
"survey-multi-choice","31","1178977","0.0-7.0-0.0-3.0-0.0","f8b30101a34549c3e95f36030da3b5f289afb411f88937e19d9de1fa086a9ce4","swim","arctic","31069","","<b>How did the narrator train for his swim test?</b>","","","","0","swim-comprehension","","","","","","","","","","","","","{""Q0"":""Swam at the lake every day""}","","","",""
"survey-multi-choice","32","1184057","0.0-7.0-0.0-3.0-0.1","f8b30101a34549c3e95f36030da3b5f289afb411f88937e19d9de1fa086a9ce4","swim","arctic","4812","","<b>Where is the home of naval aviation?</b>","","","","1","swim-comprehension","","","","","","","","","","","","","{""Q0"":""Pensacola""}","","","",""
"survey-multi-choice","33","1193019","0.0-7.0-0.0-3.0-0.2","f8b30101a34549c3e95f36030da3b5f289afb411f88937e19d9de1fa086a9ce4","swim","arctic","8709","","<b>What gave the narrator his greatest feeling of accomplishment?</b>","","","","1","swim-comprehension","","","","","","","","","","","","","{""Q0"":""Passing the water survival course""}","","","",""
"survey-multi-choice","34","1199402","0.0-7.0-0.0-3.0-0.3","f8b30101a34549c3e95f36030da3b5f289afb411f88937e19d9de1fa086a9ce4","swim","arctic","6131","","<b>How often does the narrator swim, now that he is a good swimmer?</b>","","","","1","swim-comprehension","","","","","","","","","","","","","{""Q0"":""Never swam again in his life""}","","","",""
"survey-multi-choice","35","1209475","0.0-7.0-0.0-3.0-0.4","f8b30101a34549c3e95f36030da3b5f289afb411f88937e19d9de1fa086a9ce4","swim","arctic","9818","","<b>What was the final step of the first swim test in the pool?</b>","","","","1","swim-comprehension","","","","","","","","","","","","","{""Q0"":""Tread water with hands above the water""}","","","",""
"survey-multi-choice","36","1214232","0.0-7.0-0.0-3.0-0.5","f8b30101a34549c3e95f36030da3b5f289afb411f88937e19d9de1fa086a9ce4","swim","arctic","4504","","<b>How many astronaut candidates passed the first swim test?</b>","","","","1","swim-comprehension","","","","","","","","","","","","","{""Q0"":""All of them""}","","","",""
"survey-multi-choice","37","1221657","0.0-7.0-0.0-3.0-0.6","f8b30101a34549c3e95f36030da3b5f289afb411f88937e19d9de1fa086a9ce4","swim","arctic","7163","","<b>How many times did the astronaut candidates have to complete the final exercise to pass?</b>","","","","1","swim-comprehension","","","","","","","","","","","","","{""Q0"":""Two""}","","","",""
"survey-multi-choice","38","1235107","0.0-7.0-0.0-3.0-0.7","f8b30101a34549c3e95f36030da3b5f289afb411f88937e19d9de1fa086a9ce4","swim","arctic","13195","","<b>What were the astronaut candidates trained to do at the naval air station?</b>","","","","1","swim-comprehension","","","","","","","","","","","","","{""Q0"":""Eject out of aircraft and survive in water long enough to be rescued""}","","","",""
"survey-multi-choice","39","1244746","0.0-7.0-0.0-3.0-0.8","f8b30101a34549c3e95f36030da3b5f289afb411f88937e19d9de1fa086a9ce4","swim","arctic","9376","","<b>How many astronaut candidates reported for duty at the Johnson Space Center?</b>","","","","1","swim-comprehension","","","","","","","","","","","","","{""Q0"":""Forty-four""}","","","",""
"survey-multi-choice","40","1249176","0.0-7.0-0.0-3.0-0.9","f8b30101a34549c3e95f36030da3b5f289afb411f88937e19d9de1fa086a9ce4","swim","arctic","4169","","<b>What is the narrator afraid of, aside from the water?</b>","","","","1","swim-comprehension","","","","","","","","","","","","","{""Q0"":""Heights""}","","","",""
"html-button-response","41","1251746","0.0-7.0-0.0-4.0","f8b30101a34549c3e95f36030da3b5f289afb411f88937e19d9de1fa086a9ce4","swim","arctic","2316","","<p>Thank you for your responses.</p><p>You will now answer some questions about your impressions of the story.</p>","0","","","","","","","","","","","","","","","","","","","","",""
"html-button-response","42","1254386","0.0-7.0-0.0-5.0-0.0","f8b30101a34549c3e95f36030da3b5f289afb411f88937e19d9de1fa086a9ce4","swim","arctic","2639","","E8","6","","","","swim-engagement","","","","","","","","","","","","","","7","enjoyment","",""
"html-button-response","43","1255973","0.0-7.0-0.0-5.0-0.1","f8b30101a34549c3e95f36030da3b5f289afb411f88937e19d9de1fa086a9ce4","swim","arctic","1337","","A3","6","","","","swim-engagement","","","","","","","","","","","","","","7","absorption","",""
"html-button-response","44","1260748","0.0-7.0-0.0-5.0-0.2","f8b30101a34549c3e95f36030da3b5f289afb411f88937e19d9de1fa086a9ce4","swim","arctic","4517","","EE3","3","","","","swim-engagement","","","","","","","","","","","","","","4","emo-engage","",""
"html-button-response","45","1266120","0.0-7.0-0.0-5.0-0.3","f8b30101a34549c3e95f36030da3b5f289afb411f88937e19d9de1fa086a9ce4","swim","arctic","5122","","MS1","5","","","","swim-engagement","","","","","","","","","","","","","","6","mental-sim","",""
"html-button-response","46","1271807","0.0-7.0-0.0-5.0-0.4","f8b30101a34549c3e95f36030da3b5f289afb411f88937e19d9de1fa086a9ce4","swim","arctic","5431","","A4","6","","","","swim-engagement","","","","","","","","","","","","","","7","absorption","",""
"html-button-response","47","1273367","0.0-7.0-0.0-5.0-0.5","f8b30101a34549c3e95f36030da3b5f289afb411f88937e19d9de1fa086a9ce4","swim","arctic","1295","","E7","6","","","","swim-engagement","","","","","","","","","","","","","","7","enjoyment","",""
"html-button-response","48","1279243","0.0-7.0-0.0-5.0-0.6","f8b30101a34549c3e95f36030da3b5f289afb411f88937e19d9de1fa086a9ce4","swim","arctic","5616","","EE4","2","","","","swim-engagement","","","","","","","","","","","","","","3","emo-engage","",""
"html-button-response","49","1283600","0.0-7.0-0.0-5.0-0.7","f8b30101a34549c3e95f36030da3b5f289afb411f88937e19d9de1fa086a9ce4","swim","arctic","4108","","A2","6","","","","swim-engagement","","","","","","","","","","","","","","7","absorption","",""
"html-button-response","50","1288563","0.0-7.0-0.0-5.0-0.8","f8b30101a34549c3e95f36030da3b5f289afb411f88937e19d9de1fa086a9ce4","swim","arctic","4710","","A1","3","","","","swim-engagement","","","","","","","","","","","","","","4","absorption","",""
"html-button-response","51","1293122","0.0-7.0-0.0-5.0-0.9","f8b30101a34549c3e95f36030da3b5f289afb411f88937e19d9de1fa086a9ce4","swim","arctic","4298","","EE1","2","","","","swim-engagement","","","","","","","","","","","","","","3","emo-engage","",""
"html-button-response","52","1295687","0.0-7.0-0.0-5.0-0.10","f8b30101a34549c3e95f36030da3b5f289afb411f88937e19d9de1fa086a9ce4","swim","arctic","2303","","EE2","3","","","","swim-engagement","","","","","","","","","","","","","","4","emo-engage","",""
"html-button-response","53","1297431","0.0-7.0-0.0-5.0-0.11","f8b30101a34549c3e95f36030da3b5f289afb411f88937e19d9de1fa086a9ce4","swim","arctic","1493","","E10","6","","","","swim-engagement","","","","","","","","","","","","","","7","enjoyment","",""
"html-button-response","54","1298690","0.0-7.0-0.0-5.0-0.12","f8b30101a34549c3e95f36030da3b5f289afb411f88937e19d9de1fa086a9ce4","swim","arctic","1005","","E1","6","","","","swim-engagement","","","","","","","","","","","","","","7","enjoyment","",""
"html-button-response","55","1302760","0.0-7.0-0.0-5.0-0.13","f8b30101a34549c3e95f36030da3b5f289afb411f88937e19d9de1fa086a9ce4","swim","arctic","3808","","A5","6","","","","swim-engagement","","","","","","","","","","","","","","7","absorption","",""
"html-button-response","56","1306052","0.0-7.0-0.0-5.0-0.14","f8b30101a34549c3e95f36030da3b5f289afb411f88937e19d9de1fa086a9ce4","swim","arctic","3034","","EE5","3","","","","swim-engagement","","","","","","","","","","","","","","4","emo-engage","",""
"html-button-response","57","1312522","0.0-7.0-0.0-5.0-0.15","f8b30101a34549c3e95f36030da3b5f289afb411f88937e19d9de1fa086a9ce4","swim","arctic","6210","","MS2","6","","","","swim-engagement","","","","","","","","","","","","","","7","mental-sim","",""
"html-button-response","58","1315254","0.0-7.0-0.0-5.0-0.16","f8b30101a34549c3e95f36030da3b5f289afb411f88937e19d9de1fa086a9ce4","swim","arctic","2470","","MS3","6","","","","swim-engagement","","","","","","","","","","","","","","7","mental-sim","",""
"html-button-response","59","1316947","0.0-7.0-0.0-5.0-0.17","f8b30101a34549c3e95f36030da3b5f289afb411f88937e19d9de1fa086a9ce4","swim","arctic","1438","","E6","6","","","","swim-engagement","","","","","","","","","","","","","","7","enjoyment","",""
"html-keyboard-response","60","1323569","0.0-7.0-1.0","f8b30101a34549c3e95f36030da3b5f289afb411f88937e19d9de1fa086a9ce4","swim","arctic","6365","","<p>Thank you for your responses. You will now listen to the second story.</p><p>Remember, as you listen to the story you will see letters appear on the screen.</br>As quickly as possible, press <b>&lt;x&gt;</b> if the letter is lowercase and <b>&lt;m&gt;</b> if the letter is uppercase.</p><p>Press <b>&lt;x&gt;</b> or <b>&lt;m&gt;</b> to begin listening!</p>","","77","","","","","","","","","","","","","","","","","","","",""
"html-keyboard-response","61","1324084","0.0-7.0-2.0-0.0","f8b30101a34549c3e95f36030da3b5f289afb411f88937e19d9de1fa086a9ce4","swim","arctic","null","","<div style=""font-size:60px;"" tabindex=""0"">+</div>","","null","","","","","","","","","","","","","","","","","","","",""
"dual-task","null","null","null","","swim","arctic","856","","d","null","88","88","1","arctic-dual-task","","d","lowercase","18000","0","5","f8b30101a34549c3e95f36030da3b5f289afb411f88937e19d9de1fa086a9ce4","18012","856","88","1","arctic","","","","",""
"dual-task","null","null","null","","swim","arctic","617","","B","null","77","77","1","arctic-dual-task","","B","uppercase","32000","0","5","f8b30101a34549c3e95f36030da3b5f289afb411f88937e19d9de1fa086a9ce4","32013","617","77","1","arctic","","","","",""
"dual-task","null","null","null","","swim","arctic","596","","D","null","77","77","1","arctic-dual-task","","D","uppercase","42000","0","5","f8b30101a34549c3e95f36030da3b5f289afb411f88937e19d9de1fa086a9ce4","42012","596","77","1","arctic","","","","",""
"dual-task","null","null","null","","swim","arctic","569","","A","null","77","77","1","arctic-dual-task","","A","uppercase","56000","0","5","f8b30101a34549c3e95f36030da3b5f289afb411f88937e19d9de1fa086a9ce4","56001","569","77","1","arctic","","","","",""
"dual-task","null","null","null","","swim","arctic","634","","r","null","88","88","1","arctic-dual-task","","r","lowercase","68000","0","5","f8b30101a34549c3e95f36030da3b5f289afb411f88937e19d9de1fa086a9ce4","68010","634","88","1","arctic","","","","",""
"dual-task","null","null","null","","swim","arctic","875","","a","null","88","88","1","arctic-dual-task","","a","lowercase","82000","0","5","f8b30101a34549c3e95f36030da3b5f289afb411f88937e19d9de1fa086a9ce4","82007","875","88","1","arctic","","","","",""
"dual-task","null","null","null","","swim","arctic","523","","h","null","88","88","1","arctic-dual-task","","h","lowercase","88000","0","5","f8b30101a34549c3e95f36030da3b5f289afb411f88937e19d9de1fa086a9ce4","88000","523","88","1","arctic","","","","",""
"dual-task","null","null","null","","swim","arctic","581","","f","null","88","88","1","arctic-dual-task","","f","lowercase","100000","0","5","f8b30101a34549c3e95f36030da3b5f289afb411f88937e19d9de1fa086a9ce4","100005","581","88","1","arctic","","","","",""
"dual-task","null","null","null","","swim","arctic","628","","f","null","88","88","1","arctic-dual-task","","f","lowercase","108000","0","5","f8b30101a34549c3e95f36030da3b5f289afb411f88937e19d9de1fa086a9ce4","108005","628","88","1","arctic","","","","",""
"dual-task","null","null","null","","swim","arctic","878","","Q","null","77","77","1","arctic-dual-task","","Q","uppercase","116000","0","5","f8b30101a34549c3e95f36030da3b5f289afb411f88937e19d9de1fa086a9ce4","116010","878","77","1","arctic","","","","",""
"dual-task","null","null","null","","swim","arctic","889","","q","null","88","88","1","arctic-dual-task","","q","lowercase","124000","0","5","f8b30101a34549c3e95f36030da3b5f289afb411f88937e19d9de1fa086a9ce4","124008","889","88","1","arctic","","","","",""
"dual-task","null","null","null","","swim","arctic","865","","R","null","77","77","1","arctic-dual-task","","R","uppercase","134000","0","5","f8b30101a34549c3e95f36030da3b5f289afb411f88937e19d9de1fa086a9ce4","134013","865","77","1","arctic","","","","",""
"dual-task","null","null","null","","swim","arctic","619","","d","null","88","88","1","arctic-dual-task","","d","lowercase","144000","0","5","f8b30101a34549c3e95f36030da3b5f289afb411f88937e19d9de1fa086a9ce4","144014","619","88","1","arctic","","","","",""
"dual-task","null","null","null","","swim","arctic","690","","g","null","88","88","1","arctic-dual-task","","g","lowercase","150000","0","5","f8b30101a34549c3e95f36030da3b5f289afb411f88937e19d9de1fa086a9ce4","150003","690","88","1","arctic","","","","",""
"dual-task","null","null","null","","swim","arctic","664","","T","null","77","77","1","arctic-dual-task","","T","uppercase","160000","0","5","f8b30101a34549c3e95f36030da3b5f289afb411f88937e19d9de1fa086a9ce4","160008","664","77","1","arctic","","","","",""
"dual-task","null","null","null","","swim","arctic","590","","q","null","88","88","1","arctic-dual-task","","q","lowercase","170000","0","5","f8b30101a34549c3e95f36030da3b5f289afb411f88937e19d9de1fa086a9ce4","170006","590","88","1","arctic","","","","",""
"dual-task","null","null","null","","swim","arctic","755","","t","null","88","88","1","arctic-dual-task","","t","lowercase","176000","0","5","f8b30101a34549c3e95f36030da3b5f289afb411f88937e19d9de1fa086a9ce4","176009","755","88","1","arctic","","","","",""
"dual-task","null","null","null","","swim","arctic","681","","t","null","88","88","1","arctic-dual-task","","t","lowercase","188000","0","5","f8b30101a34549c3e95f36030da3b5f289afb411f88937e19d9de1fa086a9ce4","188007","681","88","1","arctic","","","","",""
"dual-task","null","null","null","","swim","arctic","701","","N","null","77","77","1","arctic-dual-task","","N","uppercase","194000","0","5","f8b30101a34549c3e95f36030da3b5f289afb411f88937e19d9de1fa086a9ce4","194004","701","77","1","arctic","","","","",""
"dual-task","null","null","null","","swim","arctic","842","","F","null","77","77","1","arctic-dual-task","","F","uppercase","204000","0","5","f8b30101a34549c3e95f36030da3b5f289afb411f88937e19d9de1fa086a9ce4","204007","842","77","1","arctic","","","","",""
"dual-task","null","null","null","","swim","arctic","631","","e","null","88","88","1","arctic-dual-task","","e","lowercase","214000","0","5","f8b30101a34549c3e95f36030da3b5f289afb411f88937e19d9de1fa086a9ce4","214003","631","88","1","arctic","","","","",""
"dual-task","null","null","null","","swim","arctic","654","","a","null","88","88","1","arctic-dual-task","","a","lowercase","224000","0","5","f8b30101a34549c3e95f36030da3b5f289afb411f88937e19d9de1fa086a9ce4","224008","654","88","1","arctic","","","","",""
"dual-task","null","null","null","","swim","arctic","534","","N","null","77","77","1","arctic-dual-task","","N","uppercase","230000","0","5","f8b30101a34549c3e95f36030da3b5f289afb411f88937e19d9de1fa086a9ce4","230011","534","77","1","arctic","","","","",""
"dual-task","null","null","null","","swim","arctic","498","","B","null","77","77","1","arctic-dual-task","","B","uppercase","244000","0","5","f8b30101a34549c3e95f36030da3b5f289afb411f88937e19d9de1fa086a9ce4","244000","498","77","1","arctic","","","","",""
"dual-task","null","null","null","","swim","arctic","538","","G","null","77","77","1","arctic-dual-task","","G","uppercase","258000","0","5","f8b30101a34549c3e95f36030da3b5f289afb411f88937e19d9de1fa086a9ce4","258007","538","77","1","arctic","","","","",""
"dual-task","null","null","null","","swim","arctic","794","","g","null","88","88","1","arctic-dual-task","","g","lowercase","266000","0","5","f8b30101a34549c3e95f36030da3b5f289afb411f88937e19d9de1fa086a9ce4","266006","794","88","1","arctic","","","","",""
"dual-task","null","null","null","","swim","arctic","669","","r","null","88","88","1","arctic-dual-task","","r","lowercase","276000","0","5","f8b30101a34549c3e95f36030da3b5f289afb411f88937e19d9de1fa086a9ce4","276004","669","88","1","arctic","","","","",""
"dual-task","null","null","null","","swim","arctic","604","","G","null","77","77","1","arctic-dual-task","","G","uppercase","290000","0","5","f8b30101a34549c3e95f36030da3b5f289afb411f88937e19d9de1fa086a9ce4","290002","604","77","1","arctic","","","","",""
"dual-task","null","null","null","","swim","arctic","585","","H","null","77","77","1","arctic-dual-task","","H","uppercase","298000","0","5","f8b30101a34549c3e95f36030da3b5f289afb411f88937e19d9de1fa086a9ce4","298000","585","77","1","arctic","","","","",""
"dual-task","null","null","null","","swim","arctic","648","","D","null","77","77","1","arctic-dual-task","","D","uppercase","306000","0","5","f8b30101a34549c3e95f36030da3b5f289afb411f88937e19d9de1fa086a9ce4","306011","648","77","1","arctic","","","","",""
"dual-task","null","null","null","","swim","arctic","641","","n","null","88","88","1","arctic-dual-task","","n","lowercase","316000","0","5","f8b30101a34549c3e95f36030da3b5f289afb411f88937e19d9de1fa086a9ce4","316008","641","88","1","arctic","","","","",""
"dual-task","null","null","null","","swim","arctic","576","","b","null","88","88","1","arctic-dual-task","","b","lowercase","328000","0","5","f8b30101a34549c3e95f36030da3b5f289afb411f88937e19d9de1fa086a9ce4","328001","576","88","1","arctic","","","","",""
"dual-task","null","null","null","","swim","arctic","700","","E","null","77","77","1","arctic-dual-task","","E","uppercase","342000","0","5","f8b30101a34549c3e95f36030da3b5f289afb411f88937e19d9de1fa086a9ce4","342005","700","77","1","arctic","","","","",""
"dual-task","null","null","null","","swim","arctic","866","","t","null","88","88","1","arctic-dual-task","","t","lowercase","354000","0","5","f8b30101a34549c3e95f36030da3b5f289afb411f88937e19d9de1fa086a9ce4","354004","866","88","1","arctic","","","","",""
"dual-task","null","null","null","","swim","arctic","621","","F","null","77","77","1","arctic-dual-task","","F","uppercase","364000","0","5","f8b30101a34549c3e95f36030da3b5f289afb411f88937e19d9de1fa086a9ce4","364000","621","77","1","arctic","","","","",""
"dual-task","null","null","null","","swim","arctic","652","","n","null","88","88","1","arctic-dual-task","","n","lowercase","372000","0","5","f8b30101a34549c3e95f36030da3b5f289afb411f88937e19d9de1fa086a9ce4","372015","652","88","1","arctic","","","","",""
"dual-task","null","null","null","","swim","arctic","565","","G","null","77","77","1","arctic-dual-task","","G","uppercase","378000","0","5","f8b30101a34549c3e95f36030da3b5f289afb411f88937e19d9de1fa086a9ce4","378010","565","77","1","arctic","","","","",""
"dual-task","null","null","null","","swim","arctic","536","","q","null","88","88","1","arctic-dual-task","","q","lowercase","388000","0","5","f8b30101a34549c3e95f36030da3b5f289afb411f88937e19d9de1fa086a9ce4","388006","536","88","1","arctic","","","","",""
"dual-task","null","null","null","","swim","arctic","638","","Q","null","77","77","1","arctic-dual-task","","Q","uppercase","394000","0","5","f8b30101a34549c3e95f36030da3b5f289afb411f88937e19d9de1fa086a9ce4","394008","638","77","1","arctic","","","","",""
"dual-task","null","null","null","","swim","arctic","684","","R","null","77","77","1","arctic-dual-task","","R","uppercase","406000","0","5","f8b30101a34549c3e95f36030da3b5f289afb411f88937e19d9de1fa086a9ce4","406002","684","77","1","arctic","","","","",""
"dual-task","null","null","null","","swim","arctic","633","","F","null","77","77","1","arctic-dual-task","","F","uppercase","412000","0","5","f8b30101a34549c3e95f36030da3b5f289afb411f88937e19d9de1fa086a9ce4","412012","633","77","1","arctic","","","","",""
"dual-task","null","null","null","","swim","arctic","537","","A","null","77","77","1","arctic-dual-task","","A","uppercase","426000","0","5","f8b30101a34549c3e95f36030da3b5f289afb411f88937e19d9de1fa086a9ce4","426005","537","77","1","arctic","","","","",""
"dual-task","null","null","null","","swim","arctic","521","","Q","null","77","77","1","arctic-dual-task","","Q","uppercase","438000","0","5","f8b30101a34549c3e95f36030da3b5f289afb411f88937e19d9de1fa086a9ce4","438015","521","77","1","arctic","","","","",""
"dual-task","null","null","null","","swim","arctic","569","","N","null","77","77","1","arctic-dual-task","","N","uppercase","450000","0","5","f8b30101a34549c3e95f36030da3b5f289afb411f88937e19d9de1fa086a9ce4","450004","569","77","1","arctic","","","","",""
"dual-task","null","null","null","","swim","arctic","643","","e","null","88","88","1","arctic-dual-task","","e","lowercase","462000","0","5","f8b30101a34549c3e95f36030da3b5f289afb411f88937e19d9de1fa086a9ce4","462001","643","88","1","arctic","","","","",""
"dual-task","null","null","null","","swim","arctic","570","","T","null","77","77","1","arctic-dual-task","","T","uppercase","474000","0","5","f8b30101a34549c3e95f36030da3b5f289afb411f88937e19d9de1fa086a9ce4","474013","570","77","1","arctic","","","","",""
"dual-task","null","null","null","","swim","arctic","546","","h","null","88","88","1","arctic-dual-task","","h","lowercase","482000","0","5","f8b30101a34549c3e95f36030da3b5f289afb411f88937e19d9de1fa086a9ce4","482009","546","88","1","arctic","","","","",""
"dual-task","null","null","null","","swim","arctic","931","","b","null","88","88","1","arctic-dual-task","","b","lowercase","488000","0","5","f8b30101a34549c3e95f36030da3b5f289afb411f88937e19d9de1fa086a9ce4","488004","931","88","1","arctic","","","","",""
"dual-task","null","null","null","","swim","arctic","808","","q","null","88","88","1","arctic-dual-task","","q","lowercase","494000","0","5","f8b30101a34549c3e95f36030da3b5f289afb411f88937e19d9de1fa086a9ce4","494001","808","88","1","arctic","","","","",""
"dual-task","null","null","null","","swim","arctic","847","","T","null","77","77","1","arctic-dual-task","","T","uppercase","500000","0","5","f8b30101a34549c3e95f36030da3b5f289afb411f88937e19d9de1fa086a9ce4","500009","847","77","1","arctic","","","","",""
"dual-task","null","null","null","","swim","arctic","623","","R","null","77","77","1","arctic-dual-task","","R","uppercase","508000","0","5","f8b30101a34549c3e95f36030da3b5f289afb411f88937e19d9de1fa086a9ce4","508013","623","77","1","arctic","","","","",""
"dual-task","null","null","null","","swim","arctic","650","","E","null","77","77","1","arctic-dual-task","","E","uppercase","522000","0","5","f8b30101a34549c3e95f36030da3b5f289afb411f88937e19d9de1fa086a9ce4","522001","650","77","1","arctic","","","","",""
"dual-task","null","null","null","","swim","arctic","629","","a","null","88","88","1","arctic-dual-task","","a","lowercase","534000","0","5","f8b30101a34549c3e95f36030da3b5f289afb411f88937e19d9de1fa086a9ce4","534012","629","88","1","arctic","","","","",""
"dual-task","null","null","null","","swim","arctic","759","","B","null","77","77","1","arctic-dual-task","","B","uppercase","546000","0","5","f8b30101a34549c3e95f36030da3b5f289afb411f88937e19d9de1fa086a9ce4","546005","759","77","1","arctic","","","","",""
"dual-task","null","null","null","","swim","arctic","675","","t","null","88","88","1","arctic-dual-task","","t","lowercase","560000","0","5","f8b30101a34549c3e95f36030da3b5f289afb411f88937e19d9de1fa086a9ce4","560007","675","88","1","arctic","","","","",""
"dual-task","null","null","null","","swim","arctic","769","","h","null","88","88","1","arctic-dual-task","","h","lowercase","574000","0","5","f8b30101a34549c3e95f36030da3b5f289afb411f88937e19d9de1fa086a9ce4","574007","769","88","1","arctic","","","","",""
"dual-task","null","null","null","","swim","arctic","522","","d","null","88","88","1","arctic-dual-task","","d","lowercase","588000","0","5","f8b30101a34549c3e95f36030da3b5f289afb411f88937e19d9de1fa086a9ce4","588010","522","88","1","arctic","","","","",""
"dual-task","null","null","null","","swim","arctic","670","","r","null","88","88","1","arctic-dual-task","","r","lowercase","602000","0","5","f8b30101a34549c3e95f36030da3b5f289afb411f88937e19d9de1fa086a9ce4","602015","670","88","1","arctic","","","","",""
"dual-task","null","null","null","","swim","arctic","585","","B","null","77","77","1","arctic-dual-task","","B","uppercase","610000","0","5","f8b30101a34549c3e95f36030da3b5f289afb411f88937e19d9de1fa086a9ce4","610009","585","77","1","arctic","","","","",""
"dual-task","null","null","null","","swim","arctic","658","","b","null","88","88","1","arctic-dual-task","","b","lowercase","620000","0","5","f8b30101a34549c3e95f36030da3b5f289afb411f88937e19d9de1fa086a9ce4","620014","658","88","1","arctic","","","","",""
"dual-task","null","null","null","","swim","arctic","649","","E","null","77","77","1","arctic-dual-task","","E","uppercase","634000","0","5","f8b30101a34549c3e95f36030da3b5f289afb411f88937e19d9de1fa086a9ce4","634006","649","77","1","arctic","","","","",""
"dual-task","null","null","null","","swim","arctic","715","","D","null","77","77","1","arctic-dual-task","","D","uppercase","648000","0","5","f8b30101a34549c3e95f36030da3b5f289afb411f88937e19d9de1fa086a9ce4","648010","715","77","1","arctic","","","","",""
"dual-task","null","null","null","","swim","arctic","834","","Q","null","77","77","1","arctic-dual-task","","Q","uppercase","656000","0","5","f8b30101a34549c3e95f36030da3b5f289afb411f88937e19d9de1fa086a9ce4","656011","834","77","1","arctic","","","","",""
"dual-task","null","null","null","","swim","arctic","664","","H","null","77","77","1","arctic-dual-task","","H","uppercase","668000","0","5","f8b30101a34549c3e95f36030da3b5f289afb411f88937e19d9de1fa086a9ce4","668003","664","77","1","arctic","","","","",""
"dual-task","null","null","null","","swim","arctic","804","","g","null","88","88","1","arctic-dual-task","","g","lowercase","676000","0","5","f8b30101a34549c3e95f36030da3b5f289afb411f88937e19d9de1fa086a9ce4","676010","804","88","1","arctic","","","","",""
"dual-task","null","null","null","","swim","arctic","635","","f","null","88","88","1","arctic-dual-task","","f","lowercase","690000","0","5","f8b30101a34549c3e95f36030da3b5f289afb411f88937e19d9de1fa086a9ce4","690015","635","88","1","arctic","","","","",""
"dual-task","null","null","null","","swim","arctic","655","","h","null","88","88","1","arctic-dual-task","","h","lowercase","700000","0","5","f8b30101a34549c3e95f36030da3b5f289afb411f88937e19d9de1fa086a9ce4","700013","655","88","1","arctic","","","","",""
"dual-task","null","null","null","","swim","arctic","621","","G","null","77","77","1","arctic-dual-task","","G","uppercase","708000","0","5","f8b30101a34549c3e95f36030da3b5f289afb411f88937e19d9de1fa086a9ce4","708010","621","77","1","arctic","","","","",""
"dual-task","null","null","null","","swim","arctic","682","","F","null","77","77","1","arctic-dual-task","","F","uppercase","720000","0","5","f8b30101a34549c3e95f36030da3b5f289afb411f88937e19d9de1fa086a9ce4","720010","682","77","1","arctic","","","","",""
"dual-task","null","null","null","","swim","arctic","646","","n","null","88","88","1","arctic-dual-task","","n","lowercase","726000","0","5","f8b30101a34549c3e95f36030da3b5f289afb411f88937e19d9de1fa086a9ce4","726013","646","88","1","arctic","","","","",""
"dual-task","null","null","null","","swim","arctic","1377","","f","null","88","88","1","arctic-dual-task","","f","lowercase","736000","0","5","f8b30101a34549c3e95f36030da3b5f289afb411f88937e19d9de1fa086a9ce4","736015","1377","88","1","arctic","","","","",""
"dual-task","null","null","null","","swim","arctic","696","","a","null","88","88","1","arctic-dual-task","","a","lowercase","746000","0","5","f8b30101a34549c3e95f36030da3b5f289afb411f88937e19d9de1fa086a9ce4","746007","696","88","1","arctic","","","","",""
"dual-task","null","null","null","","swim","arctic","721","","N","null","77","77","1","arctic-dual-task","","N","uppercase","758000","0","5","f8b30101a34549c3e95f36030da3b5f289afb411f88937e19d9de1fa086a9ce4","758010","721","77","1","arctic","","","","",""
"dual-task","null","null","null","","swim","arctic","705","","r","null","88","88","1","arctic-dual-task","","r","lowercase","764000","0","5","f8b30101a34549c3e95f36030da3b5f289afb411f88937e19d9de1fa086a9ce4","764015","705","88","1","arctic","","","","",""
"dual-task","null","null","null","","swim","arctic","NA","","e","null","NA","88","0","arctic-dual-task","","e","lowercase","774000","1","5","f8b30101a34549c3e95f36030da3b5f289afb411f88937e19d9de1fa086a9ce4","774014","NA","NA","0","arctic","","","","",""
"dual-task","null","null","null","","swim","arctic","525","","R","null","77","77","1","arctic-dual-task","","R","uppercase","786000","0","5","f8b30101a34549c3e95f36030da3b5f289afb411f88937e19d9de1fa086a9ce4","786008","525","77","1","arctic","","","","",""
"audio-keyboard-response","62","2122093","0.0-7.0-2.0-1.0","f8b30101a34549c3e95f36030da3b5f289afb411f88937e19d9de1fa086a9ce4","swim","arctic","null","","audio/story_arctic_scrambled.mp3","","null","","","","","","","","","","","","","","","","","","","",""
"html-button-response","63","2125529","0.0-7.0-2.0-2.0","f8b30101a34549c3e95f36030da3b5f289afb411f88937e19d9de1fa086a9ce4","swim","arctic","3434","","<p>This concludes the story. Thank you for listening.</p><p>You will now answer some questions about the content of the story.</p>","0","","","","","","","","","","","","","","","","","","","","",""
"survey-multi-choice","64","2149617","0.0-7.0-2.0-3.0-0.0","f8b30101a34549c3e95f36030da3b5f289afb411f88937e19d9de1fa086a9ce4","swim","arctic","24083","","<b>What were the weather conditions in the Arctic like the winter of the narrator&#39;s expedition?</b>","","","","1","arctic-comprehension","","","","","","","","","","","","","{""Q0"":""There were more storms than any other winter in recorded history.""}","","","",""
"survey-multi-choice","65","2156810","0.0-7.0-2.0-3.0-0.1","f8b30101a34549c3e95f36030da3b5f289afb411f88937e19d9de1fa086a9ce4","swim","arctic","6925","","<b>What is the name of the narrator&#39;s neighbour?</b>","","","","0","arctic-comprehension","","","","","","","","","","","","","{""Q0"":""Doug""}","","","",""
"survey-multi-choice","66","2176152","0.0-7.0-2.0-3.0-0.2","f8b30101a34549c3e95f36030da3b5f289afb411f88937e19d9de1fa086a9ce4","swim","arctic","19085","","<b>How many sponsorships did the narrator receive to support her expedition?</b>","","","","1","arctic-comprehension","","","","","","","","","","","","","{""Q0"":""None""}","","","",""
"survey-multi-choice","67","2182179","0.0-7.0-2.0-3.0-0.3","f8b30101a34549c3e95f36030da3b5f289afb411f88937e19d9de1fa086a9ce4","swim","arctic","5776","","<b>How did the dogs respond when they saw the bears?</b>","","","","1","arctic-comprehension","","","","","","","","","","","","","{""Q0"":""Approached them""}","","","",""
"survey-multi-choice","68","2194381","0.0-7.0-2.0-3.0-0.4","f8b30101a34549c3e95f36030da3b5f289afb411f88937e19d9de1fa086a9ce4","swim","arctic","11934","","<b>How did the narrator&#39;s encounter with the polar bears end?</b>","","","","1","arctic-comprehension","","","","","","","","","","","","","{""Q0"":""The bears walked back to their den.""}","","","",""
"survey-multi-choice","69","2228573","0.0-7.0-2.0-3.0-0.5","f8b30101a34549c3e95f36030da3b5f289afb411f88937e19d9de1fa086a9ce4","swim","arctic","33930","","<b>How did the narrator&#39;s neighbour respond when she told him about her expedition?</b>","","","","0","arctic-comprehension","","","","","","","","","","","","","{""Q0"":""He offered to cover all expenses.""}","","","",""
"survey-multi-choice","70","2234422","0.0-7.0-2.0-3.0-0.6","f8b30101a34549c3e95f36030da3b5f289afb411f88937e19d9de1fa086a9ce4","swim","arctic","5592","","<b>What was the objective of the narrator&#39;s expedition?</b>","","","","1","arctic-comprehension","","","","","","","","","","","","","{""Q0"":""Dogsled across Arctic America""}","","","",""
"survey-multi-choice","71","2258525","0.0-7.0-2.0-3.0-0.7","f8b30101a34549c3e95f36030da3b5f289afb411f88937e19d9de1fa086a9ce4","swim","arctic","23847","","<b>What did the narrator do for leisure while in her tent?</b>","","","","0","arctic-comprehension","","","","","","","","","","","","","{""Q0"":""Paint""}","","","",""
"survey-multi-choice","72","2265946","0.0-7.0-2.0-3.0-0.8","f8b30101a34549c3e95f36030da3b5f289afb411f88937e19d9de1fa086a9ce4","swim","arctic","7167","","<b>How did the narrator prepare for her expedition?</b>","","","","1","arctic-comprehension","","","","","","","","","","","","","{""Q0"":""Trained in Alaska learning how to dogsled""}","","","",""
"survey-multi-choice","73","2281785","0.0-7.0-2.0-3.0-0.9","f8b30101a34549c3e95f36030da3b5f289afb411f88937e19d9de1fa086a9ce4","swim","arctic","15582","","<b>Which dog on the narrator&#39;s dog team never followed instructions?</b>","","","","1","arctic-comprehension","","","","","","","","","","","","","{""Q0"":""Robert""}","","","",""
"html-button-response","74","2283395","0.0-7.0-2.0-4.0","f8b30101a34549c3e95f36030da3b5f289afb411f88937e19d9de1fa086a9ce4","swim","arctic","1350","","<p>Thank you for your responses.</p><p>You will now answer some questions about your impressions of the story.</p>","0","","","","","","","","","","","","","","","","","","","","",""
"html-button-response","75","2287891","0.0-7.0-2.0-5.0-0.0","f8b30101a34549c3e95f36030da3b5f289afb411f88937e19d9de1fa086a9ce4","swim","arctic","4494","","E6","0","","","","arctic-engagement","","","","","","","","","","","","","","1","enjoyment","",""
"html-button-response","76","2294000","0.0-7.0-2.0-5.0-0.1","f8b30101a34549c3e95f36030da3b5f289afb411f88937e19d9de1fa086a9ce4","swim","arctic","5853","","A2","4","","","","arctic-engagement","","","","","","","","","","","","","","5","absorption","",""
"html-button-response","77","2296208","0.0-7.0-2.0-5.0-0.2","f8b30101a34549c3e95f36030da3b5f289afb411f88937e19d9de1fa086a9ce4","swim","arctic","1948","","EE4","0","","","","arctic-engagement","","","","","","","","","","","","","","1","emo-engage","",""
"html-button-response","78","2299390","0.0-7.0-2.0-5.0-0.3","f8b30101a34549c3e95f36030da3b5f289afb411f88937e19d9de1fa086a9ce4","swim","arctic","2834","","MS3","3","","","","arctic-engagement","","","","","","","","","","","","","","4","mental-sim","",""
"html-button-response","79","2302895","0.0-7.0-2.0-5.0-0.4","f8b30101a34549c3e95f36030da3b5f289afb411f88937e19d9de1fa086a9ce4","swim","arctic","3252","","A1","0","","","","arctic-engagement","","","","","","","","","","","","","","1","absorption","",""
"html-button-response","80","2304363","0.0-7.0-2.0-5.0-0.5","f8b30101a34549c3e95f36030da3b5f289afb411f88937e19d9de1fa086a9ce4","swim","arctic","1214","","E1","0","","","","arctic-engagement","","","","","","","","","","","","","","1","enjoyment","",""
"html-button-response","81","2306840","0.0-7.0-2.0-5.0-0.6","f8b30101a34549c3e95f36030da3b5f289afb411f88937e19d9de1fa086a9ce4","swim","arctic","2225","","A4","0","","","","arctic-engagement","","","","","","","","","","","","","","1","absorption","",""
"html-button-response","82","2309464","0.0-7.0-2.0-5.0-0.7","f8b30101a34549c3e95f36030da3b5f289afb411f88937e19d9de1fa086a9ce4","swim","arctic","2364","","E8","0","","","","arctic-engagement","","","","","","","","","","","","","","1","enjoyment","",""
"html-button-response","83","2310607","0.0-7.0-2.0-5.0-0.8","f8b30101a34549c3e95f36030da3b5f289afb411f88937e19d9de1fa086a9ce4","swim","arctic","878","","A3","0","","","","arctic-engagement","","","","","","","","","","","","","","1","absorption","",""
"html-button-response","84","2313078","0.0-7.0-2.0-5.0-0.9","f8b30101a34549c3e95f36030da3b5f289afb411f88937e19d9de1fa086a9ce4","swim","arctic","2219","","EE5","0","","","","arctic-engagement","","","","","","","","","","","","","","1","emo-engage","",""
"html-button-response","85","2314919","0.0-7.0-2.0-5.0-0.10","f8b30101a34549c3e95f36030da3b5f289afb411f88937e19d9de1fa086a9ce4","swim","arctic","1577","","A5","0","","","","arctic-engagement","","","","","","","","","","","","","","1","absorption","",""
"html-button-response","86","2319473","0.0-7.0-2.0-5.0-0.11","f8b30101a34549c3e95f36030da3b5f289afb411f88937e19d9de1fa086a9ce4","swim","arctic","4299","","MS1","1","","","","arctic-engagement","","","","","","","","","","","","","","2","mental-sim","",""
"html-button-response","87","2321134","0.0-7.0-2.0-5.0-0.12","f8b30101a34549c3e95f36030da3b5f289afb411f88937e19d9de1fa086a9ce4","swim","arctic","1403","","EE3","0","","","","arctic-engagement","","","","","","","","","","","","","","1","emo-engage","",""
"html-button-response","88","2322833","0.0-7.0-2.0-5.0-0.13","f8b30101a34549c3e95f36030da3b5f289afb411f88937e19d9de1fa086a9ce4","swim","arctic","1442","","E10","0","","","","arctic-engagement","","","","","","","","","","","","","","1","enjoyment","",""
"html-button-response","89","2324498","0.0-7.0-2.0-5.0-0.14","f8b30101a34549c3e95f36030da3b5f289afb411f88937e19d9de1fa086a9ce4","swim","arctic","1403","","EE2","0","","","","arctic-engagement","","","","","","","","","","","","","","1","emo-engage","",""
"html-button-response","90","2329630","0.0-7.0-2.0-5.0-0.15","f8b30101a34549c3e95f36030da3b5f289afb411f88937e19d9de1fa086a9ce4","swim","arctic","4875","","MS2","3","","","","arctic-engagement","","","","","","","","","","","","","","4","mental-sim","",""
"html-button-response","91","2333130","0.0-7.0-2.0-5.0-0.16","f8b30101a34549c3e95f36030da3b5f289afb411f88937e19d9de1fa086a9ce4","swim","arctic","3235","","E7","1","","","","arctic-engagement","","","","","","","","","","","","","","2","enjoyment","",""
"html-button-response","92","2339227","0.0-7.0-2.0-5.0-0.17","f8b30101a34549c3e95f36030da3b5f289afb411f88937e19d9de1fa086a9ce4","swim","arctic","5845","","EE1","0","","","","arctic-engagement","","","","","","","","","","","","","","1","emo-engage","",""
"html-button-response","93","2340678","0.0-8.0","f8b30101a34549c3e95f36030da3b5f289afb411f88937e19d9de1fa086a9ce4","swim","arctic","1192","","<p>Thank you for your responses.</p><p>You will now answer some demographic, hearing, and general health questions.</p>","0","","","","","","","","","","","","","","","","","","","","",""
"survey-multi-choice","94","2343422","0.0-9.0-0.0","f8b30101a34549c3e95f36030da3b5f289afb411f88937e19d9de1fa086a9ce4","swim","arctic","2743","","","","","","","survey","","","","","","","","","","","","","{""Q0"":""Firefox""}","","","browser",""
"survey-text","95","2346213","0.0-9.0-1.0","f8b30101a34549c3e95f36030da3b5f289afb411f88937e19d9de1fa086a9ce4","swim","arctic","2532","","","","","","","survey","","","","","","","","","","","","","{""AGE"":""34""}","","","age","34"
"survey-multi-choice","96","2349136","0.0-9.0-2.0","f8b30101a34549c3e95f36030da3b5f289afb411f88937e19d9de1fa086a9ce4","swim","arctic","2665","","","","","","","survey","","","","","","","","","","","","","{""Q0"":""Male""}","","","gender","Male"
"survey-multi-choice","97","2351190","0.0-9.0-4.0","f8b30101a34549c3e95f36030da3b5f289afb411f88937e19d9de1fa086a9ce4","swim","arctic","1784","","","","","","","survey","","","","","","","","","","","","","{""Q0"":""Right""}","","","handedness","Right"
"survey-multi-choice","98","2354372","0.0-9.0-5.0","f8b30101a34549c3e95f36030da3b5f289afb411f88937e19d9de1fa086a9ce4","swim","arctic","2921","","","","","","","survey","","","","","","","","","","","","","{""Q0"":""Bachelor's Degree""}","","","education","Bachelor's Degree"
"survey-text","99","2360132","0.0-10.0-0.0","f8b30101a34549c3e95f36030da3b5f289afb411f88937e19d9de1fa086a9ce4","swim","arctic","5499","","","","","","","survey","","","","","","","","","","","","","{""L1"":""English""}","","","first-language","English"
"survey-text","100","2387838","0.0-10.0-1.0","f8b30101a34549c3e95f36030da3b5f289afb411f88937e19d9de1fa086a9ce4","swim","arctic","27446","","","","","","","survey","","","","","","","","","","","","","{""L2name"":""Cantonese"",""L2fluency"":""5"",""L3name"":"""",""L3fluency"":"""",""L4name"":"""",""L4fluency"":""""}","","","additional-languages","{""L2name"":""Cantonese"",""L2fluency"":""5"",""L3name"":"""",""L3fluency"":"""",""L4name"":"""",""L4fluency"":""""}"
"survey-multi-choice","101","2390903","0.0-10.0-2.0","f8b30101a34549c3e95f36030da3b5f289afb411f88937e19d9de1fa086a9ce4","swim","arctic","2814","","","","","","","survey","","","","","","","","","","","","","{""Q0"":""No""}","","","hearing-aid","No"
"survey-multi-choice","102","2394556","0.0-10.0-3.0","f8b30101a34549c3e95f36030da3b5f289afb411f88937e19d9de1fa086a9ce4","swim","arctic","3388","","","","","","","survey","","","","","","","","","","","","","{""Q0"":""Never""}","","","ringing-ears","Never"
"survey-multi-choice","103","2396914","0.0-10.0-5.0","f8b30101a34549c3e95f36030da3b5f289afb411f88937e19d9de1fa086a9ce4","swim","arctic","2097","","","","","","","survey","","","","","","","","","","","","","{""Q0"":""No""}","","","neuro-disease","No"
"survey-multi-choice","104","2400182","0.0-10.0-7.0","f8b30101a34549c3e95f36030da3b5f289afb411f88937e19d9de1fa086a9ce4","swim","arctic","3002","","","","","","","survey","","","","","","","","","","","","","{""Q0"":""No""}","","","take-meds","No"
"survey-text","105","2408904","0.0-10.0-9.0","f8b30101a34549c3e95f36030da3b5f289afb411f88937e19d9de1fa086a9ce4","swim","arctic","8461","","","","","","","survey","","","","","","","","","","","","","{""HC"":""""}","","","health-concerns",""
"html-button-response","106","2414437","0.0-11.0-0.0","f8b30101a34549c3e95f36030da3b5f289afb411f88937e19d9de1fa086a9ce4","swim","arctic","5269","","<p>How would you describe your musical skills/experiences?</p>","0","","","","survey","","","","","","","","","","","","","","","","music-skill","1"
"survey-multi-choice","107","2416652","0.0-11.0-1.0","f8b30101a34549c3e95f36030da3b5f289afb411f88937e19d9de1fa086a9ce4","swim","arctic","1960","","","","","","","survey","","","","","","","","","","","","","{""Q0"":""No""}","","","music-instrument","No"
"html-button-response","108","2420392","0.0-12.0-0.0","f8b30101a34549c3e95f36030da3b5f289afb411f88937e19d9de1fa086a9ce4","swim","arctic","3483","","<p>How would you describe your general hearing abilities?</p>","5","","","","survey","","","","","","","","","","","","","","","","ssq-01","6"
"html-button-response","109","2433911","0.0-12.0-1.0","f8b30101a34549c3e95f36030da3b5f289afb411f88937e19d9de1fa086a9ce4","swim","arctic","13264","","<p>When you talk with someone at a place that strongly reverberates/echoes (e.g., in a church or train station),</br>can you understand what the person says?</p>","9","","","","survey","","","","","","","","","","","","","","","","ssq-02","9"
"html-button-response","110","2441707","0.0-12.0-2.0","f8b30101a34549c3e95f36030da3b5f289afb411f88937e19d9de1fa086a9ce4","swim","arctic","7538","","<p>When you are with a group (~5 people) in a lively restaurant, can you follow the group's conversation?</p>","8","","","","survey","","","","","","","","","","","","","","","","ssq-03","8"
"html-button-response","111","2447758","0.0-12.0-3.0","f8b30101a34549c3e95f36030da3b5f289afb411f88937e19d9de1fa086a9ce4","swim","arctic","5800","","<p>Based on the sound of a bus or truck, can you tell whether it is moving towards or away from you?</p>","10","","","","survey","","","","","","","","","","","","","","","","ssq-04","10"
"html-button-response","112","2454748","0.0-12.0-4.0","f8b30101a34549c3e95f36030da3b5f289afb411f88937e19d9de1fa086a9ce4","swim","arctic","6738","","<p>When you are in an unknown environment, can you tell from which direction a brief sound originates?</p>","9","","","","survey","","","","","","","","","","","","","","","","ssq-05","9"
"html-button-response","113","2460140","0.0-12.0-5.0","f8b30101a34549c3e95f36030da3b5f289afb411f88937e19d9de1fa086a9ce4","swim","arctic","5134","","<p>Are you able to ignore distracting sounds when you concentrate on a specific aspect of your acoustic surrounding?</p>","8","","","","survey","","","","","","","","","","","","","","","","ssq-06","8"
"fullscreen","114","2461396","0.0-13.0","f8b30101a34549c3e95f36030da3b5f289afb411f88937e19d9de1fa086a9ce4","swim","arctic","","","","","","","","","true","","","","","","","","","","","","","","","",""
