"trial_type","trial_index","time_elapsed","internal_node_id","ParticipantID","firstStory","scramStory","rt","url","stimulus","button_pressed","key_press","correctRESP","correct","designation","success","letterStim","letterType","ONSET","TIMEOUT","CONDITION","Participant","ONSET_ACTUAL","RT","RESP","ACC","STORY","responses","response","type","surveyQuestion","QRESP"
"pavlovia","0","2","0.0-0.0","859a4c7938eaf81415aa96a1355bbba7f9f1297417f684fbf1afb9e577823ba7","arctic","swim","","","","","","","","","","","","","","","","","","","","","","","","",""
"external-html","1","5122","0.0-1.0","859a4c7938eaf81415aa96a1355bbba7f9f1297417f684fbf1afb9e577823ba7","arctic","swim","4936","consent/consent_updated.html","","","","","","","","","","","","","","","","","","","","","","",""
"html-button-response","2","9176","0.0-2.0-0.0","859a4c7938eaf81415aa96a1355bbba7f9f1297417f684fbf1afb9e577823ba7","arctic","swim","4052","","<p>Before we begin the main task, you will complete a short volume calibration and headphone check.</p><p>Please make sure you are in a quiet listening environment, that you are wearing headphones, and that your computer's volume is turned on.<p></p>","0","","","","","","","","","","","","","","","","","","","","",""
"html-button-response","3","14708","0.0-2.0-1.0","859a4c7938eaf81415aa96a1355bbba7f9f1297417f684fbf1afb9e577823ba7","arctic","swim","5278","","<p>The volume calibration will be first.</p><p>You will hear a thirty-second noise. Please adjust your computer's volume so that this noise is being presented at a comfortable level.<p></p>","0","","","","","","","","","","","","","","","","","","","","",""
"audio-button-response","4","25168","0.0-2.0-2.0","859a4c7938eaf81415aa96a1355bbba7f9f1297417f684fbf1afb9e577823ba7","arctic","swim","10194","","audio/volumetest.mp3","0","","","","","","","","","","","","","","","","","","","","",""
"html-keyboard-response","5","30789","0.0-3.0-0.0","859a4c7938eaf81415aa96a1355bbba7f9f1297417f684fbf1afb9e577823ba7","arctic","swim","5621","","<p>You will now complete a short headphone check.</p><p>On each trial, you will hear three tones. One of these tones will be quieter than the others. Your task is to identify whether the quiet tone occurred first, second, or third.</p><p>There are six trials in total.<p></p><p></p>(Press SPACEBAR to begin)","","32","","","","","","","","","","","","","","","","","","","",""
"html-keyboard-response","6","31541","0.0-3.0-1.0-0.0","859a4c7938eaf81415aa96a1355bbba7f9f1297417f684fbf1afb9e577823ba7","arctic","swim","null","","<div style=""font-size:60px;"">+</div>","","null","","","","","","","","","","","","","","","","","","","",""
"audio-button-response","7","35522","0.0-3.0-1.0-1.0","859a4c7938eaf81415aa96a1355bbba7f9f1297417f684fbf1afb9e577823ba7","arctic","swim","3979","","audio/t1_1.mp3","0","","0","1","headphone-test","","","","","","","","","","","","","","","","",""
"html-keyboard-response","8","36023","0.0-3.0-1.0-2.0","859a4c7938eaf81415aa96a1355bbba7f9f1297417f684fbf1afb9e577823ba7","arctic","swim","null","","<p>Correct</p>","","null","","","","","","","","","","","","","","","","","","","",""
"html-keyboard-response","9","36525","0.0-3.0-1.0-0.1","859a4c7938eaf81415aa96a1355bbba7f9f1297417f684fbf1afb9e577823ba7","arctic","swim","null","","<div style=""font-size:60px;"">+</div>","","null","","","","","","","","","","","","","","","","","","","",""
"audio-button-response","10","40041","0.0-3.0-1.0-1.1","859a4c7938eaf81415aa96a1355bbba7f9f1297417f684fbf1afb9e577823ba7","arctic","swim","3515","","audio/t2_1.mp3","1","","1","1","headphone-test","","","","","","","","","","","","","","","","",""
"html-keyboard-response","11","40555","0.0-3.0-1.0-2.1","859a4c7938eaf81415aa96a1355bbba7f9f1297417f684fbf1afb9e577823ba7","arctic","swim","null","","<p>Correct</p>","","null","","","","","","","","","","","","","","","","","","","",""
"html-keyboard-response","12","41056","0.0-3.0-1.0-0.2","859a4c7938eaf81415aa96a1355bbba7f9f1297417f684fbf1afb9e577823ba7","arctic","swim","null","","<div style=""font-size:60px;"">+</div>","","null","","","","","","","","","","","","","","","","","","","",""
"audio-button-response","13","44543","0.0-3.0-1.0-1.2","859a4c7938eaf81415aa96a1355bbba7f9f1297417f684fbf1afb9e577823ba7","arctic","swim","3485","","audio/t2_2.mp3","1","","1","1","headphone-test","","","","","","","","","","","","","","","","",""
"html-keyboard-response","14","45044","0.0-3.0-1.0-2.2","859a4c7938eaf81415aa96a1355bbba7f9f1297417f684fbf1afb9e577823ba7","arctic","swim","null","","<p>Correct</p>","","null","","","","","","","","","","","","","","","","","","","",""
"html-keyboard-response","15","45547","0.0-3.0-1.0-0.3","859a4c7938eaf81415aa96a1355bbba7f9f1297417f684fbf1afb9e577823ba7","arctic","swim","null","","<div style=""font-size:60px;"">+</div>","","null","","","","","","","","","","","","","","","","","","","",""
"audio-button-response","16","49043","0.0-3.0-1.0-1.3","859a4c7938eaf81415aa96a1355bbba7f9f1297417f684fbf1afb9e577823ba7","arctic","swim","3495","","audio/t3_2.mp3","2","","2","1","headphone-test","","","","","","","","","","","","","","","","",""
"html-keyboard-response","17","49544","0.0-3.0-1.0-2.3","859a4c7938eaf81415aa96a1355bbba7f9f1297417f684fbf1afb9e577823ba7","arctic","swim","null","","<p>Correct</p>","","null","","","","","","","","","","","","","","","","","","","",""
"html-keyboard-response","18","50046","0.0-3.0-1.0-0.4","859a4c7938eaf81415aa96a1355bbba7f9f1297417f684fbf1afb9e577823ba7","arctic","swim","null","","<div style=""font-size:60px;"">+</div>","","null","","","","","","","","","","","","","","","","","","","",""
"audio-button-response","19","53598","0.0-3.0-1.0-1.4","859a4c7938eaf81415aa96a1355bbba7f9f1297417f684fbf1afb9e577823ba7","arctic","swim","3551","","audio/t3_1.mp3","2","","2","1","headphone-test","","","","","","","","","","","","","","","","",""
"html-keyboard-response","20","54100","0.0-3.0-1.0-2.4","859a4c7938eaf81415aa96a1355bbba7f9f1297417f684fbf1afb9e577823ba7","arctic","swim","null","","<p>Correct</p>","","null","","","","","","","","","","","","","","","","","","","",""
"html-keyboard-response","21","54602","0.0-3.0-1.0-0.5","859a4c7938eaf81415aa96a1355bbba7f9f1297417f684fbf1afb9e577823ba7","arctic","swim","null","","<div style=""font-size:60px;"">+</div>","","null","","","","","","","","","","","","","","","","","","","",""
"audio-button-response","22","55634","0.0-3.0-1.0-1.5","859a4c7938eaf81415aa96a1355bbba7f9f1297417f684fbf1afb9e577823ba7","arctic","swim","1031","","audio/t1_2.mp3","0","","0","1","headphone-test","","","","","","","","","","","","","","","","",""
"html-keyboard-response","23","56134","0.0-3.0-1.0-2.5","859a4c7938eaf81415aa96a1355bbba7f9f1297417f684fbf1afb9e577823ba7","arctic","swim","null","","<p>Correct</p>","","null","","","","","","","","","","","","","","","","","","","",""
"fullscreen","24","58357","0.0-4.0","859a4c7938eaf81415aa96a1355bbba7f9f1297417f684fbf1afb9e577823ba7","arctic","swim","","","","","","","","","true","","","","","","","","","","","","","","","",""
"html-button-response","25","67025","0.0-5.0-0.0","859a4c7938eaf81415aa96a1355bbba7f9f1297417f684fbf1afb9e577823ba7","arctic","swim","8667","","<p>There are two blocks to this experiment.</p><p>In each block, you will hear a ~13.5 minute story. One of the stories will be scrambled. Please listen carefully to both stories and understand them as best you can.</p><p>After each story, you will be asked some questions to assess your comprehension.</p>","0","","","","","","","","","","","","","","","","","","","","",""
"html-button-response","26","85643","0.0-5.0-1.0","859a4c7938eaf81415aa96a1355bbba7f9f1297417f684fbf1afb9e577823ba7","arctic","swim","18618","","<p>During each story, there will be an additional task.</p><p>A letter will occasionally appear on the screen.</br>Your job is to - as quickly as you can - decide whether the letter is lowercase or uppercase and press one of two keys on the keyboard:</p><p>If the letter is <b>lowercase</b>, press key &lt;<b>x</b>&gt;.</p><p>If the letter is <b>uppercase</b>, press key &lt;<b>m</b>&gt;.</p>","0","","","","","","","","","","","","","","","","","","","","",""
"html-keyboard-response","27","92685","0.0-5.0-2.0","859a4c7938eaf81415aa96a1355bbba7f9f1297417f684fbf1afb9e577823ba7","arctic","swim","7041","","<p>Because we want your responses to be as quick as possible, please keep your index fingers over the keys while listening.</p><p>Each block lasts about 20 minutes.</p><p><b>Press &lt;x&gt; or &lt;m&gt; to start the first block!</b></p>","","88","","","","","","","","","","","","","","","","","","","",""
"html-keyboard-response","28","93187","0.0-6.0-0.0-0.0","859a4c7938eaf81415aa96a1355bbba7f9f1297417f684fbf1afb9e577823ba7","arctic","swim","null","","<div style=""font-size:60px;"" tabindex=""0"">+</div>","","null","","","","","","","","","","","","","","","","","","","",""
"dual-task","null","null","null","","arctic","swim","1041.3000000715256","","H","null","77","77","1","arctic-dual-task","","H","uppercase","10000","0","1","859a4c7938eaf81415aa96a1355bbba7f9f1297417f684fbf1afb9e577823ba7","10003","1041.3000000715256","77","1","arctic","","","","",""
"dual-task","null","null","null","","arctic","swim","791","","H","null","77","77","1","arctic-dual-task","","H","uppercase","24000","0","1","859a4c7938eaf81415aa96a1355bbba7f9f1297417f684fbf1afb9e577823ba7","24007.100000023842","791","77","1","arctic","","","","",""
"dual-task","null","null","null","","arctic","swim","858","","b","null","88","88","1","arctic-dual-task","","b","lowercase","34000","0","1","859a4c7938eaf81415aa96a1355bbba7f9f1297417f684fbf1afb9e577823ba7","34007","858","88","1","arctic","","","","",""
"dual-task","null","null","null","","arctic","swim","709.1000000238419","","H","null","77","77","1","arctic-dual-task","","H","uppercase","44000","0","1","859a4c7938eaf81415aa96a1355bbba7f9f1297417f684fbf1afb9e577823ba7","44007","709.1000000238419","77","1","arctic","","","","",""
"dual-task","null","null","null","","arctic","swim","800.2999999523163","","a","null","88","88","1","arctic-dual-task","","a","lowercase","56000","0","1","859a4c7938eaf81415aa96a1355bbba7f9f1297417f684fbf1afb9e577823ba7","56015.10000002384","800.2999999523163","88","1","arctic","","","","",""
"dual-task","null","null","null","","arctic","swim","768.1999999284744","","e","null","88","88","1","arctic-dual-task","","e","lowercase","64000","0","1","859a4c7938eaf81415aa96a1355bbba7f9f1297417f684fbf1afb9e577823ba7","64016.200000047684","768.1999999284744","88","1","arctic","","","","",""
"dual-task","null","null","null","","arctic","swim","596.8999999761581","","r","null","88","88","1","arctic-dual-task","","r","lowercase","76000","0","1","859a4c7938eaf81415aa96a1355bbba7f9f1297417f684fbf1afb9e577823ba7","76004.10000002384","596.8999999761581","88","1","arctic","","","","",""
"dual-task","null","null","null","","arctic","swim","716.8999999761581","","F","null","77","77","1","arctic-dual-task","","F","uppercase","86000","0","1","859a4c7938eaf81415aa96a1355bbba7f9f1297417f684fbf1afb9e577823ba7","86003.20000004768","716.8999999761581","77","1","arctic","","","","",""
"dual-task","null","null","null","","arctic","swim","601.1000000238419","","T","null","77","77","1","arctic-dual-task","","T","uppercase","100000","0","1","859a4c7938eaf81415aa96a1355bbba7f9f1297417f684fbf1afb9e577823ba7","100012.89999997616","601.1000000238419","77","1","arctic","","","","",""
"dual-task","null","null","null","","arctic","swim","1042.1999999284744","","H","null","77","77","1","arctic-dual-task","","H","uppercase","110000","0","1","859a4c7938eaf81415aa96a1355bbba7f9f1297417f684fbf1afb9e577823ba7","110015.80000007153","1042.1999999284744","77","1","arctic","","","","",""
"dual-task","null","null","null","","arctic","swim","818.2000000476837","","r","null","88","88","1","arctic-dual-task","","r","lowercase","122000","0","1","859a4c7938eaf81415aa96a1355bbba7f9f1297417f684fbf1afb9e577823ba7","122013.89999997616","818.2000000476837","88","1","arctic","","","","",""
"dual-task","null","null","null","","arctic","swim","680.2999999523163","","a","null","88","88","1","arctic-dual-task","","a","lowercase","128000","0","1","859a4c7938eaf81415aa96a1355bbba7f9f1297417f684fbf1afb9e577823ba7","128010.60000002384","680.2999999523163","88","1","arctic","","","","",""
"dual-task","null","null","null","","arctic","swim","587","","T","null","77","77","1","arctic-dual-task","","T","uppercase","140000","0","1","859a4c7938eaf81415aa96a1355bbba7f9f1297417f684fbf1afb9e577823ba7","140005","587","77","1","arctic","","","","",""
"dual-task","null","null","null","","arctic","swim","508.7000000476837","","q","null","88","88","1","arctic-dual-task","","q","lowercase","152000","0","1","859a4c7938eaf81415aa96a1355bbba7f9f1297417f684fbf1afb9e577823ba7","152000.60000002384","508.7000000476837","88","1","arctic","","","","",""
"dual-task","null","null","null","","arctic","swim","539.5","","T","null","77","77","1","arctic-dual-task","","T","uppercase","160000","0","1","859a4c7938eaf81415aa96a1355bbba7f9f1297417f684fbf1afb9e577823ba7","160000","539.5","77","1","arctic","","","","",""
"dual-task","null","null","null","","arctic","swim","946.5","","t","null","88","88","1","arctic-dual-task","","t","lowercase","172000","0","1","859a4c7938eaf81415aa96a1355bbba7f9f1297417f684fbf1afb9e577823ba7","172006.60000002384","946.5","88","1","arctic","","","","",""
"dual-task","null","null","null","","arctic","swim","774.1000000238419","","g","null","88","88","1","arctic-dual-task","","g","lowercase","180000","0","1","859a4c7938eaf81415aa96a1355bbba7f9f1297417f684fbf1afb9e577823ba7","180008.89999997616","774.1000000238419","88","1","arctic","","","","",""
"dual-task","null","null","null","","arctic","swim","524","","E","null","77","77","1","arctic-dual-task","","E","uppercase","188000","0","1","859a4c7938eaf81415aa96a1355bbba7f9f1297417f684fbf1afb9e577823ba7","188008.89999997616","524","77","1","arctic","","","","",""
"dual-task","null","null","null","","arctic","swim","570.7000000476837","","R","null","77","77","1","arctic-dual-task","","R","uppercase","196000","0","1","859a4c7938eaf81415aa96a1355bbba7f9f1297417f684fbf1afb9e577823ba7","196001.30000007153","570.7000000476837","77","1","arctic","","","","",""
"dual-task","null","null","null","","arctic","swim","615.3000000715256","","n","null","88","88","1","arctic-dual-task","","n","lowercase","208000","0","1","859a4c7938eaf81415aa96a1355bbba7f9f1297417f684fbf1afb9e577823ba7","208001.89999997616","615.3000000715256","88","1","arctic","","","","",""
"dual-task","null","null","null","","arctic","swim","892.7999999523163","","t","null","88","88","1","arctic-dual-task","","t","lowercase","218000","0","1","859a4c7938eaf81415aa96a1355bbba7f9f1297417f684fbf1afb9e577823ba7","218000.20000004768","892.7999999523163","88","1","arctic","","","","",""
"dual-task","null","null","null","","arctic","swim","1274.5","","d","null","88","88","1","arctic-dual-task","","d","lowercase","228000","0","1","859a4c7938eaf81415aa96a1355bbba7f9f1297417f684fbf1afb9e577823ba7","228001.5","1274.5","88","1","arctic","","","","",""
"dual-task","null","null","null","","arctic","swim","796.8999999761581","","h","null","88","88","1","arctic-dual-task","","h","lowercase","242000","0","1","859a4c7938eaf81415aa96a1355bbba7f9f1297417f684fbf1afb9e577823ba7","242008.20000004768","796.8999999761581","88","1","arctic","","","","",""
"dual-task","null","null","null","","arctic","swim","662.5999999046326","","f","null","88","88","1","arctic-dual-task","","f","lowercase","254000","0","1","859a4c7938eaf81415aa96a1355bbba7f9f1297417f684fbf1afb9e577823ba7","254007.20000004768","662.5999999046326","88","1","arctic","","","","",""
"dual-task","null","null","null","","arctic","swim","748.2999999523163","","N","null","77","77","1","arctic-dual-task","","N","uppercase","260000","0","1","859a4c7938eaf81415aa96a1355bbba7f9f1297417f684fbf1afb9e577823ba7","260005.5","748.2999999523163","77","1","arctic","","","","",""
"dual-task","null","null","null","","arctic","swim","833.0999999046326","","f","null","88","88","1","arctic-dual-task","","f","lowercase","270000","0","1","859a4c7938eaf81415aa96a1355bbba7f9f1297417f684fbf1afb9e577823ba7","270015.8000000715","833.0999999046326","88","1","arctic","","","","",""
"dual-task","null","null","null","","arctic","swim","548","","g","null","88","88","1","arctic-dual-task","","g","lowercase","282000","0","1","859a4c7938eaf81415aa96a1355bbba7f9f1297417f684fbf1afb9e577823ba7","282002.10000002384","548","88","1","arctic","","","","",""
"dual-task","null","null","null","","arctic","swim","789.7000000476837","","g","null","88","88","1","arctic-dual-task","","g","lowercase","290000","0","1","859a4c7938eaf81415aa96a1355bbba7f9f1297417f684fbf1afb9e577823ba7","290007","789.7000000476837","88","1","arctic","","","","",""
"dual-task","null","null","null","","arctic","swim","571.5","","G","null","77","77","1","arctic-dual-task","","G","uppercase","300000","0","1","859a4c7938eaf81415aa96a1355bbba7f9f1297417f684fbf1afb9e577823ba7","300008.39999997616","571.5","77","1","arctic","","","","",""
"dual-task","null","null","null","","arctic","swim","658.3000000715256","","F","null","77","77","1","arctic-dual-task","","F","uppercase","312000","0","1","859a4c7938eaf81415aa96a1355bbba7f9f1297417f684fbf1afb9e577823ba7","312011.3000000715","658.3000000715256","77","1","arctic","","","","",""
"dual-task","null","null","null","","arctic","swim","631","","Q","null","77","77","1","arctic-dual-task","","Q","uppercase","320000","0","1","859a4c7938eaf81415aa96a1355bbba7f9f1297417f684fbf1afb9e577823ba7","320002.8000000715","631","77","1","arctic","","","","",""
"dual-task","null","null","null","","arctic","swim","672.5999999046326","","D","null","77","77","1","arctic-dual-task","","D","uppercase","332000","0","1","859a4c7938eaf81415aa96a1355bbba7f9f1297417f684fbf1afb9e577823ba7","332007.3000000715","672.5999999046326","77","1","arctic","","","","",""
"dual-task","null","null","null","","arctic","swim","623.8999999761581","","h","null","88","88","1","arctic-dual-task","","h","lowercase","340000","0","1","859a4c7938eaf81415aa96a1355bbba7f9f1297417f684fbf1afb9e577823ba7","340014.7000000477","623.8999999761581","88","1","arctic","","","","",""
"dual-task","null","null","null","","arctic","swim","564.2000000476837","","f","null","88","88","1","arctic-dual-task","","f","lowercase","352000","0","1","859a4c7938eaf81415aa96a1355bbba7f9f1297417f684fbf1afb9e577823ba7","352000.8000000715","564.2000000476837","88","1","arctic","","","","",""
"dual-task","null","null","null","","arctic","swim","980.4000000953674","","A","null","77","77","1","arctic-dual-task","","A","uppercase","360000","0","1","859a4c7938eaf81415aa96a1355bbba7f9f1297417f684fbf1afb9e577823ba7","360001.3000000715","980.4000000953674","77","1","arctic","","","","",""
"dual-task","null","null","null","","arctic","swim","483.5","","b","null","88","88","1","arctic-dual-task","","b","lowercase","368000","0","1","859a4c7938eaf81415aa96a1355bbba7f9f1297417f684fbf1afb9e577823ba7","368001.3000000715","483.5","88","1","arctic","","","","",""
"dual-task","null","null","null","","arctic","swim","969.3999999761581","","q","null","88","88","1","arctic-dual-task","","q","lowercase","382000","0","1","859a4c7938eaf81415aa96a1355bbba7f9f1297417f684fbf1afb9e577823ba7","382001.2000000477","969.3999999761581","88","1","arctic","","","","",""
"dual-task","null","null","null","","arctic","swim","591.2000000476837","","A","null","77","77","1","arctic-dual-task","","A","uppercase","396000","0","1","859a4c7938eaf81415aa96a1355bbba7f9f1297417f684fbf1afb9e577823ba7","396016","591.2000000476837","77","1","arctic","","","","",""
"dual-task","null","null","null","","arctic","swim","827","","E","null","77","77","1","arctic-dual-task","","E","uppercase","406000","0","1","859a4c7938eaf81415aa96a1355bbba7f9f1297417f684fbf1afb9e577823ba7","406001","827","77","1","arctic","","","","",""
"dual-task","null","null","null","","arctic","swim","568","","G","null","77","77","1","arctic-dual-task","","G","uppercase","414000","0","1","859a4c7938eaf81415aa96a1355bbba7f9f1297417f684fbf1afb9e577823ba7","414009.8000000715","568","77","1","arctic","","","","",""
"dual-task","null","null","null","","arctic","swim","608.6999999284744","","d","null","88","88","1","arctic-dual-task","","d","lowercase","422000","0","1","859a4c7938eaf81415aa96a1355bbba7f9f1297417f684fbf1afb9e577823ba7","422010.2000000477","608.6999999284744","88","1","arctic","","","","",""
"dual-task","null","null","null","","arctic","swim","572.2000000476837","","D","null","77","77","1","arctic-dual-task","","D","uppercase","432000","0","1","859a4c7938eaf81415aa96a1355bbba7f9f1297417f684fbf1afb9e577823ba7","432001.5","572.2000000476837","77","1","arctic","","","","",""
"dual-task","null","null","null","","arctic","swim","587","","B","null","77","77","1","arctic-dual-task","","B","uppercase","440000","0","1","859a4c7938eaf81415aa96a1355bbba7f9f1297417f684fbf1afb9e577823ba7","440001","587","77","1","arctic","","","","",""
"dual-task","null","null","null","","arctic","swim","664.1000000238419","","R","null","77","77","1","arctic-dual-task","","R","uppercase","454000","0","1","859a4c7938eaf81415aa96a1355bbba7f9f1297417f684fbf1afb9e577823ba7","454011.89999997616","664.1000000238419","77","1","arctic","","","","",""
"dual-task","null","null","null","","arctic","swim","807.5","","e","null","88","88","1","arctic-dual-task","","e","lowercase","462000","0","1","859a4c7938eaf81415aa96a1355bbba7f9f1297417f684fbf1afb9e577823ba7","462007.39999997616","807.5","88","1","arctic","","","","",""
"dual-task","null","null","null","","arctic","swim","585.2999999523163","","N","null","77","77","1","arctic-dual-task","","N","uppercase","472000","0","1","859a4c7938eaf81415aa96a1355bbba7f9f1297417f684fbf1afb9e577823ba7","472003.60000002384","585.2999999523163","77","1","arctic","","","","",""
"dual-task","null","null","null","","arctic","swim","680.6000000238419","","A","null","77","77","1","arctic-dual-task","","A","uppercase","480000","0","1","859a4c7938eaf81415aa96a1355bbba7f9f1297417f684fbf1afb9e577823ba7","480003.2000000477","680.6000000238419","77","1","arctic","","","","",""
"dual-task","null","null","null","","arctic","swim","726.7000000476837","","e","null","88","88","1","arctic-dual-task","","e","lowercase","486000","0","1","859a4c7938eaf81415aa96a1355bbba7f9f1297417f684fbf1afb9e577823ba7","486001.89999997616","726.7000000476837","88","1","arctic","","","","",""
"dual-task","null","null","null","","arctic","swim","642","","a","null","88","88","1","arctic-dual-task","","a","lowercase","496000","0","1","859a4c7938eaf81415aa96a1355bbba7f9f1297417f684fbf1afb9e577823ba7","496001","642","88","1","arctic","","","","",""
"dual-task","null","null","null","","arctic","swim","571","","r","null","88","88","1","arctic-dual-task","","r","lowercase","508000","0","1","859a4c7938eaf81415aa96a1355bbba7f9f1297417f684fbf1afb9e577823ba7","508006.89999997616","571","88","1","arctic","","","","",""
"dual-task","null","null","null","","arctic","swim","1158","","q","null","88","88","1","arctic-dual-task","","q","lowercase","514000","0","1","859a4c7938eaf81415aa96a1355bbba7f9f1297417f684fbf1afb9e577823ba7","514001","1158","88","1","arctic","","","","",""
"dual-task","null","null","null","","arctic","swim","716.6000000238419","","R","null","77","77","1","arctic-dual-task","","R","uppercase","520000","0","1","859a4c7938eaf81415aa96a1355bbba7f9f1297417f684fbf1afb9e577823ba7","520007.89999997616","716.6000000238419","77","1","arctic","","","","",""
"dual-task","null","null","null","","arctic","swim","533.8999999761581","","B","null","77","77","1","arctic-dual-task","","B","uppercase","530000","0","1","859a4c7938eaf81415aa96a1355bbba7f9f1297417f684fbf1afb9e577823ba7","530001.3000000715","533.8999999761581","77","1","arctic","","","","",""
"dual-task","null","null","null","","arctic","swim","680.3999999761581","","T","null","77","77","1","arctic-dual-task","","T","uppercase","542000","0","1","859a4c7938eaf81415aa96a1355bbba7f9f1297417f684fbf1afb9e577823ba7","542000.2000000477","680.3999999761581","77","1","arctic","","","","",""
"dual-task","null","null","null","","arctic","swim","NA","","B","null","NA","77","0","arctic-dual-task","","B","uppercase","554000","1","1","859a4c7938eaf81415aa96a1355bbba7f9f1297417f684fbf1afb9e577823ba7","554000.7000000477","NA","NA","0","arctic","","","","",""
"dual-task","null","null","null","","arctic","swim","469.39999997615814","","G","null","77","77","1","arctic-dual-task","","G","uppercase","562000","0","1","859a4c7938eaf81415aa96a1355bbba7f9f1297417f684fbf1afb9e577823ba7","562000.7000000477","469.39999997615814","77","1","arctic","","","","",""
"dual-task","null","null","null","","arctic","swim","699.1000000238419","","r","null","88","88","1","arctic-dual-task","","r","lowercase","570000","0","1","859a4c7938eaf81415aa96a1355bbba7f9f1297417f684fbf1afb9e577823ba7","570000.6000000238","699.1000000238419","88","1","arctic","","","","",""
"dual-task","null","null","null","","arctic","swim","688.1000000238419","","a","null","88","88","1","arctic-dual-task","","a","lowercase","578000","0","1","859a4c7938eaf81415aa96a1355bbba7f9f1297417f684fbf1afb9e577823ba7","578000.6000000238","688.1000000238419","88","1","arctic","","","","",""
"dual-task","null","null","null","","arctic","swim","514.8999999761581","","t","null","88","88","1","arctic-dual-task","","t","lowercase","586000","0","1","859a4c7938eaf81415aa96a1355bbba7f9f1297417f684fbf1afb9e577823ba7","586015.8000000715","514.8999999761581","88","1","arctic","","","","",""
"dual-task","null","null","null","","arctic","swim","509.60000002384186","","Q","null","77","77","1","arctic-dual-task","","Q","uppercase","594000","0","1","859a4c7938eaf81415aa96a1355bbba7f9f1297417f684fbf1afb9e577823ba7","594003.8999999762","509.60000002384186","77","1","arctic","","","","",""
"dual-task","null","null","null","","arctic","swim","756.2000000476837","","n","null","88","88","1","arctic-dual-task","","n","lowercase","608000","0","1","859a4c7938eaf81415aa96a1355bbba7f9f1297417f684fbf1afb9e577823ba7","608015.3999999762","756.2000000476837","88","1","arctic","","","","",""
"dual-task","null","null","null","","arctic","swim","522.7000000476837","","D","null","77","77","1","arctic-dual-task","","D","uppercase","618000","0","1","859a4c7938eaf81415aa96a1355bbba7f9f1297417f684fbf1afb9e577823ba7","618003.8999999762","522.7000000476837","77","1","arctic","","","","",""
"dual-task","null","null","null","","arctic","swim","563.3000000715256","","h","null","88","88","1","arctic-dual-task","","h","lowercase","626000","0","1","859a4c7938eaf81415aa96a1355bbba7f9f1297417f684fbf1afb9e577823ba7","626014.5","563.3000000715256","88","1","arctic","","","","",""
"dual-task","null","null","null","","arctic","swim","489.89999997615814","","N","null","77","77","1","arctic-dual-task","","N","uppercase","638000","0","1","859a4c7938eaf81415aa96a1355bbba7f9f1297417f684fbf1afb9e577823ba7","638005.2000000477","489.89999997615814","77","1","arctic","","","","",""
"dual-task","null","null","null","","arctic","swim","466.10000002384186","","B","null","77","77","1","arctic-dual-task","","B","uppercase","646000","0","1","859a4c7938eaf81415aa96a1355bbba7f9f1297417f684fbf1afb9e577823ba7","646000.5","466.10000002384186","77","1","arctic","","","","",""
"dual-task","null","null","null","","arctic","swim","632.3999999761581","","E","null","77","77","1","arctic-dual-task","","E","uppercase","658000","0","1","859a4c7938eaf81415aa96a1355bbba7f9f1297417f684fbf1afb9e577823ba7","658001.6000000238","632.3999999761581","77","1","arctic","","","","",""
"dual-task","null","null","null","","arctic","swim","497.7999999523163","","N","null","77","77","1","arctic-dual-task","","N","uppercase","670000","0","1","859a4c7938eaf81415aa96a1355bbba7f9f1297417f684fbf1afb9e577823ba7","670003.7000000477","497.7999999523163","77","1","arctic","","","","",""
"dual-task","null","null","null","","arctic","swim","523.5","","Q","null","77","77","1","arctic-dual-task","","Q","uppercase","680000","0","1","859a4c7938eaf81415aa96a1355bbba7f9f1297417f684fbf1afb9e577823ba7","680006.1000000238","523.5","77","1","arctic","","","","",""
"dual-task","null","null","null","","arctic","swim","410.10000002384186","","R","null","77","77","1","arctic-dual-task","","R","uppercase","688000","0","1","859a4c7938eaf81415aa96a1355bbba7f9f1297417f684fbf1afb9e577823ba7","688015.5","410.10000002384186","77","1","arctic","","","","",""
"dual-task","null","null","null","","arctic","swim","448.3000000715256","","D","null","77","77","1","arctic-dual-task","","D","uppercase","702000","0","1","859a4c7938eaf81415aa96a1355bbba7f9f1297417f684fbf1afb9e577823ba7","702009.3999999762","448.3000000715256","77","1","arctic","","","","",""
"dual-task","null","null","null","","arctic","swim","462.8000000715256","","A","null","77","77","1","arctic-dual-task","","A","uppercase","716000","0","1","859a4c7938eaf81415aa96a1355bbba7f9f1297417f684fbf1afb9e577823ba7","716005.8999999762","462.8000000715256","77","1","arctic","","","","",""
"dual-task","null","null","null","","arctic","swim","449.5","","q","null","88","88","1","arctic-dual-task","","q","lowercase","724000","0","1","859a4c7938eaf81415aa96a1355bbba7f9f1297417f684fbf1afb9e577823ba7","724012.3999999762","449.5","88","1","arctic","","","","",""
"dual-task","null","null","null","","arctic","swim","570.3000000715256","","b","null","88","88","1","arctic-dual-task","","b","lowercase","734000","0","1","859a4c7938eaf81415aa96a1355bbba7f9f1297417f684fbf1afb9e577823ba7","734001.3999999762","570.3000000715256","88","1","arctic","","","","",""
"dual-task","null","null","null","","arctic","swim","504","","F","null","77","77","1","arctic-dual-task","","F","uppercase","744000","0","1","859a4c7938eaf81415aa96a1355bbba7f9f1297417f684fbf1afb9e577823ba7","744002.2000000477","504","77","1","arctic","","","","",""
"dual-task","null","null","null","","arctic","swim","556.4000000953674","","G","null","77","77","1","arctic-dual-task","","G","uppercase","754000","0","1","859a4c7938eaf81415aa96a1355bbba7f9f1297417f684fbf1afb9e577823ba7","754000.3999999762","556.4000000953674","77","1","arctic","","","","",""
"dual-task","null","null","null","","arctic","swim","509.3000000715256","","d","null","88","88","1","arctic-dual-task","","d","lowercase","766000","0","1","859a4c7938eaf81415aa96a1355bbba7f9f1297417f684fbf1afb9e577823ba7","766001.2000000477","509.3000000715256","88","1","arctic","","","","",""
"dual-task","null","null","null","","arctic","swim","659","","n","null","88","88","1","arctic-dual-task","","n","lowercase","778000","0","1","859a4c7938eaf81415aa96a1355bbba7f9f1297417f684fbf1afb9e577823ba7","778002.7000000477","659","88","1","arctic","","","","",""
"dual-task","null","null","null","","arctic","swim","494.1999999284744","","h","null","88","88","1","arctic-dual-task","","h","lowercase","788000","0","1","859a4c7938eaf81415aa96a1355bbba7f9f1297417f684fbf1afb9e577823ba7","788000.2000000477","494.1999999284744","88","1","arctic","","","","",""
"audio-keyboard-response","29","891242","0.0-6.0-0.0-1.0","859a4c7938eaf81415aa96a1355bbba7f9f1297417f684fbf1afb9e577823ba7","arctic","swim","null","","audio/story_arctic.mp3","","null","","","","","","","","","","","","","","","","","","","",""
"html-button-response","30","893277","0.0-6.0-0.0-2.0","859a4c7938eaf81415aa96a1355bbba7f9f1297417f684fbf1afb9e577823ba7","arctic","swim","2033","","<p>This concludes the story. Thank you for listening.</p><p>You will now answer some questions about the content of the story.</p>","0","","","","","","","","","","","","","","","","","","","","",""
"survey-multi-choice","31","897462","0.0-6.0-0.0-3.0-0.0","859a4c7938eaf81415aa96a1355bbba7f9f1297417f684fbf1afb9e577823ba7","arctic","swim","4182","","<b>What was the objective of the narrator&#39;s expedition?</b>","","","","1","arctic-comprehension","","","","","","","","","","","","","{""Q0"":""Dogsled across Arctic America""}","","","",""
"survey-multi-choice","32","903061","0.0-6.0-0.0-3.0-0.1","859a4c7938eaf81415aa96a1355bbba7f9f1297417f684fbf1afb9e577823ba7","arctic","swim","5347","","<b>How did the narrator&#39;s encounter with the polar bears end?</b>","","","","1","arctic-comprehension","","","","","","","","","","","","","{""Q0"":""The bears walked back to their den.""}","","","",""
"survey-multi-choice","33","906273","0.0-6.0-0.0-3.0-0.2","859a4c7938eaf81415aa96a1355bbba7f9f1297417f684fbf1afb9e577823ba7","arctic","swim","2960","","<b>What is the name of the narrator&#39;s neighbour?</b>","","","","1","arctic-comprehension","","","","","","","","","","","","","{""Q0"":""Dave""}","","","",""
"survey-multi-choice","34","913286","0.0-6.0-0.0-3.0-0.3","859a4c7938eaf81415aa96a1355bbba7f9f1297417f684fbf1afb9e577823ba7","arctic","swim","6759","","<b>How did the dogs respond when they saw the bears?</b>","","","","0","arctic-comprehension","","","","","","","","","","","","","{""Q0"":""Barked aggressively""}","","","",""
"survey-multi-choice","35","921081","0.0-6.0-0.0-3.0-0.4","859a4c7938eaf81415aa96a1355bbba7f9f1297417f684fbf1afb9e577823ba7","arctic","swim","7536","","<b>How did the narrator prepare for her expedition?</b>","","","","1","arctic-comprehension","","","","","","","","","","","","","{""Q0"":""Trained in Alaska learning how to dogsled""}","","","",""
"survey-multi-choice","36","926192","0.0-6.0-0.0-3.0-0.5","859a4c7938eaf81415aa96a1355bbba7f9f1297417f684fbf1afb9e577823ba7","arctic","swim","4859","","<b>Which dog on the narrator&#39;s dog team never followed instructions?</b>","","","","1","arctic-comprehension","","","","","","","","","","","","","{""Q0"":""Robert""}","","","",""
"survey-multi-choice","37","932486","0.0-6.0-0.0-3.0-0.6","859a4c7938eaf81415aa96a1355bbba7f9f1297417f684fbf1afb9e577823ba7","arctic","swim","6041","","<b>How did the narrator&#39;s neighbour respond when she told him about her expedition?</b>","","","","1","arctic-comprehension","","","","","","","","","","","","","{""Q0"":""He said she was going to fail.""}","","","",""
"survey-multi-choice","38","937428","0.0-6.0-0.0-3.0-0.7","859a4c7938eaf81415aa96a1355bbba7f9f1297417f684fbf1afb9e577823ba7","arctic","swim","4689","","<b>What were the weather conditions in the Arctic like the winter of the narrator&#39;s expedition?</b>","","","","1","arctic-comprehension","","","","","","","","","","","","","{""Q0"":""There were more storms than any other winter in recorded history.""}","","","",""
"survey-multi-choice","39","940013","0.0-6.0-0.0-3.0-0.8","859a4c7938eaf81415aa96a1355bbba7f9f1297417f684fbf1afb9e577823ba7","arctic","swim","2328","","<b>How many sponsorships did the narrator receive to support her expedition?</b>","","","","1","arctic-comprehension","","","","","","","","","","","","","{""Q0"":""None""}","","","",""
"survey-multi-choice","40","946101","0.0-6.0-0.0-3.0-0.9","859a4c7938eaf81415aa96a1355bbba7f9f1297417f684fbf1afb9e577823ba7","arctic","swim","5836","","<b>What did the narrator do for leisure while in her tent?</b>","","","","1","arctic-comprehension","","","","","","","","","","","","","{""Q0"":""Read""}","","","",""
"html-button-response","41","948084","0.0-6.0-0.0-4.0","859a4c7938eaf81415aa96a1355bbba7f9f1297417f684fbf1afb9e577823ba7","arctic","swim","1732","","<p>Thank you for your responses.</p><p>You will now answer some questions about your impressions of the story.</p>","0","","","","","","","","","","","","","","","","","","","","",""
"html-button-response","42","951138","0.0-6.0-0.0-5.0-0.0","859a4c7938eaf81415aa96a1355bbba7f9f1297417f684fbf1afb9e577823ba7","arctic","swim","3052","","MS1","5","","","","arctic-engagement","","","","","","","","","","","","","","6","mental-sim","",""
"html-button-response","43","953343","0.0-6.0-0.0-5.0-0.1","859a4c7938eaf81415aa96a1355bbba7f9f1297417f684fbf1afb9e577823ba7","arctic","swim","1953","","E8","0","","","","arctic-engagement","","","","","","","","","","","","","","1","enjoyment","",""
"html-button-response","44","958708","0.0-6.0-0.0-5.0-0.2","859a4c7938eaf81415aa96a1355bbba7f9f1297417f684fbf1afb9e577823ba7","arctic","swim","5113","","A1","0","","","","arctic-engagement","","","","","","","","","","","","","","1","absorption","",""
"html-button-response","45","962037","0.0-6.0-0.0-5.0-0.3","859a4c7938eaf81415aa96a1355bbba7f9f1297417f684fbf1afb9e577823ba7","arctic","swim","3078","","EE5","1","","","","arctic-engagement","","","","","","","","","","","","","","2","emo-engage","",""
"html-button-response","46","963460","0.0-6.0-0.0-5.0-0.4","859a4c7938eaf81415aa96a1355bbba7f9f1297417f684fbf1afb9e577823ba7","arctic","swim","1171","","A3","1","","","","arctic-engagement","","","","","","","","","","","","","","2","absorption","",""
"html-button-response","47","965410","0.0-6.0-0.0-5.0-0.5","859a4c7938eaf81415aa96a1355bbba7f9f1297417f684fbf1afb9e577823ba7","arctic","swim","1699","","E10","1","","","","arctic-engagement","","","","","","","","","","","","","","2","enjoyment","",""
"html-button-response","48","967971","0.0-6.0-0.0-5.0-0.6","859a4c7938eaf81415aa96a1355bbba7f9f1297417f684fbf1afb9e577823ba7","arctic","swim","2310","","A4","0","","","","arctic-engagement","","","","","","","","","","","","","","1","absorption","",""
"html-button-response","49","973316","0.0-6.0-0.0-5.0-0.7","859a4c7938eaf81415aa96a1355bbba7f9f1297417f684fbf1afb9e577823ba7","arctic","swim","5093","","MS2","2","","","","arctic-engagement","","","","","","","","","","","","","","3","mental-sim","",""
"html-button-response","50","974985","0.0-6.0-0.0-5.0-0.8","859a4c7938eaf81415aa96a1355bbba7f9f1297417f684fbf1afb9e577823ba7","arctic","swim","1416","","EE3","0","","","","arctic-engagement","","","","","","","","","","","","","","1","emo-engage","",""
"html-button-response","51","976559","0.0-6.0-0.0-5.0-0.9","859a4c7938eaf81415aa96a1355bbba7f9f1297417f684fbf1afb9e577823ba7","arctic","swim","1321","","EE4","0","","","","arctic-engagement","","","","","","","","","","","","","","1","emo-engage","",""
"html-button-response","52","979543","0.0-6.0-0.0-5.0-0.10","859a4c7938eaf81415aa96a1355bbba7f9f1297417f684fbf1afb9e577823ba7","arctic","swim","2732","","MS3","2","","","","arctic-engagement","","","","","","","","","","","","","","3","mental-sim","",""
"html-button-response","53","981131","0.0-6.0-0.0-5.0-0.11","859a4c7938eaf81415aa96a1355bbba7f9f1297417f684fbf1afb9e577823ba7","arctic","swim","1335","","E1","0","","","","arctic-engagement","","","","","","","","","","","","","","1","enjoyment","",""
"html-button-response","54","982455","0.0-6.0-0.0-5.0-0.12","859a4c7938eaf81415aa96a1355bbba7f9f1297417f684fbf1afb9e577823ba7","arctic","swim","1071","","EE2","0","","","","arctic-engagement","","","","","","","","","","","","","","1","emo-engage","",""
"html-button-response","55","1003923","0.0-6.0-0.0-5.0-0.13","859a4c7938eaf81415aa96a1355bbba7f9f1297417f684fbf1afb9e577823ba7","arctic","swim","21216","","A2","5","","","","arctic-engagement","","","","","","","","","","","","","","6","absorption","",""
"html-button-response","56","1007272","0.0-6.0-0.0-5.0-0.14","859a4c7938eaf81415aa96a1355bbba7f9f1297417f684fbf1afb9e577823ba7","arctic","swim","3098","","EE1","0","","","","arctic-engagement","","","","","","","","","","","","","","1","emo-engage","",""
"html-button-response","57","1011734","0.0-6.0-0.0-5.0-0.15","859a4c7938eaf81415aa96a1355bbba7f9f1297417f684fbf1afb9e577823ba7","arctic","swim","4210","","E7","1","","","","arctic-engagement","","","","","","","","","","","","","","2","enjoyment","",""
"html-button-response","58","1016129","0.0-6.0-0.0-5.0-0.16","859a4c7938eaf81415aa96a1355bbba7f9f1297417f684fbf1afb9e577823ba7","arctic","swim","4143","","E6","0","","","","arctic-engagement","","","","","","","","","","","","","","1","enjoyment","",""
"html-button-response","59","1018795","0.0-6.0-0.0-5.0-0.17","859a4c7938eaf81415aa96a1355bbba7f9f1297417f684fbf1afb9e577823ba7","arctic","swim","2414","","A5","0","","","","arctic-engagement","","","","","","","","","","","","","","1","absorption","",""
"html-keyboard-response","60","1028497","0.0-6.0-1.0","859a4c7938eaf81415aa96a1355bbba7f9f1297417f684fbf1afb9e577823ba7","arctic","swim","9451","","<p>Thank you for your responses. You will now listen to the second story.</p><p>Remember, as you listen to the story you will see letters appear on the screen.</br>As quickly as possible, press <b>&lt;x&gt;</b> if the letter is lowercase and <b>&lt;m&gt;</b> if the letter is uppercase.</p><p>Press <b>&lt;x&gt;</b> or <b>&lt;m&gt;</b> to begin listening!</p>","","77","","","","","","","","","","","","","","","","","","","",""
"html-keyboard-response","61","1028998","0.0-6.0-2.0-0.0","859a4c7938eaf81415aa96a1355bbba7f9f1297417f684fbf1afb9e577823ba7","arctic","swim","null","","<div style=""font-size:60px;"" tabindex=""0"">+</div>","","null","","","","","","","","","","","","","","","","","","","",""
"dual-task","null","null","null","","arctic","swim","568.1999999284744","","A","null","77","77","1","swim-dual-task","","A","uppercase","10000","0","1","859a4c7938eaf81415aa96a1355bbba7f9f1297417f684fbf1afb9e577823ba7","10014.100000023842","568.1999999284744","77","1","swim","","","","",""
"dual-task","null","null","null","","arctic","swim","741.1999999284744","","g","null","88","88","1","swim-dual-task","","g","lowercase","18000","0","1","859a4c7938eaf81415aa96a1355bbba7f9f1297417f684fbf1afb9e577823ba7","18011.100000023842","741.1999999284744","88","1","swim","","","","",""
"dual-task","null","null","null","","arctic","swim","872.6999999284744","","e","null","88","88","1","swim-dual-task","","e","lowercase","28000","0","1","859a4c7938eaf81415aa96a1355bbba7f9f1297417f684fbf1afb9e577823ba7","28005.600000023842","872.6999999284744","88","1","swim","","","","",""
"dual-task","null","null","null","","arctic","swim","611.3999999761581","","t","null","88","88","1","swim-dual-task","","t","lowercase","40000","0","1","859a4c7938eaf81415aa96a1355bbba7f9f1297417f684fbf1afb9e577823ba7","40001","611.3999999761581","88","1","swim","","","","",""
"dual-task","null","null","null","","arctic","swim","591.3999999761581","","F","null","77","77","1","swim-dual-task","","F","uppercase","54000","0","1","859a4c7938eaf81415aa96a1355bbba7f9f1297417f684fbf1afb9e577823ba7","54003.60000002384","591.3999999761581","77","1","swim","","","","",""
"dual-task","null","null","null","","arctic","swim","524.3999999761581","","f","null","88","88","1","swim-dual-task","","f","lowercase","62000","0","1","859a4c7938eaf81415aa96a1355bbba7f9f1297417f684fbf1afb9e577823ba7","62001","524.3999999761581","88","1","swim","","","","",""
"dual-task","null","null","null","","arctic","swim","675.6000000238419","","n","null","88","88","1","swim-dual-task","","n","lowercase","72000","0","1","859a4c7938eaf81415aa96a1355bbba7f9f1297417f684fbf1afb9e577823ba7","72000.89999997616","675.6000000238419","88","1","swim","","","","",""
"dual-task","null","null","null","","arctic","swim","548.6999999284744","","n","null","88","88","1","swim-dual-task","","n","lowercase","82000","0","1","859a4c7938eaf81415aa96a1355bbba7f9f1297417f684fbf1afb9e577823ba7","82000.70000004768","548.6999999284744","88","1","swim","","","","",""
"dual-task","null","null","null","","arctic","swim","561.1999999284744","","a","null","88","88","1","swim-dual-task","","a","lowercase","94000","0","1","859a4c7938eaf81415aa96a1355bbba7f9f1297417f684fbf1afb9e577823ba7","94001.29999995232","561.1999999284744","88","1","swim","","","","",""
"dual-task","null","null","null","","arctic","swim","518.5","","n","null","88","88","1","swim-dual-task","","n","lowercase","108000","0","1","859a4c7938eaf81415aa96a1355bbba7f9f1297417f684fbf1afb9e577823ba7","108000","518.5","88","1","swim","","","","",""
"dual-task","null","null","null","","arctic","swim","895.1999999284744","","N","null","88","77","0","swim-dual-task","","N","uppercase","116000","0","1","859a4c7938eaf81415aa96a1355bbba7f9f1297417f684fbf1afb9e577823ba7","116015.20000004768","895.1999999284744","88","0","swim","","","","",""
"dual-task","null","null","null","","arctic","swim","602.2999999523163","","b","null","88","88","1","swim-dual-task","","b","lowercase","124000","0","1","859a4c7938eaf81415aa96a1355bbba7f9f1297417f684fbf1afb9e577823ba7","124007","602.2999999523163","88","1","swim","","","","",""
"dual-task","null","null","null","","arctic","swim","834.2000000476837","","h","null","88","88","1","swim-dual-task","","h","lowercase","136000","0","1","859a4c7938eaf81415aa96a1355bbba7f9f1297417f684fbf1afb9e577823ba7","136001","834.2000000476837","88","1","swim","","","","",""
"dual-task","null","null","null","","arctic","swim","670.8000000715256","","Q","null","77","77","1","swim-dual-task","","Q","uppercase","150000","0","1","859a4c7938eaf81415aa96a1355bbba7f9f1297417f684fbf1afb9e577823ba7","150012.89999997616","670.8000000715256","77","1","swim","","","","",""
"dual-task","null","null","null","","arctic","swim","628.2999999523163","","d","null","88","88","1","swim-dual-task","","d","lowercase","162000","0","1","859a4c7938eaf81415aa96a1355bbba7f9f1297417f684fbf1afb9e577823ba7","162009.10000002384","628.2999999523163","88","1","swim","","","","",""
"dual-task","null","null","null","","arctic","swim","536.2999999523163","","f","null","88","88","1","swim-dual-task","","f","lowercase","174000","0","1","859a4c7938eaf81415aa96a1355bbba7f9f1297417f684fbf1afb9e577823ba7","174001","536.2999999523163","88","1","swim","","","","",""
"dual-task","null","null","null","","arctic","swim","593.7999999523163","","N","null","77","77","1","swim-dual-task","","N","uppercase","184000","0","1","859a4c7938eaf81415aa96a1355bbba7f9f1297417f684fbf1afb9e577823ba7","184006.60000002384","593.7999999523163","77","1","swim","","","","",""
"dual-task","null","null","null","","arctic","swim","544.4000000953674","","e","null","88","88","1","swim-dual-task","","e","lowercase","196000","0","1","859a4c7938eaf81415aa96a1355bbba7f9f1297417f684fbf1afb9e577823ba7","196001.70000004768","544.4000000953674","88","1","swim","","","","",""
"dual-task","null","null","null","","arctic","swim","499.89999997615814","","q","null","88","88","1","swim-dual-task","","q","lowercase","210000","0","1","859a4c7938eaf81415aa96a1355bbba7f9f1297417f684fbf1afb9e577823ba7","210010.29999995232","499.89999997615814","88","1","swim","","","","",""
"dual-task","null","null","null","","arctic","swim","651.6000000238419","","G","null","77","77","1","swim-dual-task","","G","uppercase","220000","0","1","859a4c7938eaf81415aa96a1355bbba7f9f1297417f684fbf1afb9e577823ba7","220006.79999995232","651.6000000238419","77","1","swim","","","","",""
"dual-task","null","null","null","","arctic","swim","871.8000000715256","","r","null","88","88","1","swim-dual-task","","r","lowercase","230000","0","1","859a4c7938eaf81415aa96a1355bbba7f9f1297417f684fbf1afb9e577823ba7","230005.39999997616","871.8000000715256","88","1","swim","","","","",""
"dual-task","null","null","null","","arctic","swim","743","","T","null","77","77","1","swim-dual-task","","T","uppercase","238000","0","1","859a4c7938eaf81415aa96a1355bbba7f9f1297417f684fbf1afb9e577823ba7","238011","743","77","1","swim","","","","",""
"dual-task","null","null","null","","arctic","swim","686.7000000476837","","n","null","88","88","1","swim-dual-task","","n","lowercase","246000","0","1","859a4c7938eaf81415aa96a1355bbba7f9f1297417f684fbf1afb9e577823ba7","246000.29999995232","686.7000000476837","88","1","swim","","","","",""
"dual-task","null","null","null","","arctic","swim","775.1000000238419","","E","null","77","77","1","swim-dual-task","","E","uppercase","258000","0","1","859a4c7938eaf81415aa96a1355bbba7f9f1297417f684fbf1afb9e577823ba7","258010.89999997616","775.1000000238419","77","1","swim","","","","",""
"dual-task","null","null","null","","arctic","swim","932.6000000238419","","b","null","88","88","1","swim-dual-task","","b","lowercase","268000","0","1","859a4c7938eaf81415aa96a1355bbba7f9f1297417f684fbf1afb9e577823ba7","268012.2999999523","932.6000000238419","88","1","swim","","","","",""
"dual-task","null","null","null","","arctic","swim","770","","Q","null","77","77","1","swim-dual-task","","Q","uppercase","282000","0","1","859a4c7938eaf81415aa96a1355bbba7f9f1297417f684fbf1afb9e577823ba7","282011.10000002384","770","77","1","swim","","","","",""
"dual-task","null","null","null","","arctic","swim","713.3000000715256","","e","null","88","88","1","swim-dual-task","","e","lowercase","288000","0","1","859a4c7938eaf81415aa96a1355bbba7f9f1297417f684fbf1afb9e577823ba7","288013.7000000477","713.3000000715256","88","1","swim","","","","",""
"dual-task","null","null","null","","arctic","swim","1387.3999999761581","","T","null","77","77","1","swim-dual-task","","T","uppercase","302000","0","1","859a4c7938eaf81415aa96a1355bbba7f9f1297417f684fbf1afb9e577823ba7","302001.89999997616","1387.3999999761581","77","1","swim","","","","",""
"dual-task","null","null","null","","arctic","swim","602.3000000715256","","B","null","77","77","1","swim-dual-task","","B","uppercase","312000","0","1","859a4c7938eaf81415aa96a1355bbba7f9f1297417f684fbf1afb9e577823ba7","312008.7000000477","602.3000000715256","77","1","swim","","","","",""
"dual-task","null","null","null","","arctic","swim","780.2000000476837","","b","null","88","88","1","swim-dual-task","","b","lowercase","322000","0","1","859a4c7938eaf81415aa96a1355bbba7f9f1297417f684fbf1afb9e577823ba7","322006.89999997616","780.2000000476837","88","1","swim","","","","",""
"dual-task","null","null","null","","arctic","swim","686.1000000238419","","G","null","77","77","1","swim-dual-task","","G","uppercase","330000","0","1","859a4c7938eaf81415aa96a1355bbba7f9f1297417f684fbf1afb9e577823ba7","330014.7999999523","686.1000000238419","77","1","swim","","","","",""
"dual-task","null","null","null","","arctic","swim","704.1999999284744","","e","null","88","88","1","swim-dual-task","","e","lowercase","340000","0","1","859a4c7938eaf81415aa96a1355bbba7f9f1297417f684fbf1afb9e577823ba7","340011.39999997616","704.1999999284744","88","1","swim","","","","",""
"dual-task","null","null","null","","arctic","swim","534.4000000953674","","N","null","77","77","1","swim-dual-task","","N","uppercase","350000","0","1","859a4c7938eaf81415aa96a1355bbba7f9f1297417f684fbf1afb9e577823ba7","350004.7000000477","534.4000000953674","77","1","swim","","","","",""
"dual-task","null","null","null","","arctic","swim","523.2999999523163","","T","null","77","77","1","swim-dual-task","","T","uppercase","362000","0","1","859a4c7938eaf81415aa96a1355bbba7f9f1297417f684fbf1afb9e577823ba7","362009","523.2999999523163","77","1","swim","","","","",""
"dual-task","null","null","null","","arctic","swim","1134.6000000238419","","g","null","88","88","1","swim-dual-task","","g","lowercase","372000","0","1","859a4c7938eaf81415aa96a1355bbba7f9f1297417f684fbf1afb9e577823ba7","372000.5","1134.6000000238419","88","1","swim","","","","",""
"dual-task","null","null","null","","arctic","swim","542.3999999761581","","g","null","88","88","1","swim-dual-task","","g","lowercase","380000","0","1","859a4c7938eaf81415aa96a1355bbba7f9f1297417f684fbf1afb9e577823ba7","380000.5","542.3999999761581","88","1","swim","","","","",""
"dual-task","null","null","null","","arctic","swim","649.2999999523163","","h","null","88","88","1","swim-dual-task","","h","lowercase","390000","0","1","859a4c7938eaf81415aa96a1355bbba7f9f1297417f684fbf1afb9e577823ba7","390007.10000002384","649.2999999523163","88","1","swim","","","","",""
"dual-task","null","null","null","","arctic","swim","981.8000000715256","","h","null","88","88","1","swim-dual-task","","h","lowercase","396000","0","1","859a4c7938eaf81415aa96a1355bbba7f9f1297417f684fbf1afb9e577823ba7","396013.2999999523","981.8000000715256","88","1","swim","","","","",""
"dual-task","null","null","null","","arctic","swim","752.6000000238419","","r","null","88","88","1","swim-dual-task","","r","lowercase","406000","0","1","859a4c7938eaf81415aa96a1355bbba7f9f1297417f684fbf1afb9e577823ba7","406001.39999997616","752.6000000238419","88","1","swim","","","","",""
"dual-task","null","null","null","","arctic","swim","660.7000000476837","","t","null","88","88","1","swim-dual-task","","t","lowercase","416000","0","1","859a4c7938eaf81415aa96a1355bbba7f9f1297417f684fbf1afb9e577823ba7","416005.2999999523","660.7000000476837","88","1","swim","","","","",""
"dual-task","null","null","null","","arctic","swim","655.5","","R","null","77","77","1","swim-dual-task","","R","uppercase","422000","0","1","859a4c7938eaf81415aa96a1355bbba7f9f1297417f684fbf1afb9e577823ba7","422005.5","655.5","77","1","swim","","","","",""
"dual-task","null","null","null","","arctic","swim","780","","Q","null","88","77","0","swim-dual-task","","Q","uppercase","428000","0","1","859a4c7938eaf81415aa96a1355bbba7f9f1297417f684fbf1afb9e577823ba7","428005.2999999523","780","88","0","swim","","","","",""
"dual-task","null","null","null","","arctic","swim","475","","R","null","77","77","1","swim-dual-task","","R","uppercase","438000","0","1","859a4c7938eaf81415aa96a1355bbba7f9f1297417f684fbf1afb9e577823ba7","438010.5","475","77","1","swim","","","","",""
"dual-task","null","null","null","","arctic","swim","798.5","","f","null","88","88","1","swim-dual-task","","f","lowercase","444000","0","1","859a4c7938eaf81415aa96a1355bbba7f9f1297417f684fbf1afb9e577823ba7","444000.39999997616","798.5","88","1","swim","","","","",""
"dual-task","null","null","null","","arctic","swim","779.7999999523163","","d","null","77","88","0","swim-dual-task","","d","lowercase","452000","0","1","859a4c7938eaf81415aa96a1355bbba7f9f1297417f684fbf1afb9e577823ba7","452001","779.7999999523163","77","0","swim","","","","",""
"dual-task","null","null","null","","arctic","swim","718.2000000476837","","H","null","77","77","1","swim-dual-task","","H","uppercase","460000","0","1","859a4c7938eaf81415aa96a1355bbba7f9f1297417f684fbf1afb9e577823ba7","460000.7999999523","718.2000000476837","77","1","swim","","","","",""
"dual-task","null","null","null","","arctic","swim","688.6999999284744","","F","null","77","77","1","swim-dual-task","","F","uppercase","474000","0","1","859a4c7938eaf81415aa96a1355bbba7f9f1297417f684fbf1afb9e577823ba7","474001.10000002384","688.6999999284744","77","1","swim","","","","",""
"dual-task","null","null","null","","arctic","swim","727.1999999284744","","D","null","77","77","1","swim-dual-task","","D","uppercase","486000","0","1","859a4c7938eaf81415aa96a1355bbba7f9f1297417f684fbf1afb9e577823ba7","486003","727.1999999284744","77","1","swim","","","","",""
"dual-task","null","null","null","","arctic","swim","873.9000000953674","","q","null","88","88","1","swim-dual-task","","q","lowercase","494000","0","1","859a4c7938eaf81415aa96a1355bbba7f9f1297417f684fbf1afb9e577823ba7","494000.7999999523","873.9000000953674","88","1","swim","","","","",""
"dual-task","null","null","null","","arctic","swim","950.8999999761581","","r","null","88","88","1","swim-dual-task","","r","lowercase","508000","0","1","859a4c7938eaf81415aa96a1355bbba7f9f1297417f684fbf1afb9e577823ba7","508000.89999997616","950.8999999761581","88","1","swim","","","","",""
"dual-task","null","null","null","","arctic","swim","830.4000000953674","","E","null","77","77","1","swim-dual-task","","E","uppercase","522000","0","1","859a4c7938eaf81415aa96a1355bbba7f9f1297417f684fbf1afb9e577823ba7","522000.7000000477","830.4000000953674","77","1","swim","","","","",""
"dual-task","null","null","null","","arctic","swim","871.2000000476837","","a","null","88","88","1","swim-dual-task","","a","lowercase","532000","0","1","859a4c7938eaf81415aa96a1355bbba7f9f1297417f684fbf1afb9e577823ba7","532000.7999999523","871.2000000476837","88","1","swim","","","","",""
"dual-task","null","null","null","","arctic","swim","659.5","","b","null","88","88","1","swim-dual-task","","b","lowercase","544000","0","1","859a4c7938eaf81415aa96a1355bbba7f9f1297417f684fbf1afb9e577823ba7","544005.3999999762","659.5","88","1","swim","","","","",""
"dual-task","null","null","null","","arctic","swim","664.2000000476837","","d","null","88","88","1","swim-dual-task","","d","lowercase","558000","0","1","859a4c7938eaf81415aa96a1355bbba7f9f1297417f684fbf1afb9e577823ba7","558013.7999999523","664.2000000476837","88","1","swim","","","","",""
"dual-task","null","null","null","","arctic","swim","692.8999999761581","","R","null","77","77","1","swim-dual-task","","R","uppercase","564000","0","1","859a4c7938eaf81415aa96a1355bbba7f9f1297417f684fbf1afb9e577823ba7","564013.1000000238","692.8999999761581","77","1","swim","","","","",""
"dual-task","null","null","null","","arctic","swim","559","","R","null","77","77","1","swim-dual-task","","R","uppercase","574000","0","1","859a4c7938eaf81415aa96a1355bbba7f9f1297417f684fbf1afb9e577823ba7","574014.7000000477","559","77","1","swim","","","","",""
"dual-task","null","null","null","","arctic","swim","1056.7999999523163","","d","null","88","88","1","swim-dual-task","","d","lowercase","582000","0","1","859a4c7938eaf81415aa96a1355bbba7f9f1297417f684fbf1afb9e577823ba7","582015.2000000477","1056.7999999523163","88","1","swim","","","","",""
"dual-task","null","null","null","","arctic","swim","638.6999999284744","","r","null","88","88","1","swim-dual-task","","r","lowercase","592000","0","1","859a4c7938eaf81415aa96a1355bbba7f9f1297417f684fbf1afb9e577823ba7","592009.1000000238","638.6999999284744","88","1","swim","","","","",""
"dual-task","null","null","null","","arctic","swim","942","","A","null","77","77","1","swim-dual-task","","A","uppercase","606000","0","1","859a4c7938eaf81415aa96a1355bbba7f9f1297417f684fbf1afb9e577823ba7","606008.7999999523","942","77","1","swim","","","","",""
"dual-task","null","null","null","","arctic","swim","932.5","","D","null","77","77","1","swim-dual-task","","D","uppercase","612000","0","1","859a4c7938eaf81415aa96a1355bbba7f9f1297417f684fbf1afb9e577823ba7","612004.2999999523","932.5","77","1","swim","","","","",""
"dual-task","null","null","null","","arctic","swim","1077.7000000476837","","a","null","88","88","1","swim-dual-task","","a","lowercase","620000","0","1","859a4c7938eaf81415aa96a1355bbba7f9f1297417f684fbf1afb9e577823ba7","620004.3999999762","1077.7000000476837","88","1","swim","","","","",""
"dual-task","null","null","null","","arctic","swim","1002.6999999284744","","T","null","77","77","1","swim-dual-task","","T","uppercase","628000","0","1","859a4c7938eaf81415aa96a1355bbba7f9f1297417f684fbf1afb9e577823ba7","628004.5","1002.6999999284744","77","1","swim","","","","",""
"dual-task","null","null","null","","arctic","swim","861.6000000238419","","B","null","77","77","1","swim-dual-task","","B","uppercase","636000","0","1","859a4c7938eaf81415aa96a1355bbba7f9f1297417f684fbf1afb9e577823ba7","636013.3999999762","861.6000000238419","77","1","swim","","","","",""
"dual-task","null","null","null","","arctic","swim","1001.5999999046326","","E","null","77","77","1","swim-dual-task","","E","uppercase","646000","0","1","859a4c7938eaf81415aa96a1355bbba7f9f1297417f684fbf1afb9e577823ba7","646000.7000000477","1001.5999999046326","77","1","swim","","","","",""
"dual-task","null","null","null","","arctic","swim","723.8000000715256","","a","null","88","88","1","swim-dual-task","","a","lowercase","656000","0","1","859a4c7938eaf81415aa96a1355bbba7f9f1297417f684fbf1afb9e577823ba7","656006.7999999523","723.8000000715256","88","1","swim","","","","",""
"dual-task","null","null","null","","arctic","swim","922.3999999761581","","N","null","77","77","1","swim-dual-task","","N","uppercase","664000","0","1","859a4c7938eaf81415aa96a1355bbba7f9f1297417f684fbf1afb9e577823ba7","664008.5","922.3999999761581","77","1","swim","","","","",""
"dual-task","null","null","null","","arctic","swim","878.7000000476837","","F","null","77","77","1","swim-dual-task","","F","uppercase","676000","0","1","859a4c7938eaf81415aa96a1355bbba7f9f1297417f684fbf1afb9e577823ba7","676010","878.7000000476837","77","1","swim","","","","",""
"dual-task","null","null","null","","arctic","swim","794","","D","null","77","77","1","swim-dual-task","","D","uppercase","688000","0","1","859a4c7938eaf81415aa96a1355bbba7f9f1297417f684fbf1afb9e577823ba7","688012.5","794","77","1","swim","","","","",""
"dual-task","null","null","null","","arctic","swim","NA","","q","null","NA","88","0","swim-dual-task","","q","lowercase","694000","1","1","859a4c7938eaf81415aa96a1355bbba7f9f1297417f684fbf1afb9e577823ba7","694000.6000000238","NA","NA","0","swim","","","","",""
"dual-task","null","null","null","","arctic","swim","923.8999999761581","","G","null","77","77","1","swim-dual-task","","G","uppercase","704000","0","1","859a4c7938eaf81415aa96a1355bbba7f9f1297417f684fbf1afb9e577823ba7","704000.8999999762","923.8999999761581","77","1","swim","","","","",""
"dual-task","null","null","null","","arctic","swim","NA","","h","null","NA","88","0","swim-dual-task","","h","lowercase","712000","1","1","859a4c7938eaf81415aa96a1355bbba7f9f1297417f684fbf1afb9e577823ba7","712003.2999999523","NA","NA","0","swim","","","","",""
"dual-task","null","null","null","","arctic","swim","621.7000000476837","","G","null","77","77","1","swim-dual-task","","G","uppercase","722000","0","1","859a4c7938eaf81415aa96a1355bbba7f9f1297417f684fbf1afb9e577823ba7","722000.8999999762","621.7000000476837","77","1","swim","","","","",""
"dual-task","null","null","null","","arctic","swim","812.1000000238419","","g","null","88","88","1","swim-dual-task","","g","lowercase","734000","0","1","859a4c7938eaf81415aa96a1355bbba7f9f1297417f684fbf1afb9e577823ba7","734002.7999999523","812.1000000238419","88","1","swim","","","","",""
"dual-task","null","null","null","","arctic","swim","804.8999999761581","","t","null","88","88","1","swim-dual-task","","t","lowercase","746000","0","1","859a4c7938eaf81415aa96a1355bbba7f9f1297417f684fbf1afb9e577823ba7","746002.1000000238","804.8999999761581","88","1","swim","","","","",""
"dual-task","null","null","null","","arctic","swim","610.3999999761581","","H","null","77","77","1","swim-dual-task","","H","uppercase","760000","0","1","859a4c7938eaf81415aa96a1355bbba7f9f1297417f684fbf1afb9e577823ba7","760001.5","610.3999999761581","77","1","swim","","","","",""
"dual-task","null","null","null","","arctic","swim","794.7000000476837","","q","null","88","88","1","swim-dual-task","","q","lowercase","766000","0","1","859a4c7938eaf81415aa96a1355bbba7f9f1297417f684fbf1afb9e577823ba7","766007.8999999762","794.7000000476837","88","1","swim","","","","",""
"dual-task","null","null","null","","arctic","swim","994.2000000476837","","E","null","77","77","1","swim-dual-task","","E","uppercase","778000","0","1","859a4c7938eaf81415aa96a1355bbba7f9f1297417f684fbf1afb9e577823ba7","778000.7000000477","994.2000000476837","77","1","swim","","","","",""
"dual-task","null","null","null","","arctic","swim","537.0999999046326","","F","null","77","77","1","swim-dual-task","","F","uppercase","788000","0","1","859a4c7938eaf81415aa96a1355bbba7f9f1297417f684fbf1afb9e577823ba7","788000.6000000238","537.0999999046326","77","1","swim","","","","",""
"dual-task","null","null","null","","arctic","swim","1088.6000000238419","","H","null","77","77","1","swim-dual-task","","H","uppercase","794000","0","1","859a4c7938eaf81415aa96a1355bbba7f9f1297417f684fbf1afb9e577823ba7","794000.2999999523","1088.6000000238419","77","1","swim","","","","",""
"audio-keyboard-response","62","1838983","0.0-6.0-2.0-1.0","859a4c7938eaf81415aa96a1355bbba7f9f1297417f684fbf1afb9e577823ba7","arctic","swim","null","","audio/story_swim_scrambled.mp3","","null","","","","","","","","","","","","","","","","","","","",""
"html-button-response","63","1841473","0.0-6.0-2.0-2.0","859a4c7938eaf81415aa96a1355bbba7f9f1297417f684fbf1afb9e577823ba7","arctic","swim","2489","","<p>This concludes the story. Thank you for listening.</p><p>You will now answer some questions about the content of the story.</p>","0","","","","","","","","","","","","","","","","","","","","",""
"survey-multi-choice","64","1844701","0.0-6.0-2.0-3.0-0.0","859a4c7938eaf81415aa96a1355bbba7f9f1297417f684fbf1afb9e577823ba7","arctic","swim","3225","","<b>Where is the home of naval aviation?</b>","","","","1","swim-comprehension","","","","","","","","","","","","","{""Q0"":""Pensacola""}","","","",""
"survey-multi-choice","65","1856750","0.0-6.0-2.0-3.0-0.1","859a4c7938eaf81415aa96a1355bbba7f9f1297417f684fbf1afb9e577823ba7","arctic","swim","11796","","<b>How often does the narrator swim, now that he is a good swimmer?</b>","","","","0","swim-comprehension","","","","","","","","","","","","","{""Q0"":""Every weekend with his kids""}","","","",""
"survey-multi-choice","66","1865981","0.0-6.0-2.0-3.0-0.2","859a4c7938eaf81415aa96a1355bbba7f9f1297417f684fbf1afb9e577823ba7","arctic","swim","8974","","<b>What was the final step of the first swim test in the pool?</b>","","","","1","swim-comprehension","","","","","","","","","","","","","{""Q0"":""Tread water with hands above the water""}","","","",""
"survey-multi-choice","67","1873021","0.0-6.0-2.0-3.0-0.3","859a4c7938eaf81415aa96a1355bbba7f9f1297417f684fbf1afb9e577823ba7","arctic","swim","6778","","<b>What gave the narrator his greatest feeling of accomplishment?</b>","","","","1","swim-comprehension","","","","","","","","","","","","","{""Q0"":""Passing the water survival course""}","","","",""
"survey-multi-choice","68","1880023","0.0-6.0-2.0-3.0-0.4","859a4c7938eaf81415aa96a1355bbba7f9f1297417f684fbf1afb9e577823ba7","arctic","swim","6747","","<b>How did the narrator train for his swim test?</b>","","","","1","swim-comprehension","","","","","","","","","","","","","{""Q0"":""Took his kids to the pool every day""}","","","",""
"survey-multi-choice","69","1886828","0.0-6.0-2.0-3.0-0.5","859a4c7938eaf81415aa96a1355bbba7f9f1297417f684fbf1afb9e577823ba7","arctic","swim","6545","","<b>What were the astronaut candidates trained to do at the naval air station?</b>","","","","1","swim-comprehension","","","","","","","","","","","","","{""Q0"":""Eject out of aircraft and survive in water long enough to be rescued""}","","","",""
"survey-multi-choice","70","1889946","0.0-6.0-2.0-3.0-0.6","859a4c7938eaf81415aa96a1355bbba7f9f1297417f684fbf1afb9e577823ba7","arctic","swim","2867","","<b>What is the narrator afraid of, aside from the water?</b>","","","","1","swim-comprehension","","","","","","","","","","","","","{""Q0"":""Heights""}","","","",""
"survey-multi-choice","71","1895649","0.0-6.0-2.0-3.0-0.7","859a4c7938eaf81415aa96a1355bbba7f9f1297417f684fbf1afb9e577823ba7","arctic","swim","5451","","<b>How many astronaut candidates reported for duty at the Johnson Space Center?</b>","","","","1","swim-comprehension","","","","","","","","","","","","","{""Q0"":""Forty-four""}","","","",""
"survey-multi-choice","72","1901283","0.0-6.0-2.0-3.0-0.8","859a4c7938eaf81415aa96a1355bbba7f9f1297417f684fbf1afb9e577823ba7","arctic","swim","5383","","<b>How many times did the astronaut candidates have to complete the final exercise to pass?</b>","","","","0","swim-comprehension","","","","","","","","","","","","","{""Q0"":""One""}","","","",""
"survey-multi-choice","73","1905468","0.0-6.0-2.0-3.0-0.9","859a4c7938eaf81415aa96a1355bbba7f9f1297417f684fbf1afb9e577823ba7","arctic","swim","3933","","<b>How many astronaut candidates passed the first swim test?</b>","","","","1","swim-comprehension","","","","","","","","","","","","","{""Q0"":""All of them""}","","","",""
"html-button-response","74","1908000","0.0-6.0-2.0-4.0","859a4c7938eaf81415aa96a1355bbba7f9f1297417f684fbf1afb9e577823ba7","arctic","swim","2281","","<p>Thank you for your responses.</p><p>You will now answer some questions about your impressions of the story.</p>","0","","","","","","","","","","","","","","","","","","","","",""
"html-button-response","75","1910220","0.0-6.0-2.0-5.0-0.0","859a4c7938eaf81415aa96a1355bbba7f9f1297417f684fbf1afb9e577823ba7","arctic","swim","2220","","E7","4","","","","swim-engagement","","","","","","","","","","","","","","5","enjoyment","",""
"html-button-response","76","1912560","0.0-6.0-2.0-5.0-0.1","859a4c7938eaf81415aa96a1355bbba7f9f1297417f684fbf1afb9e577823ba7","arctic","swim","2089","","EE2","5","","","","swim-engagement","","","","","","","","","","","","","","6","emo-engage","",""
"html-button-response","77","1916154","0.0-6.0-2.0-5.0-0.2","859a4c7938eaf81415aa96a1355bbba7f9f1297417f684fbf1afb9e577823ba7","arctic","swim","3343","","MS2","2","","","","swim-engagement","","","","","","","","","","","","","","3","mental-sim","",""
"html-button-response","78","1919267","0.0-6.0-2.0-5.0-0.3","859a4c7938eaf81415aa96a1355bbba7f9f1297417f684fbf1afb9e577823ba7","arctic","swim","2862","","EE4","4","","","","swim-engagement","","","","","","","","","","","","","","5","emo-engage","",""
"html-button-response","79","1922595","0.0-6.0-2.0-5.0-0.4","859a4c7938eaf81415aa96a1355bbba7f9f1297417f684fbf1afb9e577823ba7","arctic","swim","3075","","E1","4","","","","swim-engagement","","","","","","","","","","","","","","5","enjoyment","",""
"html-button-response","80","1924785","0.0-6.0-2.0-5.0-0.5","859a4c7938eaf81415aa96a1355bbba7f9f1297417f684fbf1afb9e577823ba7","arctic","swim","1937","","MS1","4","","","","swim-engagement","","","","","","","","","","","","","","5","mental-sim","",""
"html-button-response","81","1927421","0.0-6.0-2.0-5.0-0.6","859a4c7938eaf81415aa96a1355bbba7f9f1297417f684fbf1afb9e577823ba7","arctic","swim","2384","","A4","3","","","","swim-engagement","","","","","","","","","","","","","","4","absorption","",""
"html-button-response","82","1929650","0.0-6.0-2.0-5.0-0.7","859a4c7938eaf81415aa96a1355bbba7f9f1297417f684fbf1afb9e577823ba7","arctic","swim","1964","","A1","2","","","","swim-engagement","","","","","","","","","","","","","","3","absorption","",""
"html-button-response","83","1932007","0.0-6.0-2.0-5.0-0.8","859a4c7938eaf81415aa96a1355bbba7f9f1297417f684fbf1afb9e577823ba7","arctic","swim","2105","","A3","3","","","","swim-engagement","","","","","","","","","","","","","","4","absorption","",""
"html-button-response","84","1934724","0.0-6.0-2.0-5.0-0.9","859a4c7938eaf81415aa96a1355bbba7f9f1297417f684fbf1afb9e577823ba7","arctic","swim","2466","","E10","2","","","","swim-engagement","","","","","","","","","","","","","","3","enjoyment","",""
"html-button-response","85","1936756","0.0-6.0-2.0-5.0-0.10","859a4c7938eaf81415aa96a1355bbba7f9f1297417f684fbf1afb9e577823ba7","arctic","swim","1781","","EE5","4","","","","swim-engagement","","","","","","","","","","","","","","5","emo-engage","",""
"html-button-response","86","1939423","0.0-6.0-2.0-5.0-0.11","859a4c7938eaf81415aa96a1355bbba7f9f1297417f684fbf1afb9e577823ba7","arctic","swim","2416","","MS3","4","","","","swim-engagement","","","","","","","","","","","","","","5","mental-sim","",""
"html-button-response","87","1941158","0.0-6.0-2.0-5.0-0.12","859a4c7938eaf81415aa96a1355bbba7f9f1297417f684fbf1afb9e577823ba7","arctic","swim","1480","","EE3","4","","","","swim-engagement","","","","","","","","","","","","","","5","emo-engage","",""
"html-button-response","88","1944185","0.0-6.0-2.0-5.0-0.13","859a4c7938eaf81415aa96a1355bbba7f9f1297417f684fbf1afb9e577823ba7","arctic","swim","2776","","A5","3","","","","swim-engagement","","","","","","","","","","","","","","4","absorption","",""
"html-button-response","89","1946180","0.0-6.0-2.0-5.0-0.14","859a4c7938eaf81415aa96a1355bbba7f9f1297417f684fbf1afb9e577823ba7","arctic","swim","1742","","E6","3","","","","swim-engagement","","","","","","","","","","","","","","4","enjoyment","",""
"html-button-response","90","1948579","0.0-6.0-2.0-5.0-0.15","859a4c7938eaf81415aa96a1355bbba7f9f1297417f684fbf1afb9e577823ba7","arctic","swim","2148","","E8","4","","","","swim-engagement","","","","","","","","","","","","","","5","enjoyment","",""
"html-button-response","91","1952654","0.0-6.0-2.0-5.0-0.16","859a4c7938eaf81415aa96a1355bbba7f9f1297417f684fbf1afb9e577823ba7","arctic","swim","3822","","EE1","5","","","","swim-engagement","","","","","","","","","","","","","","6","emo-engage","",""
"html-button-response","92","1954589","0.0-6.0-2.0-5.0-0.17","859a4c7938eaf81415aa96a1355bbba7f9f1297417f684fbf1afb9e577823ba7","arctic","swim","1684","","A2","4","","","","swim-engagement","","","","","","","","","","","","","","5","absorption","",""
"html-button-response","93","1956016","0.0-8.0","859a4c7938eaf81415aa96a1355bbba7f9f1297417f684fbf1afb9e577823ba7","arctic","swim","1176","","<p>Thank you for your responses.</p><p>You will now answer some demographic, hearing, and general health questions.</p>","0","","","","","","","","","","","","","","","","","","","","",""
"survey-multi-choice","94","1957600","0.0-9.0-0.0","859a4c7938eaf81415aa96a1355bbba7f9f1297417f684fbf1afb9e577823ba7","arctic","swim","1581","","","","","","","survey","","","","","","","","","","","","","{""Q0"":""Chrome""}","","","browser",""
"survey-text","95","1959915","0.0-9.0-1.0","859a4c7938eaf81415aa96a1355bbba7f9f1297417f684fbf1afb9e577823ba7","arctic","swim","2063.5","","","","","","","survey","","","","","","","","","","","","","{""AGE"":""23""}","","","age","23"
"survey-multi-choice","96","1962416","0.0-9.0-2.0","859a4c7938eaf81415aa96a1355bbba7f9f1297417f684fbf1afb9e577823ba7","arctic","swim","2248","","","","","","","survey","","","","","","","","","","","","","{""Q0"":""Male""}","","","gender","Male"
"survey-multi-choice","97","1967312","0.0-9.0-4.0","859a4c7938eaf81415aa96a1355bbba7f9f1297417f684fbf1afb9e577823ba7","arctic","swim","4644","","","","","","","survey","","","","","","","","","","","","","{""Q0"":""Right""}","","","handedness","Right"
"survey-multi-choice","98","1969528","0.0-9.0-5.0","859a4c7938eaf81415aa96a1355bbba7f9f1297417f684fbf1afb9e577823ba7","arctic","swim","1963","","","","","","","survey","","","","","","","","","","","","","{""Q0"":""Bachelor's Degree""}","","","education","Bachelor's Degree"
"survey-text","99","1973051","0.0-10.0-0.0","859a4c7938eaf81415aa96a1355bbba7f9f1297417f684fbf1afb9e577823ba7","arctic","swim","3271.2999999523163","","","","","","","survey","","","","","","","","","","","","","{""L1"":""English""}","","","first-language","English"
"survey-text","100","1980122","0.0-10.0-1.0","859a4c7938eaf81415aa96a1355bbba7f9f1297417f684fbf1afb9e577823ba7","arctic","swim","6817.100000023842","","","","","","","survey","","","","","","","","","","","","","{""L2name"":"""",""L2fluency"":"""",""L3name"":"""",""L3fluency"":"""",""L4name"":"""",""L4fluency"":""""}","","","additional-languages","{""L2name"":"""",""L2fluency"":"""",""L3name"":"""",""L3fluency"":"""",""L4name"":"""",""L4fluency"":""""}"
"survey-multi-choice","101","1982337","0.0-10.0-2.0","859a4c7938eaf81415aa96a1355bbba7f9f1297417f684fbf1afb9e577823ba7","arctic","swim","1963","","","","","","","survey","","","","","","","","","","","","","{""Q0"":""No""}","","","hearing-aid","No"
"survey-multi-choice","102","1985288","0.0-10.0-3.0","859a4c7938eaf81415aa96a1355bbba7f9f1297417f684fbf1afb9e577823ba7","arctic","swim","2699","","","","","","","survey","","","","","","","","","","","","","{""Q0"":""Never""}","","","ringing-ears","Never"
"survey-multi-choice","103","1987489","0.0-10.0-5.0","859a4c7938eaf81415aa96a1355bbba7f9f1297417f684fbf1afb9e577823ba7","arctic","swim","1948","","","","","","","survey","","","","","","","","","","","","","{""Q0"":""No""}","","","neuro-disease","No"
"survey-multi-choice","104","1991228","0.0-10.0-7.0","859a4c7938eaf81415aa96a1355bbba7f9f1297417f684fbf1afb9e577823ba7","arctic","swim","3486","","","","","","","survey","","","","","","","","","","","","","{""Q0"":""No""}","","","take-meds","No"
"survey-text","105","1995412","0.0-10.0-9.0","859a4c7938eaf81415aa96a1355bbba7f9f1297417f684fbf1afb9e577823ba7","arctic","swim","3930.5999999046326","","","","","","","survey","","","","","","","","","","","","","{""HC"":""""}","","","health-concerns",""
"html-button-response","106","1998700","0.0-11.0-0.0","859a4c7938eaf81415aa96a1355bbba7f9f1297417f684fbf1afb9e577823ba7","arctic","swim","3037","","<p>How would you describe your musical skills/experiences?</p>","0","","","","survey","","","","","","","","","","","","","","","","music-skill","1"
"survey-multi-choice","107","2000298","0.0-11.0-1.0","859a4c7938eaf81415aa96a1355bbba7f9f1297417f684fbf1afb9e577823ba7","arctic","swim","1345","","","","","","","survey","","","","","","","","","","","","","{""Q0"":""No""}","","","music-instrument","No"
"html-button-response","108","2002408","0.0-12.0-0.0","859a4c7938eaf81415aa96a1355bbba7f9f1297417f684fbf1afb9e577823ba7","arctic","swim","1857","","<p>How would you describe your general hearing abilities?</p>","5","","","","survey","","","","","","","","","","","","","","","","ssq-01","6"
"html-button-response","109","2006657","0.0-12.0-1.0","859a4c7938eaf81415aa96a1355bbba7f9f1297417f684fbf1afb9e577823ba7","arctic","swim","3998","","<p>When you talk with someone at a place that strongly reverberates/echoes (e.g., in a church or train station),</br>can you understand what the person says?</p>","9","","","","survey","","","","","","","","","","","","","","","","ssq-02","9"
"html-button-response","110","2009900","0.0-12.0-2.0","859a4c7938eaf81415aa96a1355bbba7f9f1297417f684fbf1afb9e577823ba7","arctic","swim","2991","","<p>When you are with a group (~5 people) in a lively restaurant, can you follow the group's conversation?</p>","8","","","","survey","","","","","","","","","","","","","","","","ssq-03","8"
"html-button-response","111","2013127","0.0-12.0-3.0","859a4c7938eaf81415aa96a1355bbba7f9f1297417f684fbf1afb9e577823ba7","arctic","swim","2973","","<p>Based on the sound of a bus or truck, can you tell whether it is moving towards or away from you?</p>","9","","","","survey","","","","","","","","","","","","","","","","ssq-04","9"
"html-button-response","112","2016535","0.0-12.0-4.0","859a4c7938eaf81415aa96a1355bbba7f9f1297417f684fbf1afb9e577823ba7","arctic","swim","3157","","<p>When you are in an unknown environment, can you tell from which direction a brief sound originates?</p>","8","","","","survey","","","","","","","","","","","","","","","","ssq-05","8"
"html-button-response","113","2019923","0.0-12.0-5.0","859a4c7938eaf81415aa96a1355bbba7f9f1297417f684fbf1afb9e577823ba7","arctic","swim","3136","","<p>Are you able to ignore distracting sounds when you concentrate on a specific aspect of your acoustic surrounding?</p>","8","","","","survey","","","","","","","","","","","","","","","","ssq-06","8"
"fullscreen","114","2021176","0.0-13.0","859a4c7938eaf81415aa96a1355bbba7f9f1297417f684fbf1afb9e577823ba7","arctic","swim","","","","","","","","","true","","","","","","","","","","","","","","","",""
