"trial_type","trial_index","time_elapsed","internal_node_id","ParticipantID","firstStory","scramStory","rt","url","stimulus","button_pressed","key_press","correctRESP","correct","designation","success","letterStim","letterType","ONSET","TIMEOUT","CONDITION","Participant","ONSET_ACTUAL","RT","RESP","ACC","STORY","responses","response","type","surveyQuestion","QRESP"
"pavlovia","0","8","0.0-0.0","01d92d17ed0ea9d99d2bac6381808c7ee69318be66dd3daf29c6bf4568786f8d","arctic","arctic","","","","","","","","","","","","","","","","","","","","","","","","",""
"external-html","1","8911","0.0-1.0","01d92d17ed0ea9d99d2bac6381808c7ee69318be66dd3daf29c6bf4568786f8d","arctic","arctic","8140","consent/consent_updated.html","","","","","","","","","","","","","","","","","","","","","","",""
"html-button-response","2","26008","0.0-2.0-0.0","01d92d17ed0ea9d99d2bac6381808c7ee69318be66dd3daf29c6bf4568786f8d","arctic","arctic","17093","","<p>Before we begin the main task, you will complete a short volume calibration and headphone check.</p><p>Please make sure you are in a quiet listening environment, that you are wearing headphones, and that your computer's volume is turned on.<p></p>","0","","","","","","","","","","","","","","","","","","","","",""
"html-button-response","3","29944","0.0-2.0-1.0","01d92d17ed0ea9d99d2bac6381808c7ee69318be66dd3daf29c6bf4568786f8d","arctic","arctic","3670","","<p>The volume calibration will be first.</p><p>You will hear a thirty-second noise. Please adjust your computer's volume so that this noise is being presented at a comfortable level.<p></p>","0","","","","","","","","","","","","","","","","","","","","",""
"audio-button-response","4","34982","0.0-2.0-2.0","01d92d17ed0ea9d99d2bac6381808c7ee69318be66dd3daf29c6bf4568786f8d","arctic","arctic","4770","","audio/volumetest.mp3","0","","","","","","","","","","","","","","","","","","","","",""
"html-keyboard-response","5","45633","0.0-3.0-0.0","01d92d17ed0ea9d99d2bac6381808c7ee69318be66dd3daf29c6bf4568786f8d","arctic","arctic","10649","","<p>You will now complete a short headphone check.</p><p>On each trial, you will hear three tones. One of these tones will be quieter than the others. Your task is to identify whether the quiet tone occurred first, second, or third.</p><p>There are six trials in total.<p></p><p></p>(Press SPACEBAR to begin)","","32","","","","","","","","","","","","","","","","","","","",""
"html-keyboard-response","6","46417","0.0-3.0-1.0-0.0","01d92d17ed0ea9d99d2bac6381808c7ee69318be66dd3daf29c6bf4568786f8d","arctic","arctic","null","","<div style=""font-size:60px;"">+</div>","","null","","","","","","","","","","","","","","","","","","","",""
"audio-button-response","7","51312","0.0-3.0-1.0-1.0","01d92d17ed0ea9d99d2bac6381808c7ee69318be66dd3daf29c6bf4568786f8d","arctic","arctic","4888","","audio/t2_1.mp3","0","","1","0","headphone-test","","","","","","","","","","","","","","","","",""
"html-keyboard-response","8","51827","0.0-3.0-1.0-2.0","01d92d17ed0ea9d99d2bac6381808c7ee69318be66dd3daf29c6bf4568786f8d","arctic","arctic","null","","<p>Incorrect</p>","","null","","","","","","","","","","","","","","","","","","","",""
"html-keyboard-response","9","52348","0.0-3.0-1.0-0.1","01d92d17ed0ea9d99d2bac6381808c7ee69318be66dd3daf29c6bf4568786f8d","arctic","arctic","null","","<div style=""font-size:60px;"">+</div>","","null","","","","","","","","","","","","","","","","","","","",""
"audio-button-response","10","57341","0.0-3.0-1.0-1.1","01d92d17ed0ea9d99d2bac6381808c7ee69318be66dd3daf29c6bf4568786f8d","arctic","arctic","4990","","audio/t3_2.mp3","1","","2","0","headphone-test","","","","","","","","","","","","","","","","",""
"html-keyboard-response","11","57848","0.0-3.0-1.0-2.1","01d92d17ed0ea9d99d2bac6381808c7ee69318be66dd3daf29c6bf4568786f8d","arctic","arctic","null","","<p>Incorrect</p>","","null","","","","","","","","","","","","","","","","","","","",""
"html-keyboard-response","12","58354","0.0-3.0-1.0-0.2","01d92d17ed0ea9d99d2bac6381808c7ee69318be66dd3daf29c6bf4568786f8d","arctic","arctic","null","","<div style=""font-size:60px;"">+</div>","","null","","","","","","","","","","","","","","","","","","","",""
"audio-button-response","13","63209","0.0-3.0-1.0-1.2","01d92d17ed0ea9d99d2bac6381808c7ee69318be66dd3daf29c6bf4568786f8d","arctic","arctic","4853","","audio/t2_2.mp3","1","","1","1","headphone-test","","","","","","","","","","","","","","","","",""
"html-keyboard-response","14","63717","0.0-3.0-1.0-2.2","01d92d17ed0ea9d99d2bac6381808c7ee69318be66dd3daf29c6bf4568786f8d","arctic","arctic","null","","<p>Correct</p>","","null","","","","","","","","","","","","","","","","","","","",""
"html-keyboard-response","15","64238","0.0-3.0-1.0-0.3","01d92d17ed0ea9d99d2bac6381808c7ee69318be66dd3daf29c6bf4568786f8d","arctic","arctic","null","","<div style=""font-size:60px;"">+</div>","","null","","","","","","","","","","","","","","","","","","","",""
"audio-button-response","16","69101","0.0-3.0-1.0-1.3","01d92d17ed0ea9d99d2bac6381808c7ee69318be66dd3daf29c6bf4568786f8d","arctic","arctic","4861","","audio/t1_2.mp3","1","","0","0","headphone-test","","","","","","","","","","","","","","","","",""
"html-keyboard-response","17","69618","0.0-3.0-1.0-2.3","01d92d17ed0ea9d99d2bac6381808c7ee69318be66dd3daf29c6bf4568786f8d","arctic","arctic","null","","<p>Incorrect</p>","","null","","","","","","","","","","","","","","","","","","","",""
"html-keyboard-response","18","70122","0.0-3.0-1.0-0.4","01d92d17ed0ea9d99d2bac6381808c7ee69318be66dd3daf29c6bf4568786f8d","arctic","arctic","null","","<div style=""font-size:60px;"">+</div>","","null","","","","","","","","","","","","","","","","","","","",""
"audio-button-response","19","76497","0.0-3.0-1.0-1.4","01d92d17ed0ea9d99d2bac6381808c7ee69318be66dd3daf29c6bf4568786f8d","arctic","arctic","6372","","audio/t3_1.mp3","2","","2","1","headphone-test","","","","","","","","","","","","","","","","",""
"html-keyboard-response","20","77008","0.0-3.0-1.0-2.4","01d92d17ed0ea9d99d2bac6381808c7ee69318be66dd3daf29c6bf4568786f8d","arctic","arctic","null","","<p>Correct</p>","","null","","","","","","","","","","","","","","","","","","","",""
"html-keyboard-response","21","77518","0.0-3.0-1.0-0.5","01d92d17ed0ea9d99d2bac6381808c7ee69318be66dd3daf29c6bf4568786f8d","arctic","arctic","null","","<div style=""font-size:60px;"">+</div>","","null","","","","","","","","","","","","","","","","","","","",""
"audio-button-response","22","83349","0.0-3.0-1.0-1.5","01d92d17ed0ea9d99d2bac6381808c7ee69318be66dd3daf29c6bf4568786f8d","arctic","arctic","5827","","audio/t1_1.mp3","0","","0","1","headphone-test","","","","","","","","","","","","","","","","",""
"html-keyboard-response","23","83858","0.0-3.0-1.0-2.5","01d92d17ed0ea9d99d2bac6381808c7ee69318be66dd3daf29c6bf4568786f8d","arctic","arctic","null","","<p>Correct</p>","","null","","","","","","","","","","","","","","","","","","","",""
"fullscreen","24","95727","0.0-4.0","01d92d17ed0ea9d99d2bac6381808c7ee69318be66dd3daf29c6bf4568786f8d","arctic","arctic","","","","","","","","","true","","","","","","","","","","","","","","","",""
"html-button-response","25","104624","0.0-5.0-0.0","01d92d17ed0ea9d99d2bac6381808c7ee69318be66dd3daf29c6bf4568786f8d","arctic","arctic","8895","","<p>There are two blocks to this experiment.</p><p>In each block, you will hear a ~13.5 minute story. One of the stories will be scrambled. Please listen carefully to both stories and understand them as best you can.</p><p>After each story, you will be asked some questions to assess your comprehension.</p>","0","","","","","","","","","","","","","","","","","","","","",""
"html-button-response","26","117884","0.0-5.0-1.0","01d92d17ed0ea9d99d2bac6381808c7ee69318be66dd3daf29c6bf4568786f8d","arctic","arctic","13258","","<p>During each story, there will be an additional task.</p><p>A letter will occasionally appear on the screen.</br>Your job is to - as quickly as you can - decide whether the letter is lowercase or uppercase and press one of two keys on the keyboard:</p><p>If the letter is <b>lowercase</b>, press key &lt;<b>x</b>&gt;.</p><p>If the letter is <b>uppercase</b>, press key &lt;<b>m</b>&gt;.</p>","0","","","","","","","","","","","","","","","","","","","","",""
"html-keyboard-response","27","120273","0.0-5.0-2.0","01d92d17ed0ea9d99d2bac6381808c7ee69318be66dd3daf29c6bf4568786f8d","arctic","arctic","2387","","<p>Because we want your responses to be as quick as possible, please keep your index fingers over the keys while listening.</p><p>Each block lasts about 20 minutes.</p><p><b>Press &lt;x&gt; or &lt;m&gt; to start the first block!</b></p>","","88","","","","","","","","","","","","","","","","","","","",""
"html-keyboard-response","28","120780","0.0-6.0-0.0-0.0","01d92d17ed0ea9d99d2bac6381808c7ee69318be66dd3daf29c6bf4568786f8d","arctic","arctic","null","","<div style=""font-size:60px;"" tabindex=""0"">+</div>","","null","","","","","","","","","","","","","","","","","","","",""
"dual-task","null","null","null","","arctic","arctic","904.6999999880791","","n","null","88","88","1","arctic-dual-task","","n","lowercase","16000","0","4","01d92d17ed0ea9d99d2bac6381808c7ee69318be66dd3daf29c6bf4568786f8d","16001.5","904.6999999880791","88","1","arctic","","","","",""
"dual-task","null","null","null","","arctic","arctic","650.5999999940395","","G","null","77","77","1","arctic-dual-task","","G","uppercase","22000","0","4","01d92d17ed0ea9d99d2bac6381808c7ee69318be66dd3daf29c6bf4568786f8d","21999.90000000596","650.5999999940395","77","1","arctic","","","","",""
"dual-task","null","null","null","","arctic","arctic","602.5","","h","null","88","88","1","arctic-dual-task","","h","lowercase","30000","0","4","01d92d17ed0ea9d99d2bac6381808c7ee69318be66dd3daf29c6bf4568786f8d","30001.5","602.5","88","1","arctic","","","","",""
"dual-task","null","null","null","","arctic","arctic","605.5","","E","null","77","77","1","arctic-dual-task","","E","uppercase","40000","0","4","01d92d17ed0ea9d99d2bac6381808c7ee69318be66dd3daf29c6bf4568786f8d","40001.5","605.5","77","1","arctic","","","","",""
"dual-task","null","null","null","","arctic","arctic","735.5999999940395","","N","null","77","77","1","arctic-dual-task","","N","uppercase","52000","0","4","01d92d17ed0ea9d99d2bac6381808c7ee69318be66dd3daf29c6bf4568786f8d","52001.79999999702","735.5999999940395","77","1","arctic","","","","",""
"dual-task","null","null","null","","arctic","arctic","555.9000000059605","","h","null","88","88","1","arctic-dual-task","","h","lowercase","60000","0","4","01d92d17ed0ea9d99d2bac6381808c7ee69318be66dd3daf29c6bf4568786f8d","60001.5","555.9000000059605","88","1","arctic","","","","",""
"dual-task","null","null","null","","arctic","arctic","486.5","","R","null","77","77","1","arctic-dual-task","","R","uppercase","66000","0","4","01d92d17ed0ea9d99d2bac6381808c7ee69318be66dd3daf29c6bf4568786f8d","66001","486.5","77","1","arctic","","","","",""
"dual-task","null","null","null","","arctic","arctic","572.8999999910593","","T","null","77","77","1","arctic-dual-task","","T","uppercase","74000","0","4","01d92d17ed0ea9d99d2bac6381808c7ee69318be66dd3daf29c6bf4568786f8d","74011.5","572.8999999910593","77","1","arctic","","","","",""
"dual-task","null","null","null","","arctic","arctic","676.5","","n","null","88","88","1","arctic-dual-task","","n","lowercase","80000","0","4","01d92d17ed0ea9d99d2bac6381808c7ee69318be66dd3daf29c6bf4568786f8d","80011.60000000894","676.5","88","1","arctic","","","","",""
"dual-task","null","null","null","","arctic","arctic","649.2999999970198","","q","null","88","88","1","arctic-dual-task","","q","lowercase","94000","0","4","01d92d17ed0ea9d99d2bac6381808c7ee69318be66dd3daf29c6bf4568786f8d","94002.20000000298","649.2999999970198","88","1","arctic","","","","",""
"dual-task","null","null","null","","arctic","arctic","542.1000000089407","","t","null","88","88","1","arctic-dual-task","","t","lowercase","106000","0","4","01d92d17ed0ea9d99d2bac6381808c7ee69318be66dd3daf29c6bf4568786f8d","106001.79999999702","542.1000000089407","88","1","arctic","","","","",""
"dual-task","null","null","null","","arctic","arctic","566.0999999940395","","Q","null","77","77","1","arctic-dual-task","","Q","uppercase","118000","0","4","01d92d17ed0ea9d99d2bac6381808c7ee69318be66dd3daf29c6bf4568786f8d","118011.40000000596","566.0999999940395","77","1","arctic","","","","",""
"dual-task","null","null","null","","arctic","arctic","552","","N","null","77","77","1","arctic-dual-task","","N","uppercase","130000","0","4","01d92d17ed0ea9d99d2bac6381808c7ee69318be66dd3daf29c6bf4568786f8d","130011.79999999702","552","77","1","arctic","","","","",""
"dual-task","null","null","null","","arctic","arctic","547.1000000089407","","E","null","77","77","1","arctic-dual-task","","E","uppercase","142000","0","4","01d92d17ed0ea9d99d2bac6381808c7ee69318be66dd3daf29c6bf4568786f8d","142010.60000000894","547.1000000089407","77","1","arctic","","","","",""
"dual-task","null","null","null","","arctic","arctic","558","","d","null","88","88","1","arctic-dual-task","","d","lowercase","156000","0","4","01d92d17ed0ea9d99d2bac6381808c7ee69318be66dd3daf29c6bf4568786f8d","156011.5","558","88","1","arctic","","","","",""
"dual-task","null","null","null","","arctic","arctic","537.5999999940395","","B","null","77","77","1","arctic-dual-task","","B","uppercase","162000","0","4","01d92d17ed0ea9d99d2bac6381808c7ee69318be66dd3daf29c6bf4568786f8d","162010.90000000596","537.5999999940395","77","1","arctic","","","","",""
"dual-task","null","null","null","","arctic","arctic","609.2000000029802","","d","null","88","88","1","arctic-dual-task","","d","lowercase","176000","0","4","01d92d17ed0ea9d99d2bac6381808c7ee69318be66dd3daf29c6bf4568786f8d","176010.60000000894","609.2000000029802","88","1","arctic","","","","",""
"dual-task","null","null","null","","arctic","arctic","533.9000000059605","","q","null","88","88","1","arctic-dual-task","","q","lowercase","184000","0","4","01d92d17ed0ea9d99d2bac6381808c7ee69318be66dd3daf29c6bf4568786f8d","184011","533.9000000059605","88","1","arctic","","","","",""
"dual-task","null","null","null","","arctic","arctic","471.90000000596046","","t","null","88","88","1","arctic-dual-task","","t","lowercase","192000","0","4","01d92d17ed0ea9d99d2bac6381808c7ee69318be66dd3daf29c6bf4568786f8d","192000.79999999702","471.90000000596046","88","1","arctic","","","","",""
"dual-task","null","null","null","","arctic","arctic","580.7000000029802","","a","null","88","88","1","arctic-dual-task","","a","lowercase","206000","0","4","01d92d17ed0ea9d99d2bac6381808c7ee69318be66dd3daf29c6bf4568786f8d","206001.29999999702","580.7000000029802","88","1","arctic","","","","",""
"dual-task","null","null","null","","arctic","arctic","604.7000000029802","","F","null","77","77","1","arctic-dual-task","","F","uppercase","216000","0","4","01d92d17ed0ea9d99d2bac6381808c7ee69318be66dd3daf29c6bf4568786f8d","216011.29999999702","604.7000000029802","77","1","arctic","","","","",""
"dual-task","null","null","null","","arctic","arctic","518.2999999970198","","Q","null","77","77","1","arctic-dual-task","","Q","uppercase","226000","0","4","01d92d17ed0ea9d99d2bac6381808c7ee69318be66dd3daf29c6bf4568786f8d","226000.79999999702","518.2999999970198","77","1","arctic","","","","",""
"dual-task","null","null","null","","arctic","arctic","520.8999999910593","","R","null","77","77","1","arctic-dual-task","","R","uppercase","238000","0","4","01d92d17ed0ea9d99d2bac6381808c7ee69318be66dd3daf29c6bf4568786f8d","238001.29999999702","520.8999999910593","77","1","arctic","","","","",""
"dual-task","null","null","null","","arctic","arctic","513.6999999880791","","n","null","88","88","1","arctic-dual-task","","n","lowercase","252000","0","4","01d92d17ed0ea9d99d2bac6381808c7ee69318be66dd3daf29c6bf4568786f8d","252001.40000000596","513.6999999880791","88","1","arctic","","","","",""
"dual-task","null","null","null","","arctic","arctic","911.7999999970198","","t","null","88","88","1","arctic-dual-task","","t","lowercase","262000","0","4","01d92d17ed0ea9d99d2bac6381808c7ee69318be66dd3daf29c6bf4568786f8d","262001.20000000298","911.7999999970198","88","1","arctic","","","","",""
"dual-task","null","null","null","","arctic","arctic","563.4000000059605","","Q","null","77","77","1","arctic-dual-task","","Q","uppercase","272000","0","4","01d92d17ed0ea9d99d2bac6381808c7ee69318be66dd3daf29c6bf4568786f8d","272000.200000003","563.4000000059605","77","1","arctic","","","","",""
"dual-task","null","null","null","","arctic","arctic","525.8999999910593","","r","null","88","88","1","arctic-dual-task","","r","lowercase","280000","0","4","01d92d17ed0ea9d99d2bac6381808c7ee69318be66dd3daf29c6bf4568786f8d","280001.200000003","525.8999999910593","88","1","arctic","","","","",""
"dual-task","null","null","null","","arctic","arctic","559.4000000059605","","b","null","88","88","1","arctic-dual-task","","b","lowercase","288000","0","4","01d92d17ed0ea9d99d2bac6381808c7ee69318be66dd3daf29c6bf4568786f8d","288011.299999997","559.4000000059605","88","1","arctic","","","","",""
"dual-task","null","null","null","","arctic","arctic","484.79999999701977","","N","null","77","77","1","arctic-dual-task","","N","uppercase","294000","0","4","01d92d17ed0ea9d99d2bac6381808c7ee69318be66dd3daf29c6bf4568786f8d","294000.299999997","484.79999999701977","77","1","arctic","","","","",""
"dual-task","null","null","null","","arctic","arctic","521.5999999940395","","F","null","77","77","1","arctic-dual-task","","F","uppercase","302000","0","4","01d92d17ed0ea9d99d2bac6381808c7ee69318be66dd3daf29c6bf4568786f8d","301999.90000000596","521.5999999940395","77","1","arctic","","","","",""
"dual-task","null","null","null","","arctic","arctic","515.5","","D","null","77","77","1","arctic-dual-task","","D","uppercase","308000","0","4","01d92d17ed0ea9d99d2bac6381808c7ee69318be66dd3daf29c6bf4568786f8d","308001","515.5","77","1","arctic","","","","",""
"dual-task","null","null","null","","arctic","arctic","528.3999999910593","","g","null","88","88","1","arctic-dual-task","","g","lowercase","318000","0","4","01d92d17ed0ea9d99d2bac6381808c7ee69318be66dd3daf29c6bf4568786f8d","317999.200000003","528.3999999910593","88","1","arctic","","","","",""
"dual-task","null","null","null","","arctic","arctic","494.20000000298023","","D","null","77","77","1","arctic-dual-task","","D","uppercase","324000","0","4","01d92d17ed0ea9d99d2bac6381808c7ee69318be66dd3daf29c6bf4568786f8d","324001","494.20000000298023","77","1","arctic","","","","",""
"dual-task","null","null","null","","arctic","arctic","529.5999999940395","","n","null","77","88","0","arctic-dual-task","","n","lowercase","330000","0","4","01d92d17ed0ea9d99d2bac6381808c7ee69318be66dd3daf29c6bf4568786f8d","330009.700000003","529.5999999940395","77","0","arctic","","","","",""
"dual-task","null","null","null","","arctic","arctic","516.2000000029802","","B","null","77","77","1","arctic-dual-task","","B","uppercase","338000","0","4","01d92d17ed0ea9d99d2bac6381808c7ee69318be66dd3daf29c6bf4568786f8d","338011","516.2000000029802","77","1","arctic","","","","",""
"dual-task","null","null","null","","arctic","arctic","684.7000000029802","","N","null","77","77","1","arctic-dual-task","","N","uppercase","348000","0","4","01d92d17ed0ea9d99d2bac6381808c7ee69318be66dd3daf29c6bf4568786f8d","348010","684.7000000029802","77","1","arctic","","","","",""
"dual-task","null","null","null","","arctic","arctic","585.7000000029802","","f","null","88","88","1","arctic-dual-task","","f","lowercase","362000","0","4","01d92d17ed0ea9d99d2bac6381808c7ee69318be66dd3daf29c6bf4568786f8d","362000.60000000894","585.7000000029802","88","1","arctic","","","","",""
"dual-task","null","null","null","","arctic","arctic","727.2999999970198","","E","null","77","77","1","arctic-dual-task","","E","uppercase","374000","0","4","01d92d17ed0ea9d99d2bac6381808c7ee69318be66dd3daf29c6bf4568786f8d","374010.799999997","727.2999999970198","77","1","arctic","","","","",""
"dual-task","null","null","null","","arctic","arctic","532.7999999970198","","f","null","88","88","1","arctic-dual-task","","f","lowercase","384000","0","4","01d92d17ed0ea9d99d2bac6381808c7ee69318be66dd3daf29c6bf4568786f8d","384011.10000000894","532.7999999970198","88","1","arctic","","","","",""
"dual-task","null","null","null","","arctic","arctic","648.0999999940395","","T","null","77","77","1","arctic-dual-task","","T","uppercase","390000","0","4","01d92d17ed0ea9d99d2bac6381808c7ee69318be66dd3daf29c6bf4568786f8d","390011","648.0999999940395","77","1","arctic","","","","",""
"dual-task","null","null","null","","arctic","arctic","584.2999999970198","","R","null","77","77","1","arctic-dual-task","","R","uppercase","402000","0","4","01d92d17ed0ea9d99d2bac6381808c7ee69318be66dd3daf29c6bf4568786f8d","402001.200000003","584.2999999970198","77","1","arctic","","","","",""
"dual-task","null","null","null","","arctic","arctic","575.7999999970198","","h","null","88","88","1","arctic-dual-task","","h","lowercase","410000","0","4","01d92d17ed0ea9d99d2bac6381808c7ee69318be66dd3daf29c6bf4568786f8d","410000","575.7999999970198","88","1","arctic","","","","",""
"dual-task","null","null","null","","arctic","arctic","672.9000000059605","","d","null","88","88","1","arctic-dual-task","","d","lowercase","416000","0","4","01d92d17ed0ea9d99d2bac6381808c7ee69318be66dd3daf29c6bf4568786f8d","415999.60000000894","672.9000000059605","88","1","arctic","","","","",""
"dual-task","null","null","null","","arctic","arctic","548.7999999970198","","f","null","88","88","1","arctic-dual-task","","f","lowercase","426000","0","4","01d92d17ed0ea9d99d2bac6381808c7ee69318be66dd3daf29c6bf4568786f8d","426011","548.7999999970198","88","1","arctic","","","","",""
"dual-task","null","null","null","","arctic","arctic","1943.9000000059605","","d","null","88","88","1","arctic-dual-task","","d","lowercase","434000","0","4","01d92d17ed0ea9d99d2bac6381808c7ee69318be66dd3daf29c6bf4568786f8d","433999.90000000596","1943.9000000059605","88","1","arctic","","","","",""
"dual-task","null","null","null","","arctic","arctic","471.09999999403954","","e","null","88","88","1","arctic-dual-task","","e","lowercase","444000","0","4","01d92d17ed0ea9d99d2bac6381808c7ee69318be66dd3daf29c6bf4568786f8d","444000.5","471.09999999403954","88","1","arctic","","","","",""
"dual-task","null","null","null","","arctic","arctic","544.4000000059605","","F","null","77","77","1","arctic-dual-task","","F","uppercase","458000","0","4","01d92d17ed0ea9d99d2bac6381808c7ee69318be66dd3daf29c6bf4568786f8d","458000.90000000596","544.4000000059605","77","1","arctic","","","","",""
"dual-task","null","null","null","","arctic","arctic","1036.3999999910593","","A","null","77","77","1","arctic-dual-task","","A","uppercase","466000","0","4","01d92d17ed0ea9d99d2bac6381808c7ee69318be66dd3daf29c6bf4568786f8d","466000.299999997","1036.3999999910593","77","1","arctic","","","","",""
"dual-task","null","null","null","","arctic","arctic","806.2999999970198","","B","null","77","77","1","arctic-dual-task","","B","uppercase","478000","0","4","01d92d17ed0ea9d99d2bac6381808c7ee69318be66dd3daf29c6bf4568786f8d","478011.90000000596","806.2999999970198","77","1","arctic","","","","",""
"dual-task","null","null","null","","arctic","arctic","651.7000000029802","","g","null","88","88","1","arctic-dual-task","","g","lowercase","492000","0","4","01d92d17ed0ea9d99d2bac6381808c7ee69318be66dd3daf29c6bf4568786f8d","492001.10000000894","651.7000000029802","88","1","arctic","","","","",""
"dual-task","null","null","null","","arctic","arctic","668.7999999970198","","H","null","77","77","1","arctic-dual-task","","H","uppercase","506000","0","4","01d92d17ed0ea9d99d2bac6381808c7ee69318be66dd3daf29c6bf4568786f8d","506010.799999997","668.7999999970198","77","1","arctic","","","","",""
"dual-task","null","null","null","","arctic","arctic","687.5","","E","null","77","77","1","arctic-dual-task","","E","uppercase","520000","0","4","01d92d17ed0ea9d99d2bac6381808c7ee69318be66dd3daf29c6bf4568786f8d","520011.200000003","687.5","77","1","arctic","","","","",""
"dual-task","null","null","null","","arctic","arctic","621.5","","a","null","88","88","1","arctic-dual-task","","a","lowercase","532000","0","4","01d92d17ed0ea9d99d2bac6381808c7ee69318be66dd3daf29c6bf4568786f8d","532011.6000000089","621.5","88","1","arctic","","","","",""
"dual-task","null","null","null","","arctic","arctic","564.1999999880791","","R","null","77","77","1","arctic-dual-task","","R","uppercase","544000","0","4","01d92d17ed0ea9d99d2bac6381808c7ee69318be66dd3daf29c6bf4568786f8d","544011.200000003","564.1999999880791","77","1","arctic","","","","",""
"dual-task","null","null","null","","arctic","arctic","532.9000000059605","","B","null","77","77","1","arctic-dual-task","","B","uppercase","550000","0","4","01d92d17ed0ea9d99d2bac6381808c7ee69318be66dd3daf29c6bf4568786f8d","550000.1000000089","532.9000000059605","77","1","arctic","","","","",""
"dual-task","null","null","null","","arctic","arctic","569.9000000059605","","e","null","88","88","1","arctic-dual-task","","e","lowercase","558000","0","4","01d92d17ed0ea9d99d2bac6381808c7ee69318be66dd3daf29c6bf4568786f8d","558010.6000000089","569.9000000059605","88","1","arctic","","","","",""
"dual-task","null","null","null","","arctic","arctic","515.0999999940395","","r","null","88","88","1","arctic-dual-task","","r","lowercase","566000","0","4","01d92d17ed0ea9d99d2bac6381808c7ee69318be66dd3daf29c6bf4568786f8d","566000.700000003","515.0999999940395","88","1","arctic","","","","",""
"dual-task","null","null","null","","arctic","arctic","736.7000000029802","","H","null","77","77","1","arctic-dual-task","","H","uppercase","580000","0","4","01d92d17ed0ea9d99d2bac6381808c7ee69318be66dd3daf29c6bf4568786f8d","580001.200000003","736.7000000029802","77","1","arctic","","","","",""
"dual-task","null","null","null","","arctic","arctic","1406.7999999970198","","t","null","88","88","1","arctic-dual-task","","t","lowercase","588000","0","4","01d92d17ed0ea9d99d2bac6381808c7ee69318be66dd3daf29c6bf4568786f8d","588002.200000003","1406.7999999970198","88","1","arctic","","","","",""
"dual-task","null","null","null","","arctic","arctic","644.3000000119209","","A","null","77","77","1","arctic-dual-task","","A","uppercase","598000","0","4","01d92d17ed0ea9d99d2bac6381808c7ee69318be66dd3daf29c6bf4568786f8d","598000.900000006","644.3000000119209","77","1","arctic","","","","",""
"dual-task","null","null","null","","arctic","arctic","702.9000000059605","","b","null","88","88","1","arctic-dual-task","","b","lowercase","606000","0","4","01d92d17ed0ea9d99d2bac6381808c7ee69318be66dd3daf29c6bf4568786f8d","606000.700000003","702.9000000059605","88","1","arctic","","","","",""
"dual-task","null","null","null","","arctic","arctic","560","","A","null","77","77","1","arctic-dual-task","","A","uppercase","616000","0","4","01d92d17ed0ea9d99d2bac6381808c7ee69318be66dd3daf29c6bf4568786f8d","616011.299999997","560","77","1","arctic","","","","",""
"dual-task","null","null","null","","arctic","arctic","511.09999999403954","","H","null","77","77","1","arctic-dual-task","","H","uppercase","630000","0","4","01d92d17ed0ea9d99d2bac6381808c7ee69318be66dd3daf29c6bf4568786f8d","630011.799999997","511.09999999403954","77","1","arctic","","","","",""
"dual-task","null","null","null","","arctic","arctic","915.4000000059605","","g","null","88","88","1","arctic-dual-task","","g","lowercase","640000","0","4","01d92d17ed0ea9d99d2bac6381808c7ee69318be66dd3daf29c6bf4568786f8d","640001.299999997","915.4000000059605","88","1","arctic","","","","",""
"dual-task","null","null","null","","arctic","arctic","743.2000000029802","","e","null","88","88","1","arctic-dual-task","","e","lowercase","652000","0","4","01d92d17ed0ea9d99d2bac6381808c7ee69318be66dd3daf29c6bf4568786f8d","652001.900000006","743.2000000029802","88","1","arctic","","","","",""
"dual-task","null","null","null","","arctic","arctic","941.5","","G","null","77","77","1","arctic-dual-task","","G","uppercase","666000","0","4","01d92d17ed0ea9d99d2bac6381808c7ee69318be66dd3daf29c6bf4568786f8d","666000.1000000089","941.5","77","1","arctic","","","","",""
"dual-task","null","null","null","","arctic","arctic","560.7000000029802","","H","null","77","77","1","arctic-dual-task","","H","uppercase","676000","0","4","01d92d17ed0ea9d99d2bac6381808c7ee69318be66dd3daf29c6bf4568786f8d","676000.900000006","560.7000000029802","77","1","arctic","","","","",""
"dual-task","null","null","null","","arctic","arctic","588.2999999970198","","Q","null","77","77","1","arctic-dual-task","","Q","uppercase","684000","0","4","01d92d17ed0ea9d99d2bac6381808c7ee69318be66dd3daf29c6bf4568786f8d","684010.400000006","588.2999999970198","77","1","arctic","","","","",""
"dual-task","null","null","null","","arctic","arctic","481.90000000596046","","D","null","77","77","1","arctic-dual-task","","D","uppercase","694000","0","4","01d92d17ed0ea9d99d2bac6381808c7ee69318be66dd3daf29c6bf4568786f8d","694001.299999997","481.90000000596046","77","1","arctic","","","","",""
"dual-task","null","null","null","","arctic","arctic","695.3000000119209","","b","null","88","88","1","arctic-dual-task","","b","lowercase","706000","0","4","01d92d17ed0ea9d99d2bac6381808c7ee69318be66dd3daf29c6bf4568786f8d","706011.5","695.3000000119209","88","1","arctic","","","","",""
"dual-task","null","null","null","","arctic","arctic","937.2999999970198","","e","null","88","88","1","arctic-dual-task","","e","lowercase","714000","0","4","01d92d17ed0ea9d99d2bac6381808c7ee69318be66dd3daf29c6bf4568786f8d","714011.400000006","937.2999999970198","88","1","arctic","","","","",""
"dual-task","null","null","null","","arctic","arctic","642.9000000059605","","T","null","77","77","1","arctic-dual-task","","T","uppercase","728000","0","4","01d92d17ed0ea9d99d2bac6381808c7ee69318be66dd3daf29c6bf4568786f8d","728001.299999997","642.9000000059605","77","1","arctic","","","","",""
"dual-task","null","null","null","","arctic","arctic","481.29999999701977","","q","null","88","88","1","arctic-dual-task","","q","lowercase","742000","0","4","01d92d17ed0ea9d99d2bac6381808c7ee69318be66dd3daf29c6bf4568786f8d","742012.299999997","481.29999999701977","88","1","arctic","","","","",""
"dual-task","null","null","null","","arctic","arctic","633.3999999910593","","f","null","88","88","1","arctic-dual-task","","f","lowercase","756000","0","4","01d92d17ed0ea9d99d2bac6381808c7ee69318be66dd3daf29c6bf4568786f8d","756011.700000003","633.3999999910593","88","1","arctic","","","","",""
"dual-task","null","null","null","","arctic","arctic","660.7000000029802","","r","null","88","88","1","arctic-dual-task","","r","lowercase","762000","0","4","01d92d17ed0ea9d99d2bac6381808c7ee69318be66dd3daf29c6bf4568786f8d","762010.900000006","660.7000000029802","88","1","arctic","","","","",""
"dual-task","null","null","null","","arctic","arctic","497.90000000596046","","a","null","88","88","1","arctic-dual-task","","a","lowercase","770000","0","4","01d92d17ed0ea9d99d2bac6381808c7ee69318be66dd3daf29c6bf4568786f8d","770002","497.90000000596046","88","1","arctic","","","","",""
"dual-task","null","null","null","","arctic","arctic","605.9000000059605","","F","null","77","77","1","arctic-dual-task","","F","uppercase","776000","0","4","01d92d17ed0ea9d99d2bac6381808c7ee69318be66dd3daf29c6bf4568786f8d","776011.400000006","605.9000000059605","77","1","arctic","","","","",""
"dual-task","null","null","null","","arctic","arctic","668","","T","null","77","77","1","arctic-dual-task","","T","uppercase","784000","0","4","01d92d17ed0ea9d99d2bac6381808c7ee69318be66dd3daf29c6bf4568786f8d","784011.700000003","668","77","1","arctic","","","","",""
"audio-keyboard-response","29","919098","0.0-6.0-0.0-1.0","01d92d17ed0ea9d99d2bac6381808c7ee69318be66dd3daf29c6bf4568786f8d","arctic","arctic","null","","audio/story_arctic_scrambled.mp3","","null","","","","","","","","","","","","","","","","","","","",""
"html-button-response","30","921402","0.0-6.0-0.0-2.0","01d92d17ed0ea9d99d2bac6381808c7ee69318be66dd3daf29c6bf4568786f8d","arctic","arctic","2299","","<p>This concludes the story. Thank you for listening.</p><p>You will now answer some questions about the content of the story.</p>","0","","","","","","","","","","","","","","","","","","","","",""
"survey-multi-choice","31","927362","0.0-6.0-0.0-3.0-0.0","01d92d17ed0ea9d99d2bac6381808c7ee69318be66dd3daf29c6bf4568786f8d","arctic","arctic","5939","","<b>Which dog on the narrator&#39;s dog team never followed instructions?</b>","","","","1","arctic-comprehension","","","","","","","","","","","","","{""Q0"":""Robert""}","","","",""
"survey-multi-choice","32","934972","0.0-6.0-0.0-3.0-0.1","01d92d17ed0ea9d99d2bac6381808c7ee69318be66dd3daf29c6bf4568786f8d","arctic","arctic","7336","","<b>How did the dogs respond when they saw the bears?</b>","","","","1","arctic-comprehension","","","","","","","","","","","","","{""Q0"":""Approached them""}","","","",""
"survey-multi-choice","33","940972","0.0-6.0-0.0-3.0-0.2","01d92d17ed0ea9d99d2bac6381808c7ee69318be66dd3daf29c6bf4568786f8d","arctic","arctic","5724","","<b>What was the objective of the narrator&#39;s expedition?</b>","","","","1","arctic-comprehension","","","","","","","","","","","","","{""Q0"":""Dogsled across Arctic America""}","","","",""
"survey-multi-choice","34","945382","0.0-6.0-0.0-3.0-0.3","01d92d17ed0ea9d99d2bac6381808c7ee69318be66dd3daf29c6bf4568786f8d","arctic","arctic","4149","","<b>What is the name of the narrator&#39;s neighbour?</b>","","","","1","arctic-comprehension","","","","","","","","","","","","","{""Q0"":""Dave""}","","","",""
"survey-multi-choice","35","952139","0.0-6.0-0.0-3.0-0.4","01d92d17ed0ea9d99d2bac6381808c7ee69318be66dd3daf29c6bf4568786f8d","arctic","arctic","6483","","<b>What did the narrator do for leisure while in her tent?</b>","","","","1","arctic-comprehension","","","","","","","","","","","","","{""Q0"":""Read""}","","","",""
"survey-multi-choice","36","963327","0.0-6.0-0.0-3.0-0.5","01d92d17ed0ea9d99d2bac6381808c7ee69318be66dd3daf29c6bf4568786f8d","arctic","arctic","10921","","<b>How did the narrator&#39;s neighbour respond when she told him about her expedition?</b>","","","","1","arctic-comprehension","","","","","","","","","","","","","{""Q0"":""He said she was going to fail.""}","","","",""
"survey-multi-choice","37","971201","0.0-6.0-0.0-3.0-0.6","01d92d17ed0ea9d99d2bac6381808c7ee69318be66dd3daf29c6bf4568786f8d","arctic","arctic","7613","","<b>How many sponsorships did the narrator receive to support her expedition?</b>","","","","0","arctic-comprehension","","","","","","","","","","","","","{""Q0"":""Ten""}","","","",""
"survey-multi-choice","38","979382","0.0-6.0-0.0-3.0-0.7","01d92d17ed0ea9d99d2bac6381808c7ee69318be66dd3daf29c6bf4568786f8d","arctic","arctic","7916","","<b>How did the narrator prepare for her expedition?</b>","","","","1","arctic-comprehension","","","","","","","","","","","","","{""Q0"":""Trained in Alaska learning how to dogsled""}","","","",""
"survey-multi-choice","39","988075","0.0-6.0-0.0-3.0-0.8","01d92d17ed0ea9d99d2bac6381808c7ee69318be66dd3daf29c6bf4568786f8d","arctic","arctic","8428","","<b>What were the weather conditions in the Arctic like the winter of the narrator&#39;s expedition?</b>","","","","0","arctic-comprehension","","","","","","","","","","","","","{""Q0"":""It was the coldest winter in recorded history.""}","","","",""
"survey-multi-choice","40","999266","0.0-6.0-0.0-3.0-0.9","01d92d17ed0ea9d99d2bac6381808c7ee69318be66dd3daf29c6bf4568786f8d","arctic","arctic","10921","","<b>How did the narrator&#39;s encounter with the polar bears end?</b>","","","","1","arctic-comprehension","","","","","","","","","","","","","{""Q0"":""The bears walked back to their den.""}","","","",""
"html-button-response","41","1001598","0.0-6.0-0.0-4.0","01d92d17ed0ea9d99d2bac6381808c7ee69318be66dd3daf29c6bf4568786f8d","arctic","arctic","2075","","<p>Thank you for your responses.</p><p>You will now answer some questions about your impressions of the story.</p>","0","","","","","","","","","","","","","","","","","","","","",""
"html-button-response","42","1005805","0.0-6.0-0.0-5.0-0.0","01d92d17ed0ea9d99d2bac6381808c7ee69318be66dd3daf29c6bf4568786f8d","arctic","arctic","4202","","EE3","4","","","","arctic-engagement","","","","","","","","","","","","","","5","emo-engage","",""
"html-button-response","43","1007667","0.0-6.0-0.0-5.0-0.1","01d92d17ed0ea9d99d2bac6381808c7ee69318be66dd3daf29c6bf4568786f8d","arctic","arctic","1605","","E10","4","","","","arctic-engagement","","","","","","","","","","","","","","5","enjoyment","",""
"html-button-response","44","1011480","0.0-6.0-0.0-5.0-0.2","01d92d17ed0ea9d99d2bac6381808c7ee69318be66dd3daf29c6bf4568786f8d","arctic","arctic","3556","","MS3","5","","","","arctic-engagement","","","","","","","","","","","","","","6","mental-sim","",""
"html-button-response","45","1014404","0.0-6.0-0.0-5.0-0.3","01d92d17ed0ea9d99d2bac6381808c7ee69318be66dd3daf29c6bf4568786f8d","arctic","arctic","2666","","E1","4","","","","arctic-engagement","","","","","","","","","","","","","","5","enjoyment","",""
"html-button-response","46","1016308","0.0-6.0-0.0-5.0-0.4","01d92d17ed0ea9d99d2bac6381808c7ee69318be66dd3daf29c6bf4568786f8d","arctic","arctic","1646","","MS1","4","","","","arctic-engagement","","","","","","","","","","","","","","5","mental-sim","",""
"html-button-response","47","1019981","0.0-6.0-0.0-5.0-0.5","01d92d17ed0ea9d99d2bac6381808c7ee69318be66dd3daf29c6bf4568786f8d","arctic","arctic","3415","","A5","1","","","","arctic-engagement","","","","","","","","","","","","","","2","absorption","",""
"html-button-response","48","1021950","0.0-6.0-0.0-5.0-0.6","01d92d17ed0ea9d99d2bac6381808c7ee69318be66dd3daf29c6bf4568786f8d","arctic","arctic","1713","","A4","1","","","","arctic-engagement","","","","","","","","","","","","","","2","absorption","",""
"html-button-response","49","1025202","0.0-6.0-0.0-5.0-0.7","01d92d17ed0ea9d99d2bac6381808c7ee69318be66dd3daf29c6bf4568786f8d","arctic","arctic","2993","","A2","5","","","","arctic-engagement","","","","","","","","","","","","","","6","absorption","",""
"html-button-response","50","1027241","0.0-6.0-0.0-5.0-0.8","01d92d17ed0ea9d99d2bac6381808c7ee69318be66dd3daf29c6bf4568786f8d","arctic","arctic","1782","","E7","5","","","","arctic-engagement","","","","","","","","","","","","","","6","enjoyment","",""
"html-button-response","51","1030081","0.0-6.0-0.0-5.0-0.9","01d92d17ed0ea9d99d2bac6381808c7ee69318be66dd3daf29c6bf4568786f8d","arctic","arctic","2585","","E6","4","","","","arctic-engagement","","","","","","","","","","","","","","5","enjoyment","",""
"html-button-response","52","1031944","0.0-6.0-0.0-5.0-0.10","01d92d17ed0ea9d99d2bac6381808c7ee69318be66dd3daf29c6bf4568786f8d","arctic","arctic","1605","","EE4","4","","","","arctic-engagement","","","","","","","","","","","","","","5","emo-engage","",""
"html-button-response","53","1033344","0.0-6.0-0.0-5.0-0.11","01d92d17ed0ea9d99d2bac6381808c7ee69318be66dd3daf29c6bf4568786f8d","arctic","arctic","1142","","A3","4","","","","arctic-engagement","","","","","","","","","","","","","","5","absorption","",""
"html-button-response","54","1034915","0.0-6.0-0.0-5.0-0.12","01d92d17ed0ea9d99d2bac6381808c7ee69318be66dd3daf29c6bf4568786f8d","arctic","arctic","1309","","EE5","4","","","","arctic-engagement","","","","","","","","","","","","","","5","emo-engage","",""
"html-button-response","55","1038662","0.0-6.0-0.0-5.0-0.13","01d92d17ed0ea9d99d2bac6381808c7ee69318be66dd3daf29c6bf4568786f8d","arctic","arctic","3490","","A1","1","","","","arctic-engagement","","","","","","","","","","","","","","2","absorption","",""
"html-button-response","56","1040942","0.0-6.0-0.0-5.0-0.14","01d92d17ed0ea9d99d2bac6381808c7ee69318be66dd3daf29c6bf4568786f8d","arctic","arctic","2026","","EE2","1","","","","arctic-engagement","","","","","","","","","","","","","","2","emo-engage","",""
"html-button-response","57","1045106","0.0-6.0-0.0-5.0-0.15","01d92d17ed0ea9d99d2bac6381808c7ee69318be66dd3daf29c6bf4568786f8d","arctic","arctic","3907","","EE1","5","","","","arctic-engagement","","","","","","","","","","","","","","6","emo-engage","",""
"html-button-response","58","1047344","0.0-6.0-0.0-5.0-0.16","01d92d17ed0ea9d99d2bac6381808c7ee69318be66dd3daf29c6bf4568786f8d","arctic","arctic","1974","","MS2","5","","","","arctic-engagement","","","","","","","","","","","","","","6","mental-sim","",""
"html-button-response","59","1049538","0.0-6.0-0.0-5.0-0.17","01d92d17ed0ea9d99d2bac6381808c7ee69318be66dd3daf29c6bf4568786f8d","arctic","arctic","1939","","E8","4","","","","arctic-engagement","","","","","","","","","","","","","","5","enjoyment","",""
"html-keyboard-response","60","1052769","0.0-6.0-1.0","01d92d17ed0ea9d99d2bac6381808c7ee69318be66dd3daf29c6bf4568786f8d","arctic","arctic","2968","","<p>Thank you for your responses. You will now listen to the second story.</p><p>Remember, as you listen to the story you will see letters appear on the screen.</br>As quickly as possible, press <b>&lt;x&gt;</b> if the letter is lowercase and <b>&lt;m&gt;</b> if the letter is uppercase.</p><p>Press <b>&lt;x&gt;</b> or <b>&lt;m&gt;</b> to begin listening!</p>","","88","","","","","","","","","","","","","","","","","","","",""
"html-keyboard-response","61","1053272","0.0-6.0-2.0-0.0","01d92d17ed0ea9d99d2bac6381808c7ee69318be66dd3daf29c6bf4568786f8d","arctic","arctic","null","","<div style=""font-size:60px;"" tabindex=""0"">+</div>","","null","","","","","","","","","","","","","","","","","","","",""
"dual-task","null","null","null","","arctic","arctic","1304","","f","null","88","88","1","swim-dual-task","","f","lowercase","16000","0","4","01d92d17ed0ea9d99d2bac6381808c7ee69318be66dd3daf29c6bf4568786f8d","16007.90000000596","1304","88","1","swim","","","","",""
"dual-task","null","null","null","","arctic","arctic","727.6999999880791","","r","null","88","88","1","swim-dual-task","","r","lowercase","22000","0","4","01d92d17ed0ea9d99d2bac6381808c7ee69318be66dd3daf29c6bf4568786f8d","22008.20000000298","727.6999999880791","88","1","swim","","","","",""
"dual-task","null","null","null","","arctic","arctic","535","","e","null","88","88","1","swim-dual-task","","e","lowercase","36000","0","4","01d92d17ed0ea9d99d2bac6381808c7ee69318be66dd3daf29c6bf4568786f8d","36017.10000000894","535","88","1","swim","","","","",""
"dual-task","null","null","null","","arctic","arctic","686.7000000029802","","r","null","88","88","1","swim-dual-task","","r","lowercase","46000","0","4","01d92d17ed0ea9d99d2bac6381808c7ee69318be66dd3daf29c6bf4568786f8d","46006.79999999702","686.7000000029802","88","1","swim","","","","",""
"dual-task","null","null","null","","arctic","arctic","577.7000000029802","","H","null","77","77","1","swim-dual-task","","H","uppercase","52000","0","4","01d92d17ed0ea9d99d2bac6381808c7ee69318be66dd3daf29c6bf4568786f8d","52007.40000000596","577.7000000029802","77","1","swim","","","","",""
"dual-task","null","null","null","","arctic","arctic","581.5","","d","null","88","88","1","swim-dual-task","","d","lowercase","60000","0","4","01d92d17ed0ea9d99d2bac6381808c7ee69318be66dd3daf29c6bf4568786f8d","60004.70000000298","581.5","88","1","swim","","","","",""
"dual-task","null","null","null","","arctic","arctic","652.1000000089407","","T","null","77","77","1","swim-dual-task","","T","uppercase","70000","0","4","01d92d17ed0ea9d99d2bac6381808c7ee69318be66dd3daf29c6bf4568786f8d","70007.60000000894","652.1000000089407","77","1","swim","","","","",""
"dual-task","null","null","null","","arctic","arctic","568.5","","g","null","88","88","1","swim-dual-task","","g","lowercase","84000","0","4","01d92d17ed0ea9d99d2bac6381808c7ee69318be66dd3daf29c6bf4568786f8d","84017","568.5","88","1","swim","","","","",""
"dual-task","null","null","null","","arctic","arctic","555","","t","null","88","88","1","swim-dual-task","","t","lowercase","90000","0","4","01d92d17ed0ea9d99d2bac6381808c7ee69318be66dd3daf29c6bf4568786f8d","90006.90000000596","555","88","1","swim","","","","",""
"dual-task","null","null","null","","arctic","arctic","607.7999999970198","","A","null","77","77","1","swim-dual-task","","A","uppercase","102000","0","4","01d92d17ed0ea9d99d2bac6381808c7ee69318be66dd3daf29c6bf4568786f8d","102007.40000000596","607.7999999970198","77","1","swim","","","","",""
"dual-task","null","null","null","","arctic","arctic","661.1000000089407","","n","null","88","88","1","swim-dual-task","","n","lowercase","114000","0","4","01d92d17ed0ea9d99d2bac6381808c7ee69318be66dd3daf29c6bf4568786f8d","114007.10000000894","661.1000000089407","88","1","swim","","","","",""
"dual-task","null","null","null","","arctic","arctic","576.1999999880791","","H","null","77","77","1","swim-dual-task","","H","uppercase","122000","0","4","01d92d17ed0ea9d99d2bac6381808c7ee69318be66dd3daf29c6bf4568786f8d","122006.90000000596","576.1999999880791","77","1","swim","","","","",""
"dual-task","null","null","null","","arctic","arctic","481.20000000298023","","t","null","88","88","1","swim-dual-task","","t","lowercase","130000","0","4","01d92d17ed0ea9d99d2bac6381808c7ee69318be66dd3daf29c6bf4568786f8d","130004.40000000596","481.20000000298023","88","1","swim","","","","",""
"dual-task","null","null","null","","arctic","arctic","710.1000000089407","","N","null","77","77","1","swim-dual-task","","N","uppercase","142000","0","4","01d92d17ed0ea9d99d2bac6381808c7ee69318be66dd3daf29c6bf4568786f8d","142007","710.1000000089407","77","1","swim","","","","",""
"dual-task","null","null","null","","arctic","arctic","958.2000000029802","","d","null","88","88","1","swim-dual-task","","d","lowercase","148000","0","4","01d92d17ed0ea9d99d2bac6381808c7ee69318be66dd3daf29c6bf4568786f8d","148017.70000000298","958.2000000029802","88","1","swim","","","","",""
"dual-task","null","null","null","","arctic","arctic","677","","D","null","77","77","1","swim-dual-task","","D","uppercase","158000","0","4","01d92d17ed0ea9d99d2bac6381808c7ee69318be66dd3daf29c6bf4568786f8d","158006.60000000894","677","77","1","swim","","","","",""
"dual-task","null","null","null","","arctic","arctic","548.7999999970198","","G","null","77","77","1","swim-dual-task","","G","uppercase","166000","0","4","01d92d17ed0ea9d99d2bac6381808c7ee69318be66dd3daf29c6bf4568786f8d","166017.29999999702","548.7999999970198","77","1","swim","","","","",""
"dual-task","null","null","null","","arctic","arctic","795.0999999940395","","F","null","77","77","1","swim-dual-task","","F","uppercase","180000","0","4","01d92d17ed0ea9d99d2bac6381808c7ee69318be66dd3daf29c6bf4568786f8d","180007.5","795.0999999940395","77","1","swim","","","","",""
"dual-task","null","null","null","","arctic","arctic","622.6999999880791","","H","null","77","77","1","swim-dual-task","","H","uppercase","192000","0","4","01d92d17ed0ea9d99d2bac6381808c7ee69318be66dd3daf29c6bf4568786f8d","192017.10000000894","622.6999999880791","77","1","swim","","","","",""
"dual-task","null","null","null","","arctic","arctic","905.9000000059605","","F","null","77","77","1","swim-dual-task","","F","uppercase","200000","0","4","01d92d17ed0ea9d99d2bac6381808c7ee69318be66dd3daf29c6bf4568786f8d","200007","905.9000000059605","77","1","swim","","","","",""
"dual-task","null","null","null","","arctic","arctic","706.5999999940395","","T","null","77","77","1","swim-dual-task","","T","uppercase","206000","0","4","01d92d17ed0ea9d99d2bac6381808c7ee69318be66dd3daf29c6bf4568786f8d","206008.29999999702","706.5999999940395","77","1","swim","","","","",""
"dual-task","null","null","null","","arctic","arctic","481","","A","null","77","77","1","swim-dual-task","","A","uppercase","216000","0","4","01d92d17ed0ea9d99d2bac6381808c7ee69318be66dd3daf29c6bf4568786f8d","216008.5","481","77","1","swim","","","","",""
"dual-task","null","null","null","","arctic","arctic","785.5","","E","null","77","77","1","swim-dual-task","","E","uppercase","222000","0","4","01d92d17ed0ea9d99d2bac6381808c7ee69318be66dd3daf29c6bf4568786f8d","222007.40000000596","785.5","77","1","swim","","","","",""
"dual-task","null","null","null","","arctic","arctic","642.2000000029802","","b","null","88","88","1","swim-dual-task","","b","lowercase","232000","0","4","01d92d17ed0ea9d99d2bac6381808c7ee69318be66dd3daf29c6bf4568786f8d","232017.10000000894","642.2000000029802","88","1","swim","","","","",""
"dual-task","null","null","null","","arctic","arctic","750.8000000119209","","f","null","88","88","1","swim-dual-task","","f","lowercase","244000","0","4","01d92d17ed0ea9d99d2bac6381808c7ee69318be66dd3daf29c6bf4568786f8d","244007.29999999702","750.8000000119209","88","1","swim","","","","",""
"dual-task","null","null","null","","arctic","arctic","604.7999999970198","","r","null","88","88","1","swim-dual-task","","r","lowercase","250000","0","4","01d92d17ed0ea9d99d2bac6381808c7ee69318be66dd3daf29c6bf4568786f8d","250007","604.7999999970198","88","1","swim","","","","",""
"dual-task","null","null","null","","arctic","arctic","595.5999999940395","","B","null","77","77","1","swim-dual-task","","B","uppercase","262000","0","4","01d92d17ed0ea9d99d2bac6381808c7ee69318be66dd3daf29c6bf4568786f8d","262007.70000000298","595.5999999940395","77","1","swim","","","","",""
"dual-task","null","null","null","","arctic","arctic","655.5999999940395","","b","null","88","88","1","swim-dual-task","","b","lowercase","272000","0","4","01d92d17ed0ea9d99d2bac6381808c7ee69318be66dd3daf29c6bf4568786f8d","272007.5","655.5999999940395","88","1","swim","","","","",""
"dual-task","null","null","null","","arctic","arctic","823.2999999970198","","D","null","77","77","1","swim-dual-task","","D","uppercase","278000","0","4","01d92d17ed0ea9d99d2bac6381808c7ee69318be66dd3daf29c6bf4568786f8d","278007.90000000596","823.2999999970198","77","1","swim","","","","",""
"dual-task","null","null","null","","arctic","arctic","594.6000000089407","","E","null","77","77","1","swim-dual-task","","E","uppercase","292000","0","4","01d92d17ed0ea9d99d2bac6381808c7ee69318be66dd3daf29c6bf4568786f8d","292008.5","594.6000000089407","77","1","swim","","","","",""
"dual-task","null","null","null","","arctic","arctic","584.9000000059605","","n","null","88","88","1","swim-dual-task","","n","lowercase","304000","0","4","01d92d17ed0ea9d99d2bac6381808c7ee69318be66dd3daf29c6bf4568786f8d","304007.799999997","584.9000000059605","88","1","swim","","","","",""
"dual-task","null","null","null","","arctic","arctic","607.2999999970198","","N","null","77","77","1","swim-dual-task","","N","uppercase","316000","0","4","01d92d17ed0ea9d99d2bac6381808c7ee69318be66dd3daf29c6bf4568786f8d","316017.299999997","607.2999999970198","77","1","swim","","","","",""
"dual-task","null","null","null","","arctic","arctic","669.8999999910593","","n","null","88","88","1","swim-dual-task","","n","lowercase","324000","0","4","01d92d17ed0ea9d99d2bac6381808c7ee69318be66dd3daf29c6bf4568786f8d","324017.40000000596","669.8999999910593","88","1","swim","","","","",""
"dual-task","null","null","null","","arctic","arctic","597.2000000029802","","N","null","77","77","1","swim-dual-task","","N","uppercase","336000","0","4","01d92d17ed0ea9d99d2bac6381808c7ee69318be66dd3daf29c6bf4568786f8d","336017.200000003","597.2000000029802","77","1","swim","","","","",""
"dual-task","null","null","null","","arctic","arctic","1028.7000000029802","","A","null","77","77","1","swim-dual-task","","A","uppercase","346000","0","4","01d92d17ed0ea9d99d2bac6381808c7ee69318be66dd3daf29c6bf4568786f8d","346017.299999997","1028.7000000029802","77","1","swim","","","","",""
"dual-task","null","null","null","","arctic","arctic","1070.7999999970198","","f","null","88","88","1","swim-dual-task","","f","lowercase","360000","0","4","01d92d17ed0ea9d99d2bac6381808c7ee69318be66dd3daf29c6bf4568786f8d","360006.90000000596","1070.7999999970198","88","1","swim","","","","",""
"dual-task","null","null","null","","arctic","arctic","675.4000000059605","","a","null","88","88","1","swim-dual-task","","a","lowercase","368000","0","4","01d92d17ed0ea9d99d2bac6381808c7ee69318be66dd3daf29c6bf4568786f8d","368008.200000003","675.4000000059605","88","1","swim","","","","",""
"dual-task","null","null","null","","arctic","arctic","581.5999999940395","","g","null","88","88","1","swim-dual-task","","g","lowercase","378000","0","4","01d92d17ed0ea9d99d2bac6381808c7ee69318be66dd3daf29c6bf4568786f8d","378007.90000000596","581.5999999940395","88","1","swim","","","","",""
"dual-task","null","null","null","","arctic","arctic","524.2000000029802","","e","null","88","88","1","swim-dual-task","","e","lowercase","386000","0","4","01d92d17ed0ea9d99d2bac6381808c7ee69318be66dd3daf29c6bf4568786f8d","386018.200000003","524.2000000029802","88","1","swim","","","","",""
"dual-task","null","null","null","","arctic","arctic","556.6000000089407","","q","null","88","88","1","swim-dual-task","","q","lowercase","398000","0","4","01d92d17ed0ea9d99d2bac6381808c7ee69318be66dd3daf29c6bf4568786f8d","398017.5","556.6000000089407","88","1","swim","","","","",""
"dual-task","null","null","null","","arctic","arctic","696.4000000059605","","Q","null","77","77","1","swim-dual-task","","Q","uppercase","408000","0","4","01d92d17ed0ea9d99d2bac6381808c7ee69318be66dd3daf29c6bf4568786f8d","408005.299999997","696.4000000059605","77","1","swim","","","","",""
"dual-task","null","null","null","","arctic","arctic","634.6999999880791","","n","null","88","88","1","swim-dual-task","","n","lowercase","418000","0","4","01d92d17ed0ea9d99d2bac6381808c7ee69318be66dd3daf29c6bf4568786f8d","418008.299999997","634.6999999880791","88","1","swim","","","","",""
"dual-task","null","null","null","","arctic","arctic","962","","h","null","88","88","1","swim-dual-task","","h","lowercase","426000","0","4","01d92d17ed0ea9d99d2bac6381808c7ee69318be66dd3daf29c6bf4568786f8d","426017.90000000596","962","88","1","swim","","","","",""
"dual-task","null","null","null","","arctic","arctic","565","","q","null","88","88","1","swim-dual-task","","q","lowercase","432000","0","4","01d92d17ed0ea9d99d2bac6381808c7ee69318be66dd3daf29c6bf4568786f8d","432008.10000000894","565","88","1","swim","","","","",""
"dual-task","null","null","null","","arctic","arctic","616.2000000029802","","B","null","77","77","1","swim-dual-task","","B","uppercase","440000","0","4","01d92d17ed0ea9d99d2bac6381808c7ee69318be66dd3daf29c6bf4568786f8d","440007","616.2000000029802","77","1","swim","","","","",""
"dual-task","null","null","null","","arctic","arctic","598.3000000119209","","G","null","77","77","1","swim-dual-task","","G","uppercase","448000","0","4","01d92d17ed0ea9d99d2bac6381808c7ee69318be66dd3daf29c6bf4568786f8d","448018.299999997","598.3000000119209","77","1","swim","","","","",""
"dual-task","null","null","null","","arctic","arctic","572.7000000029802","","h","null","88","88","1","swim-dual-task","","h","lowercase","458000","0","4","01d92d17ed0ea9d99d2bac6381808c7ee69318be66dd3daf29c6bf4568786f8d","458017","572.7000000029802","88","1","swim","","","","",""
"dual-task","null","null","null","","arctic","arctic","544","","e","null","88","88","1","swim-dual-task","","e","lowercase","472000","0","4","01d92d17ed0ea9d99d2bac6381808c7ee69318be66dd3daf29c6bf4568786f8d","472017.299999997","544","88","1","swim","","","","",""
"dual-task","null","null","null","","arctic","arctic","496.79999999701977","","d","null","88","88","1","swim-dual-task","","d","lowercase","484000","0","4","01d92d17ed0ea9d99d2bac6381808c7ee69318be66dd3daf29c6bf4568786f8d","484007.40000000596","496.79999999701977","88","1","swim","","","","",""
"dual-task","null","null","null","","arctic","arctic","1733.3999999910593","","a","null","88","88","1","swim-dual-task","","a","lowercase","492000","0","4","01d92d17ed0ea9d99d2bac6381808c7ee69318be66dd3daf29c6bf4568786f8d","492007.299999997","1733.3999999910593","88","1","swim","","","","",""
"dual-task","null","null","null","","arctic","arctic","558.2999999970198","","g","null","88","88","1","swim-dual-task","","g","lowercase","502000","0","4","01d92d17ed0ea9d99d2bac6381808c7ee69318be66dd3daf29c6bf4568786f8d","502006.799999997","558.2999999970198","88","1","swim","","","","",""
"dual-task","null","null","null","","arctic","arctic","1666.7000000029802","","h","null","88","88","1","swim-dual-task","","h","lowercase","514000","0","4","01d92d17ed0ea9d99d2bac6381808c7ee69318be66dd3daf29c6bf4568786f8d","514006.90000000596","1666.7000000029802","88","1","swim","","","","",""
"dual-task","null","null","null","","arctic","arctic","NA","","f","null","NA","88","0","swim-dual-task","","f","lowercase","526000","1","4","01d92d17ed0ea9d99d2bac6381808c7ee69318be66dd3daf29c6bf4568786f8d","526017","NA","NA","0","swim","","","","",""
"dual-task","null","null","null","","arctic","arctic","777.8999999910593","","b","null","88","88","1","swim-dual-task","","b","lowercase","538000","0","4","01d92d17ed0ea9d99d2bac6381808c7ee69318be66dd3daf29c6bf4568786f8d","538017","777.8999999910593","88","1","swim","","","","",""
"dual-task","null","null","null","","arctic","arctic","650.3999999910593","","Q","null","77","77","1","swim-dual-task","","Q","uppercase","548000","0","4","01d92d17ed0ea9d99d2bac6381808c7ee69318be66dd3daf29c6bf4568786f8d","548017.700000003","650.3999999910593","77","1","swim","","","","",""
"dual-task","null","null","null","","arctic","arctic","535.2000000029802","","d","null","88","88","1","swim-dual-task","","d","lowercase","560000","0","4","01d92d17ed0ea9d99d2bac6381808c7ee69318be66dd3daf29c6bf4568786f8d","560017.299999997","535.2000000029802","88","1","swim","","","","",""
"dual-task","null","null","null","","arctic","arctic","564.5","","R","null","77","77","1","swim-dual-task","","R","uppercase","570000","0","4","01d92d17ed0ea9d99d2bac6381808c7ee69318be66dd3daf29c6bf4568786f8d","570017.400000006","564.5","77","1","swim","","","","",""
"dual-task","null","null","null","","arctic","arctic","683.2999999970198","","N","null","77","77","1","swim-dual-task","","N","uppercase","576000","0","4","01d92d17ed0ea9d99d2bac6381808c7ee69318be66dd3daf29c6bf4568786f8d","576017.299999997","683.2999999970198","77","1","swim","","","","",""
"dual-task","null","null","null","","arctic","arctic","469.5","","E","null","77","77","1","swim-dual-task","","E","uppercase","584000","0","4","01d92d17ed0ea9d99d2bac6381808c7ee69318be66dd3daf29c6bf4568786f8d","584007.5","469.5","77","1","swim","","","","",""
"dual-task","null","null","null","","arctic","arctic","729","","r","null","88","88","1","swim-dual-task","","r","lowercase","596000","0","4","01d92d17ed0ea9d99d2bac6381808c7ee69318be66dd3daf29c6bf4568786f8d","596017.400000006","729","88","1","swim","","","","",""
"dual-task","null","null","null","","arctic","arctic","571.2000000029802","","H","null","77","77","1","swim-dual-task","","H","uppercase","608000","0","4","01d92d17ed0ea9d99d2bac6381808c7ee69318be66dd3daf29c6bf4568786f8d","608007.700000003","571.2000000029802","77","1","swim","","","","",""
"dual-task","null","null","null","","arctic","arctic","569.2999999970198","","R","null","77","77","1","swim-dual-task","","R","uppercase","618000","0","4","01d92d17ed0ea9d99d2bac6381808c7ee69318be66dd3daf29c6bf4568786f8d","618008.1000000089","569.2999999970198","77","1","swim","","","","",""
"dual-task","null","null","null","","arctic","arctic","1483.5999999940395","","T","null","77","77","1","swim-dual-task","","T","uppercase","626000","0","4","01d92d17ed0ea9d99d2bac6381808c7ee69318be66dd3daf29c6bf4568786f8d","626016.900000006","1483.5999999940395","77","1","swim","","","","",""
"dual-task","null","null","null","","arctic","arctic","711.7000000029802","","B","null","77","77","1","swim-dual-task","","B","uppercase","638000","0","4","01d92d17ed0ea9d99d2bac6381808c7ee69318be66dd3daf29c6bf4568786f8d","638017.6000000089","711.7000000029802","77","1","swim","","","","",""
"dual-task","null","null","null","","arctic","arctic","509","","q","null","88","88","1","swim-dual-task","","q","lowercase","644000","0","4","01d92d17ed0ea9d99d2bac6381808c7ee69318be66dd3daf29c6bf4568786f8d","644017.6000000089","509","88","1","swim","","","","",""
"dual-task","null","null","null","","arctic","arctic","653.5","","F","null","77","77","1","swim-dual-task","","F","uppercase","658000","0","4","01d92d17ed0ea9d99d2bac6381808c7ee69318be66dd3daf29c6bf4568786f8d","658017.799999997","653.5","77","1","swim","","","","",""
"dual-task","null","null","null","","arctic","arctic","584.5999999940395","","R","null","77","77","1","swim-dual-task","","R","uppercase","668000","0","4","01d92d17ed0ea9d99d2bac6381808c7ee69318be66dd3daf29c6bf4568786f8d","668017.700000003","584.5999999940395","77","1","swim","","","","",""
"dual-task","null","null","null","","arctic","arctic","578.3999999910593","","G","null","77","77","1","swim-dual-task","","G","uppercase","678000","0","4","01d92d17ed0ea9d99d2bac6381808c7ee69318be66dd3daf29c6bf4568786f8d","678017.5","578.3999999910593","77","1","swim","","","","",""
"dual-task","null","null","null","","arctic","arctic","584.7999999970198","","Q","null","77","77","1","swim-dual-task","","Q","uppercase","686000","0","4","01d92d17ed0ea9d99d2bac6381808c7ee69318be66dd3daf29c6bf4568786f8d","686007.200000003","584.7999999970198","77","1","swim","","","","",""
"dual-task","null","null","null","","arctic","arctic","500.70000000298023","","G","null","77","77","1","swim-dual-task","","G","uppercase","698000","0","4","01d92d17ed0ea9d99d2bac6381808c7ee69318be66dd3daf29c6bf4568786f8d","698017.400000006","500.70000000298023","77","1","swim","","","","",""
"dual-task","null","null","null","","arctic","arctic","621.5","","E","null","77","77","1","swim-dual-task","","E","uppercase","706000","0","4","01d92d17ed0ea9d99d2bac6381808c7ee69318be66dd3daf29c6bf4568786f8d","706007.299999997","621.5","77","1","swim","","","","",""
"dual-task","null","null","null","","arctic","arctic","522","","Q","null","77","77","1","swim-dual-task","","Q","uppercase","714000","0","4","01d92d17ed0ea9d99d2bac6381808c7ee69318be66dd3daf29c6bf4568786f8d","714018.799999997","522","77","1","swim","","","","",""
"dual-task","null","null","null","","arctic","arctic","694.3000000119209","","F","null","77","77","1","swim-dual-task","","F","uppercase","728000","0","4","01d92d17ed0ea9d99d2bac6381808c7ee69318be66dd3daf29c6bf4568786f8d","728017.6000000089","694.3000000119209","77","1","swim","","","","",""
"dual-task","null","null","null","","arctic","arctic","838.2000000029802","","D","null","77","77","1","swim-dual-task","","D","uppercase","738000","0","4","01d92d17ed0ea9d99d2bac6381808c7ee69318be66dd3daf29c6bf4568786f8d","738007.6000000089","838.2000000029802","77","1","swim","","","","",""
"dual-task","null","null","null","","arctic","arctic","1497.5","","a","null","88","88","1","swim-dual-task","","a","lowercase","750000","0","4","01d92d17ed0ea9d99d2bac6381808c7ee69318be66dd3daf29c6bf4568786f8d","750017.6000000089","1497.5","88","1","swim","","","","",""
"dual-task","null","null","null","","arctic","arctic","746.7000000029802","","h","null","88","88","1","swim-dual-task","","h","lowercase","758000","0","4","01d92d17ed0ea9d99d2bac6381808c7ee69318be66dd3daf29c6bf4568786f8d","758007.400000006","746.7000000029802","88","1","swim","","","","",""
"dual-task","null","null","null","","arctic","arctic","563","","q","null","88","88","1","swim-dual-task","","q","lowercase","764000","0","4","01d92d17ed0ea9d99d2bac6381808c7ee69318be66dd3daf29c6bf4568786f8d","764017.5","563","88","1","swim","","","","",""
"dual-task","null","null","null","","arctic","arctic","547.5","","e","null","88","88","1","swim-dual-task","","e","lowercase","774000","0","4","01d92d17ed0ea9d99d2bac6381808c7ee69318be66dd3daf29c6bf4568786f8d","774017.6000000089","547.5","88","1","swim","","","","",""
"dual-task","null","null","null","","arctic","arctic","1174.9000000059605","","D","null","77","77","1","swim-dual-task","","D","uppercase","780000","0","4","01d92d17ed0ea9d99d2bac6381808c7ee69318be66dd3daf29c6bf4568786f8d","780007.400000006","1174.9000000059605","77","1","swim","","","","",""
"dual-task","null","null","null","","arctic","arctic","1150","","t","null","88","88","1","swim-dual-task","","t","lowercase","786000","0","4","01d92d17ed0ea9d99d2bac6381808c7ee69318be66dd3daf29c6bf4568786f8d","786017.700000003","1150","88","1","swim","","","","",""
"dual-task","null","null","null","","arctic","arctic","708.7000000029802","","R","null","77","77","1","swim-dual-task","","R","uppercase","796000","0","4","01d92d17ed0ea9d99d2bac6381808c7ee69318be66dd3daf29c6bf4568786f8d","796007.700000003","708.7000000029802","77","1","swim","","","","",""
"audio-keyboard-response","62","1863609","0.0-6.0-2.0-1.0","01d92d17ed0ea9d99d2bac6381808c7ee69318be66dd3daf29c6bf4568786f8d","arctic","arctic","null","","audio/story_swim.mp3","","null","","","","","","","","","","","","","","","","","","","",""
"html-button-response","63","1865881","0.0-6.0-2.0-2.0","01d92d17ed0ea9d99d2bac6381808c7ee69318be66dd3daf29c6bf4568786f8d","arctic","arctic","2268","","<p>This concludes the story. Thank you for listening.</p><p>You will now answer some questions about the content of the story.</p>","0","","","","","","","","","","","","","","","","","","","","",""
"survey-multi-choice","64","1869911","0.0-6.0-2.0-3.0-0.0","01d92d17ed0ea9d99d2bac6381808c7ee69318be66dd3daf29c6bf4568786f8d","arctic","arctic","4020","","<b>How many astronaut candidates reported for duty at the Johnson Space Center?</b>","","","","1","swim-comprehension","","","","","","","","","","","","","{""Q0"":""Forty-four""}","","","",""
"survey-multi-choice","65","1878488","0.0-6.0-2.0-3.0-0.1","01d92d17ed0ea9d99d2bac6381808c7ee69318be66dd3daf29c6bf4568786f8d","arctic","arctic","8314","","<b>How often does the narrator swim, now that he is a good swimmer?</b>","","","","1","swim-comprehension","","","","","","","","","","","","","{""Q0"":""Never swam again in his life""}","","","",""
"survey-multi-choice","66","1891090","0.0-6.0-2.0-3.0-0.2","01d92d17ed0ea9d99d2bac6381808c7ee69318be66dd3daf29c6bf4568786f8d","arctic","arctic","12341","","<b>Where is the home of naval aviation?</b>","","","","1","swim-comprehension","","","","","","","","","","","","","{""Q0"":""Pensacola""}","","","",""
"survey-multi-choice","67","1897960","0.0-6.0-2.0-3.0-0.3","01d92d17ed0ea9d99d2bac6381808c7ee69318be66dd3daf29c6bf4568786f8d","arctic","arctic","6594","","<b>How many astronaut candidates passed the first swim test?</b>","","","","1","swim-comprehension","","","","","","","","","","","","","{""Q0"":""All of them""}","","","",""
"survey-multi-choice","68","1903144","0.0-6.0-2.0-3.0-0.4","01d92d17ed0ea9d99d2bac6381808c7ee69318be66dd3daf29c6bf4568786f8d","arctic","arctic","4925","","<b>What is the narrator afraid of, aside from the water?</b>","","","","1","swim-comprehension","","","","","","","","","","","","","{""Q0"":""Heights""}","","","",""
"survey-multi-choice","69","1915244","0.0-6.0-2.0-3.0-0.5","01d92d17ed0ea9d99d2bac6381808c7ee69318be66dd3daf29c6bf4568786f8d","arctic","arctic","11841","","<b>What were the astronaut candidates trained to do at the naval air station?</b>","","","","1","swim-comprehension","","","","","","","","","","","","","{""Q0"":""Eject out of aircraft and survive in water long enough to be rescued""}","","","",""
"survey-multi-choice","70","1921818","0.0-6.0-2.0-3.0-0.6","01d92d17ed0ea9d99d2bac6381808c7ee69318be66dd3daf29c6bf4568786f8d","arctic","arctic","6313","","<b>What was the final step of the first swim test in the pool?</b>","","","","1","swim-comprehension","","","","","","","","","","","","","{""Q0"":""Tread water with hands above the water""}","","","",""
"survey-multi-choice","71","1927679","0.0-6.0-2.0-3.0-0.7","01d92d17ed0ea9d99d2bac6381808c7ee69318be66dd3daf29c6bf4568786f8d","arctic","arctic","5607","","<b>How did the narrator train for his swim test?</b>","","","","1","swim-comprehension","","","","","","","","","","","","","{""Q0"":""Took his kids to the pool every day""}","","","",""
"survey-multi-choice","72","1935687","0.0-6.0-2.0-3.0-0.8","01d92d17ed0ea9d99d2bac6381808c7ee69318be66dd3daf29c6bf4568786f8d","arctic","arctic","7752","","<b>What gave the narrator his greatest feeling of accomplishment?</b>","","","","1","swim-comprehension","","","","","","","","","","","","","{""Q0"":""Passing the water survival course""}","","","",""
"survey-multi-choice","73","1942305","0.0-6.0-2.0-3.0-0.9","01d92d17ed0ea9d99d2bac6381808c7ee69318be66dd3daf29c6bf4568786f8d","arctic","arctic","6362","","<b>How many times did the astronaut candidates have to complete the final exercise to pass?</b>","","","","1","swim-comprehension","","","","","","","","","","","","","{""Q0"":""Two""}","","","",""
"html-button-response","74","1944169","0.0-6.0-2.0-4.0","01d92d17ed0ea9d99d2bac6381808c7ee69318be66dd3daf29c6bf4568786f8d","arctic","arctic","1611","","<p>Thank you for your responses.</p><p>You will now answer some questions about your impressions of the story.</p>","0","","","","","","","","","","","","","","","","","","","","",""
"html-button-response","75","1946197","0.0-6.0-2.0-5.0-0.0","01d92d17ed0ea9d99d2bac6381808c7ee69318be66dd3daf29c6bf4568786f8d","arctic","arctic","2025","","A3","5","","","","swim-engagement","","","","","","","","","","","","","","6","absorption","",""
"html-button-response","76","1947815","0.0-6.0-2.0-5.0-0.1","01d92d17ed0ea9d99d2bac6381808c7ee69318be66dd3daf29c6bf4568786f8d","arctic","arctic","1362","","E7","5","","","","swim-engagement","","","","","","","","","","","","","","6","enjoyment","",""
"html-button-response","77","1949560","0.0-6.0-2.0-5.0-0.2","01d92d17ed0ea9d99d2bac6381808c7ee69318be66dd3daf29c6bf4568786f8d","arctic","arctic","1491","","EE4","5","","","","swim-engagement","","","","","","","","","","","","","","6","emo-engage","",""
"html-button-response","78","1951027","0.0-6.0-2.0-5.0-0.3","01d92d17ed0ea9d99d2bac6381808c7ee69318be66dd3daf29c6bf4568786f8d","arctic","arctic","1214","","EE3","5","","","","swim-engagement","","","","","","","","","","","","","","6","emo-engage","",""
"html-button-response","79","1952589","0.0-6.0-2.0-5.0-0.4","01d92d17ed0ea9d99d2bac6381808c7ee69318be66dd3daf29c6bf4568786f8d","arctic","arctic","1309","","EE2","5","","","","swim-engagement","","","","","","","","","","","","","","6","emo-engage","",""
"html-button-response","80","1956559","0.0-6.0-2.0-5.0-0.5","01d92d17ed0ea9d99d2bac6381808c7ee69318be66dd3daf29c6bf4568786f8d","arctic","arctic","3716","","A5","2","","","","swim-engagement","","","","","","","","","","","","","","3","absorption","",""
"html-button-response","81","1958768","0.0-6.0-2.0-5.0-0.6","01d92d17ed0ea9d99d2bac6381808c7ee69318be66dd3daf29c6bf4568786f8d","arctic","arctic","1956","","A4","2","","","","swim-engagement","","","","","","","","","","","","","","3","absorption","",""
"html-button-response","82","1961961","0.0-6.0-2.0-5.0-0.7","01d92d17ed0ea9d99d2bac6381808c7ee69318be66dd3daf29c6bf4568786f8d","arctic","arctic","2939","","A1","3","","","","swim-engagement","","","","","","","","","","","","","","4","absorption","",""
"html-button-response","83","1965859","0.0-6.0-2.0-5.0-0.8","01d92d17ed0ea9d99d2bac6381808c7ee69318be66dd3daf29c6bf4568786f8d","arctic","arctic","3643","","A2","5","","","","swim-engagement","","","","","","","","","","","","","","6","absorption","",""
"html-button-response","84","1969188","0.0-6.0-2.0-5.0-0.9","01d92d17ed0ea9d99d2bac6381808c7ee69318be66dd3daf29c6bf4568786f8d","arctic","arctic","3074","","MS1","6","","","","swim-engagement","","","","","","","","","","","","","","7","mental-sim","",""
"html-button-response","85","1971314","0.0-6.0-2.0-5.0-0.10","01d92d17ed0ea9d99d2bac6381808c7ee69318be66dd3daf29c6bf4568786f8d","arctic","arctic","1871","","E1","5","","","","swim-engagement","","","","","","","","","","","","","","6","enjoyment","",""
"html-button-response","86","1972789","0.0-6.0-2.0-5.0-0.11","01d92d17ed0ea9d99d2bac6381808c7ee69318be66dd3daf29c6bf4568786f8d","arctic","arctic","1222","","EE5","5","","","","swim-engagement","","","","","","","","","","","","","","6","emo-engage","",""
"html-button-response","87","1974649","0.0-6.0-2.0-5.0-0.12","01d92d17ed0ea9d99d2bac6381808c7ee69318be66dd3daf29c6bf4568786f8d","arctic","arctic","1606","","E6","5","","","","swim-engagement","","","","","","","","","","","","","","6","enjoyment","",""
"html-button-response","88","1976349","0.0-6.0-2.0-5.0-0.13","01d92d17ed0ea9d99d2bac6381808c7ee69318be66dd3daf29c6bf4568786f8d","arctic","arctic","1445","","MS3","5","","","","swim-engagement","","","","","","","","","","","","","","6","mental-sim","",""
"html-button-response","89","1978376","0.0-6.0-2.0-5.0-0.14","01d92d17ed0ea9d99d2bac6381808c7ee69318be66dd3daf29c6bf4568786f8d","arctic","arctic","1773","","EE1","5","","","","swim-engagement","","","","","","","","","","","","","","6","emo-engage","",""
"html-button-response","90","1981207","0.0-6.0-2.0-5.0-0.15","01d92d17ed0ea9d99d2bac6381808c7ee69318be66dd3daf29c6bf4568786f8d","arctic","arctic","2578","","E8","4","","","","swim-engagement","","","","","","","","","","","","","","5","enjoyment","",""
"html-button-response","91","1984236","0.0-6.0-2.0-5.0-0.16","01d92d17ed0ea9d99d2bac6381808c7ee69318be66dd3daf29c6bf4568786f8d","arctic","arctic","2774","","MS2","5","","","","swim-engagement","","","","","","","","","","","","","","6","mental-sim","",""
"html-button-response","92","1985993","0.0-6.0-2.0-5.0-0.17","01d92d17ed0ea9d99d2bac6381808c7ee69318be66dd3daf29c6bf4568786f8d","arctic","arctic","1503","","E10","5","","","","swim-engagement","","","","","","","","","","","","","","6","enjoyment","",""
"html-button-response","93","1988190","0.0-8.0","01d92d17ed0ea9d99d2bac6381808c7ee69318be66dd3daf29c6bf4568786f8d","arctic","arctic","1942","","<p>Thank you for your responses.</p><p>You will now answer some demographic, hearing, and general health questions.</p>","0","","","","","","","","","","","","","","","","","","","","",""
"survey-multi-choice","94","1991692","0.0-9.0-0.0","01d92d17ed0ea9d99d2bac6381808c7ee69318be66dd3daf29c6bf4568786f8d","arctic","arctic","3495","","","","","","","survey","","","","","","","","","","","","","{""Q0"":""Chrome""}","","","browser",""
"survey-text","95","1995436","0.0-9.0-1.0","01d92d17ed0ea9d99d2bac6381808c7ee69318be66dd3daf29c6bf4568786f8d","arctic","arctic","3483.6000000089407","","","","","","","survey","","","","","","","","","","","","","{""AGE"":""28""}","","","age","28"
"survey-multi-choice","96","1998676","0.0-9.0-2.0","01d92d17ed0ea9d99d2bac6381808c7ee69318be66dd3daf29c6bf4568786f8d","arctic","arctic","2982","","","","","","","survey","","","","","","","","","","","","","{""Q0"":""Male""}","","","gender","Male"
"survey-multi-choice","97","2001768","0.0-9.0-4.0","01d92d17ed0ea9d99d2bac6381808c7ee69318be66dd3daf29c6bf4568786f8d","arctic","arctic","2836","","","","","","","survey","","","","","","","","","","","","","{""Q0"":""Right""}","","","handedness","Right"
"survey-multi-choice","98","2005434","0.0-9.0-5.0","01d92d17ed0ea9d99d2bac6381808c7ee69318be66dd3daf29c6bf4568786f8d","arctic","arctic","3402","","","","","","","survey","","","","","","","","","","","","","{""Q0"":""Some university undergraduate schooling""}","","","education","Some university undergraduate schooling"
"survey-text","99","2009939","0.0-10.0-0.0","01d92d17ed0ea9d99d2bac6381808c7ee69318be66dd3daf29c6bf4568786f8d","arctic","arctic","4246.9000000059605","","","","","","","survey","","","","","","","","","","","","","{""L1"":""english""}","","","first-language","english"
"survey-text","100","2013951","0.0-10.0-1.0","01d92d17ed0ea9d99d2bac6381808c7ee69318be66dd3daf29c6bf4568786f8d","arctic","arctic","3732.9000000059605","","","","","","","survey","","","","","","","","","","","","","{""L2name"":"""",""L2fluency"":"""",""L3name"":"""",""L3fluency"":"""",""L4name"":"""",""L4fluency"":""""}","","","additional-languages","{""L2name"":"""",""L2fluency"":"""",""L3name"":"""",""L3fluency"":"""",""L4name"":"""",""L4fluency"":""""}"
"survey-multi-choice","101","2020383","0.0-10.0-2.0","01d92d17ed0ea9d99d2bac6381808c7ee69318be66dd3daf29c6bf4568786f8d","arctic","arctic","6177","","","","","","","survey","","","","","","","","","","","","","{""Q0"":""No""}","","","hearing-aid","No"
"survey-multi-choice","102","2023723","0.0-10.0-3.0","01d92d17ed0ea9d99d2bac6381808c7ee69318be66dd3daf29c6bf4568786f8d","arctic","arctic","3085","","","","","","","survey","","","","","","","","","","","","","{""Q0"":""Never""}","","","ringing-ears","Never"
"survey-multi-choice","103","2027149","0.0-10.0-5.0","01d92d17ed0ea9d99d2bac6381808c7ee69318be66dd3daf29c6bf4568786f8d","arctic","arctic","3170","","","","","","","survey","","","","","","","","","","","","","{""Q0"":""No""}","","","neuro-disease","No"
"survey-multi-choice","104","2031288","0.0-10.0-7.0","01d92d17ed0ea9d99d2bac6381808c7ee69318be66dd3daf29c6bf4568786f8d","arctic","arctic","3883","","","","","","","survey","","","","","","","","","","","","","{""Q0"":""No""}","","","take-meds","No"
"survey-text","105","2033942","0.0-10.0-9.0","01d92d17ed0ea9d99d2bac6381808c7ee69318be66dd3daf29c6bf4568786f8d","arctic","arctic","2374.7999999970198","","","","","","","survey","","","","","","","","","","","","","{""HC"":""""}","","","health-concerns",""
"html-button-response","106","2037228","0.0-11.0-0.0","01d92d17ed0ea9d99d2bac6381808c7ee69318be66dd3daf29c6bf4568786f8d","arctic","arctic","3031","","<p>How would you describe your musical skills/experiences?</p>","2","","","","survey","","","","","","","","","","","","","","","","music-skill","3"
"survey-multi-choice","107","2040914","0.0-11.0-1.0","01d92d17ed0ea9d99d2bac6381808c7ee69318be66dd3daf29c6bf4568786f8d","arctic","arctic","3430","","","","","","","survey","","","","","","","","","","","","","{""Q0"":""Yes""}","","","music-instrument","Yes"
"survey-text","108","2044275","0.0-11.0-2.0-0.0","01d92d17ed0ea9d99d2bac6381808c7ee69318be66dd3daf29c6bf4568786f8d","arctic","arctic","3103.7000000029802","","","","","","","survey","","","","","","","","","","","","","{""MEXP"":""3""}","","","music-training-yrs","3"
"html-button-response","109","2047349","0.0-12.0-0.0","01d92d17ed0ea9d99d2bac6381808c7ee69318be66dd3daf29c6bf4568786f8d","arctic","arctic","2819","","<p>How would you describe your general hearing abilities?</p>","5","","","","survey","","","","","","","","","","","","","","","","ssq-01","6"
"html-button-response","110","2051478","0.0-12.0-1.0","01d92d17ed0ea9d99d2bac6381808c7ee69318be66dd3daf29c6bf4568786f8d","arctic","arctic","3874","","<p>When you talk with someone at a place that strongly reverberates/echoes (e.g., in a church or train station),</br>can you understand what the person says?</p>","10","","","","survey","","","","","","","","","","","","","","","","ssq-02","10"
"html-button-response","111","2054206","0.0-12.0-2.0","01d92d17ed0ea9d99d2bac6381808c7ee69318be66dd3daf29c6bf4568786f8d","arctic","arctic","2472","","<p>When you are with a group (~5 people) in a lively restaurant, can you follow the group's conversation?</p>","10","","","","survey","","","","","","","","","","","","","","","","ssq-03","10"
"html-button-response","112","2057296","0.0-12.0-3.0","01d92d17ed0ea9d99d2bac6381808c7ee69318be66dd3daf29c6bf4568786f8d","arctic","arctic","2836","","<p>Based on the sound of a bus or truck, can you tell whether it is moving towards or away from you?</p>","10","","","","survey","","","","","","","","","","","","","","","","ssq-04","10"
"html-button-response","113","2060799","0.0-12.0-4.0","01d92d17ed0ea9d99d2bac6381808c7ee69318be66dd3daf29c6bf4568786f8d","arctic","arctic","3249","","<p>When you are in an unknown environment, can you tell from which direction a brief sound originates?</p>","9","","","","survey","","","","","","","","","","","","","","","","ssq-05","9"
"html-button-response","114","2066801","0.0-12.0-5.0","01d92d17ed0ea9d99d2bac6381808c7ee69318be66dd3daf29c6bf4568786f8d","arctic","arctic","5747","","<p>Are you able to ignore distracting sounds when you concentrate on a specific aspect of your acoustic surrounding?</p>","8","","","","survey","","","","","","","","","","","","","","","","ssq-06","8"
"fullscreen","115","2068054","0.0-13.0","01d92d17ed0ea9d99d2bac6381808c7ee69318be66dd3daf29c6bf4568786f8d","arctic","arctic","","","","","","","","","true","","","","","","","","","","","","","","","",""
