"trial_type","trial_index","time_elapsed","internal_node_id","ParticipantID","firstStory","scramStory","rt","url","stimulus","button_pressed","key_press","correctRESP","correct","designation","success","letterStim","letterType","ONSET","TIMEOUT","CONDITION","Participant","ONSET_ACTUAL","RT","RESP","ACC","STORY","responses","response","type","surveyQuestion","QRESP"
"pavlovia","0","3","0.0-0.0","af28a1e239ad0acb3d4ea59bf0cdf84322054da41c9a34fde638612556a4bd94","arctic","swim","","","","","","","","","","","","","","","","","","","","","","","","",""
"external-html","1","21858","0.0-1.0","af28a1e239ad0acb3d4ea59bf0cdf84322054da41c9a34fde638612556a4bd94","arctic","swim","21658","consent/consent_updated.html","","","","","","","","","","","","","","","","","","","","","","",""
"html-button-response","2","2878824","0.0-2.0-0.0","af28a1e239ad0acb3d4ea59bf0cdf84322054da41c9a34fde638612556a4bd94","arctic","swim","2856961","","<p>Before we begin the main task, you will complete a short volume calibration and headphone check.</p><p>Please make sure you are in a quiet listening environment, that you are wearing headphones, and that your computer's volume is turned on.<p></p>","0","","","","","","","","","","","","","","","","","","","","",""
"html-button-response","3","2882345","0.0-2.0-1.0","af28a1e239ad0acb3d4ea59bf0cdf84322054da41c9a34fde638612556a4bd94","arctic","swim","3263","","<p>The volume calibration will be first.</p><p>You will hear a thirty-second noise. Please adjust your computer's volume so that this noise is being presented at a comfortable level.<p></p>","0","","","","","","","","","","","","","","","","","","","","",""
"audio-button-response","4","2884871","0.0-2.0-2.0","af28a1e239ad0acb3d4ea59bf0cdf84322054da41c9a34fde638612556a4bd94","arctic","swim","2219","","audio/volumetest.mp3","0","","","","","","","","","","","","","","","","","","","","",""
"html-keyboard-response","5","2891974","0.0-3.0-0.0","af28a1e239ad0acb3d4ea59bf0cdf84322054da41c9a34fde638612556a4bd94","arctic","swim","7070","","<p>You will now complete a short headphone check.</p><p>On each trial, you will hear three tones. One of these tones will be quieter than the others. Your task is to identify whether the quiet tone occurred first, second, or third.</p><p>There are six trials in total.<p></p><p></p>(Press SPACEBAR to begin)","","32","","","","","","","","","","","","","","","","","","","",""
"html-keyboard-response","6","2892796","0.0-3.0-1.0-0.0","af28a1e239ad0acb3d4ea59bf0cdf84322054da41c9a34fde638612556a4bd94","arctic","swim","null","","<div style=""font-size:60px;"">+</div>","","null","","","","","","","","","","","","","","","","","","","",""
"audio-button-response","7","2897715","0.0-3.0-1.0-1.0","af28a1e239ad0acb3d4ea59bf0cdf84322054da41c9a34fde638612556a4bd94","arctic","swim","4904","","audio/t2_1.mp3","1","","1","1","headphone-test","","","","","","","","","","","","","","","","",""
"html-keyboard-response","8","2898234","0.0-3.0-1.0-2.0","af28a1e239ad0acb3d4ea59bf0cdf84322054da41c9a34fde638612556a4bd94","arctic","swim","null","","<p>Correct</p>","","null","","","","","","","","","","","","","","","","","","","",""
"html-keyboard-response","9","2898741","0.0-3.0-1.0-0.1","af28a1e239ad0acb3d4ea59bf0cdf84322054da41c9a34fde638612556a4bd94","arctic","swim","null","","<div style=""font-size:60px;"">+</div>","","null","","","","","","","","","","","","","","","","","","","",""
"audio-button-response","10","2903404","0.0-3.0-1.0-1.1","af28a1e239ad0acb3d4ea59bf0cdf84322054da41c9a34fde638612556a4bd94","arctic","swim","4661","","audio/t2_2.mp3","1","","1","1","headphone-test","","","","","","","","","","","","","","","","",""
"html-keyboard-response","11","2903926","0.0-3.0-1.0-2.1","af28a1e239ad0acb3d4ea59bf0cdf84322054da41c9a34fde638612556a4bd94","arctic","swim","null","","<p>Correct</p>","","null","","","","","","","","","","","","","","","","","","","",""
"html-keyboard-response","12","2904432","0.0-3.0-1.0-0.2","af28a1e239ad0acb3d4ea59bf0cdf84322054da41c9a34fde638612556a4bd94","arctic","swim","null","","<div style=""font-size:60px;"">+</div>","","null","","","","","","","","","","","","","","","","","","","",""
"audio-button-response","13","2908852","0.0-3.0-1.0-1.2","af28a1e239ad0acb3d4ea59bf0cdf84322054da41c9a34fde638612556a4bd94","arctic","swim","4412","","audio/t3_1.mp3","2","","2","1","headphone-test","","","","","","","","","","","","","","","","",""
"html-keyboard-response","14","2909365","0.0-3.0-1.0-2.2","af28a1e239ad0acb3d4ea59bf0cdf84322054da41c9a34fde638612556a4bd94","arctic","swim","null","","<p>Correct</p>","","null","","","","","","","","","","","","","","","","","","","",""
"html-keyboard-response","15","2909866","0.0-3.0-1.0-0.3","af28a1e239ad0acb3d4ea59bf0cdf84322054da41c9a34fde638612556a4bd94","arctic","swim","null","","<div style=""font-size:60px;"">+</div>","","null","","","","","","","","","","","","","","","","","","","",""
"audio-button-response","16","2914408","0.0-3.0-1.0-1.3","af28a1e239ad0acb3d4ea59bf0cdf84322054da41c9a34fde638612556a4bd94","arctic","swim","4539","","audio/t3_2.mp3","2","","2","1","headphone-test","","","","","","","","","","","","","","","","",""
"html-keyboard-response","17","2914910","0.0-3.0-1.0-2.3","af28a1e239ad0acb3d4ea59bf0cdf84322054da41c9a34fde638612556a4bd94","arctic","swim","null","","<p>Correct</p>","","null","","","","","","","","","","","","","","","","","","","",""
"html-keyboard-response","18","2915416","0.0-3.0-1.0-0.4","af28a1e239ad0acb3d4ea59bf0cdf84322054da41c9a34fde638612556a4bd94","arctic","swim","null","","<div style=""font-size:60px;"">+</div>","","null","","","","","","","","","","","","","","","","","","","",""
"audio-button-response","19","2919879","0.0-3.0-1.0-1.4","af28a1e239ad0acb3d4ea59bf0cdf84322054da41c9a34fde638612556a4bd94","arctic","swim","4460","","audio/t1_1.mp3","0","","0","1","headphone-test","","","","","","","","","","","","","","","","",""
"html-keyboard-response","20","2920396","0.0-3.0-1.0-2.4","af28a1e239ad0acb3d4ea59bf0cdf84322054da41c9a34fde638612556a4bd94","arctic","swim","null","","<p>Correct</p>","","null","","","","","","","","","","","","","","","","","","","",""
"html-keyboard-response","21","2920906","0.0-3.0-1.0-0.5","af28a1e239ad0acb3d4ea59bf0cdf84322054da41c9a34fde638612556a4bd94","arctic","swim","null","","<div style=""font-size:60px;"">+</div>","","null","","","","","","","","","","","","","","","","","","","",""
"audio-button-response","22","2925694","0.0-3.0-1.0-1.5","af28a1e239ad0acb3d4ea59bf0cdf84322054da41c9a34fde638612556a4bd94","arctic","swim","4786","","audio/t1_2.mp3","0","","0","1","headphone-test","","","","","","","","","","","","","","","","",""
"html-keyboard-response","23","2926195","0.0-3.0-1.0-2.5","af28a1e239ad0acb3d4ea59bf0cdf84322054da41c9a34fde638612556a4bd94","arctic","swim","null","","<p>Correct</p>","","null","","","","","","","","","","","","","","","","","","","",""
"fullscreen","24","2932715","0.0-4.0","af28a1e239ad0acb3d4ea59bf0cdf84322054da41c9a34fde638612556a4bd94","arctic","swim","","","","","","","","","true","","","","","","","","","","","","","","","",""
"html-button-response","25","3024306","0.0-5.0-0.0","af28a1e239ad0acb3d4ea59bf0cdf84322054da41c9a34fde638612556a4bd94","arctic","swim","91590","","<p>There are two blocks to this experiment.</p><p>In each block, you will hear a ~13.5 minute story. One of the stories will be scrambled. Please listen carefully to both stories and understand them as best you can.</p><p>After each story, you will be asked some questions to assess your comprehension.</p>","0","","","","","","","","","","","","","","","","","","","","",""
"html-button-response","26","3038804","0.0-5.0-1.0","af28a1e239ad0acb3d4ea59bf0cdf84322054da41c9a34fde638612556a4bd94","arctic","swim","14497","","<p>During each story, there will be an additional task.</p><p>A letter will occasionally appear on the screen.</br>Your job is to - as quickly as you can - decide whether the letter is lowercase or uppercase and press one of two keys on the keyboard:</p><p>If the letter is <b>lowercase</b>, press key &lt;<b>x</b>&gt;.</p><p>If the letter is <b>uppercase</b>, press key &lt;<b>m</b>&gt;.</p>","0","","","","","","","","","","","","","","","","","","","","",""
"html-keyboard-response","27","3043144","0.0-5.0-2.0","af28a1e239ad0acb3d4ea59bf0cdf84322054da41c9a34fde638612556a4bd94","arctic","swim","4339","","<p>Because we want your responses to be as quick as possible, please keep your index fingers over the keys while listening.</p><p>Each block lasts about 20 minutes.</p><p><b>Press &lt;x&gt; or &lt;m&gt; to start the first block!</b></p>","","88","","","","","","","","","","","","","","","","","","","",""
"html-keyboard-response","28","3043648","0.0-6.0-0.0-0.0","af28a1e239ad0acb3d4ea59bf0cdf84322054da41c9a34fde638612556a4bd94","arctic","swim","null","","<div style=""font-size:60px;"" tabindex=""0"">+</div>","","null","","","","","","","","","","","","","","","","","","","",""
"dual-task","null","null","null","","arctic","swim","NA","","r","null","NA","88","0","arctic-dual-task","","r","lowercase","10000","1","1","af28a1e239ad0acb3d4ea59bf0cdf84322054da41c9a34fde638612556a4bd94","10015.90000000596","NA","NA","0","arctic","","","","",""
"dual-task","null","null","null","","arctic","swim","1719.9000000059605","","A","null","88","77","0","arctic-dual-task","","A","uppercase","24000","0","1","af28a1e239ad0acb3d4ea59bf0cdf84322054da41c9a34fde638612556a4bd94","24008.90000000596","1719.9000000059605","88","0","arctic","","","","",""
"dual-task","null","null","null","","arctic","swim","1233.2999999970198","","R","null","88","77","0","arctic-dual-task","","R","uppercase","34000","0","1","af28a1e239ad0acb3d4ea59bf0cdf84322054da41c9a34fde638612556a4bd94","34003.90000000596","1233.2999999970198","88","0","arctic","","","","",""
"dual-task","null","null","null","","arctic","swim","1047.199999988079","","N","null","88","77","0","arctic-dual-task","","N","uppercase","44000","0","1","af28a1e239ad0acb3d4ea59bf0cdf84322054da41c9a34fde638612556a4bd94","44003.29999999702","1047.199999988079","88","0","arctic","","","","",""
"dual-task","null","null","null","","arctic","swim","1448.5","","d","null","77","88","0","arctic-dual-task","","d","lowercase","56000","0","1","af28a1e239ad0acb3d4ea59bf0cdf84322054da41c9a34fde638612556a4bd94","56015","1448.5","77","0","arctic","","","","",""
"dual-task","null","null","null","","arctic","swim","NA","","n","null","NA","88","0","arctic-dual-task","","n","lowercase","64000","1","1","af28a1e239ad0acb3d4ea59bf0cdf84322054da41c9a34fde638612556a4bd94","64010.5","NA","NA","0","arctic","","","","",""
"dual-task","null","null","null","","arctic","swim","1710.1000000089407","","F","null","88","77","0","arctic-dual-task","","F","uppercase","76000","0","1","af28a1e239ad0acb3d4ea59bf0cdf84322054da41c9a34fde638612556a4bd94","76011.20000000298","1710.1000000089407","88","0","arctic","","","","",""
"dual-task","null","null","null","","arctic","swim","1615.2999999970198","","B","null","88","77","0","arctic-dual-task","","B","uppercase","86000","0","1","af28a1e239ad0acb3d4ea59bf0cdf84322054da41c9a34fde638612556a4bd94","86010.20000000298","1615.2999999970198","88","0","arctic","","","","",""
"dual-task","null","null","null","","arctic","swim","NA","","D","null","NA","77","0","arctic-dual-task","","D","uppercase","100000","1","1","af28a1e239ad0acb3d4ea59bf0cdf84322054da41c9a34fde638612556a4bd94","100011","NA","NA","0","arctic","","","","",""
"dual-task","null","null","null","","arctic","swim","1549.7000000029802","","E","null","88","77","0","arctic-dual-task","","E","uppercase","110000","0","1","af28a1e239ad0acb3d4ea59bf0cdf84322054da41c9a34fde638612556a4bd94","109999.20000000298","1549.7000000029802","88","0","arctic","","","","",""
"dual-task","null","null","null","","arctic","swim","1246","","Q","null","88","77","0","arctic-dual-task","","Q","uppercase","122000","0","1","af28a1e239ad0acb3d4ea59bf0cdf84322054da41c9a34fde638612556a4bd94","121998.09999999404","1246","88","0","arctic","","","","",""
"dual-task","null","null","null","","arctic","swim","1294.5999999940395","","G","null","88","77","0","arctic-dual-task","","G","uppercase","128000","0","1","af28a1e239ad0acb3d4ea59bf0cdf84322054da41c9a34fde638612556a4bd94","127997.5","1294.5999999940395","88","0","arctic","","","","",""
"dual-task","null","null","null","","arctic","swim","1264.7999999970198","","d","null","77","88","0","arctic-dual-task","","d","lowercase","140000","0","1","af28a1e239ad0acb3d4ea59bf0cdf84322054da41c9a34fde638612556a4bd94","139998.70000000298","1264.7999999970198","77","0","arctic","","","","",""
"dual-task","null","null","null","","arctic","swim","1253","","B","null","88","77","0","arctic-dual-task","","B","uppercase","152000","0","1","af28a1e239ad0acb3d4ea59bf0cdf84322054da41c9a34fde638612556a4bd94","152004","1253","88","0","arctic","","","","",""
"dual-task","null","null","null","","arctic","swim","1119.4000000059605","","h","null","77","88","0","arctic-dual-task","","h","lowercase","160000","0","1","af28a1e239ad0acb3d4ea59bf0cdf84322054da41c9a34fde638612556a4bd94","159998.29999999702","1119.4000000059605","77","0","arctic","","","","",""
"dual-task","null","null","null","","arctic","swim","1073.2000000029802","","H","null","88","77","0","arctic-dual-task","","H","uppercase","172000","0","1","af28a1e239ad0acb3d4ea59bf0cdf84322054da41c9a34fde638612556a4bd94","172004.90000000596","1073.2000000029802","88","0","arctic","","","","",""
"dual-task","null","null","null","","arctic","swim","916.9000000059605","","E","null","88","77","0","arctic-dual-task","","E","uppercase","180000","0","1","af28a1e239ad0acb3d4ea59bf0cdf84322054da41c9a34fde638612556a4bd94","179998.79999999702","916.9000000059605","88","0","arctic","","","","",""
"dual-task","null","null","null","","arctic","swim","1182.2000000029802","","n","null","77","88","0","arctic-dual-task","","n","lowercase","188000","0","1","af28a1e239ad0acb3d4ea59bf0cdf84322054da41c9a34fde638612556a4bd94","187998","1182.2000000029802","77","0","arctic","","","","",""
"dual-task","null","null","null","","arctic","swim","1516","","q","null","77","88","0","arctic-dual-task","","q","lowercase","196000","0","1","af28a1e239ad0acb3d4ea59bf0cdf84322054da41c9a34fde638612556a4bd94","196008","1516","77","0","arctic","","","","",""
"dual-task","null","null","null","","arctic","swim","1179.1000000089407","","N","null","88","77","0","arctic-dual-task","","N","uppercase","208000","0","1","af28a1e239ad0acb3d4ea59bf0cdf84322054da41c9a34fde638612556a4bd94","208009.29999999702","1179.1000000089407","88","0","arctic","","","","",""
"dual-task","null","null","null","","arctic","swim","1199.300000011921","","g","null","77","88","0","arctic-dual-task","","g","lowercase","218000","0","1","af28a1e239ad0acb3d4ea59bf0cdf84322054da41c9a34fde638612556a4bd94","217999","1199.300000011921","77","0","arctic","","","","",""
"dual-task","null","null","null","","arctic","swim","1162.2000000029802","","d","null","77","88","0","arctic-dual-task","","d","lowercase","228000","0","1","af28a1e239ad0acb3d4ea59bf0cdf84322054da41c9a34fde638612556a4bd94","227998.59999999404","1162.2000000029802","77","0","arctic","","","","",""
"dual-task","null","null","null","","arctic","swim","1514.7000000029802","","F","null","88","77","0","arctic-dual-task","","F","uppercase","242000","0","1","af28a1e239ad0acb3d4ea59bf0cdf84322054da41c9a34fde638612556a4bd94","242005.90000000596","1514.7000000029802","88","0","arctic","","","","",""
"dual-task","null","null","null","","arctic","swim","443.79999999701977","","f","null","77","88","0","arctic-dual-task","","f","lowercase","254000","0","1","af28a1e239ad0acb3d4ea59bf0cdf84322054da41c9a34fde638612556a4bd94","254004","443.79999999701977","77","0","arctic","","","","",""
"dual-task","null","null","null","","arctic","swim","1040.7000000029802","","G","null","88","77","0","arctic-dual-task","","G","uppercase","260000","0","1","af28a1e239ad0acb3d4ea59bf0cdf84322054da41c9a34fde638612556a4bd94","260003.70000000298","1040.7000000029802","88","0","arctic","","","","",""
"dual-task","null","null","null","","arctic","swim","471.90000000596046","","G","null","88","77","0","arctic-dual-task","","G","uppercase","270000","0","1","af28a1e239ad0acb3d4ea59bf0cdf84322054da41c9a34fde638612556a4bd94","269999.09999999404","471.90000000596046","88","0","arctic","","","","",""
"dual-task","null","null","null","","arctic","swim","651.4000000059605","","F","null","77","77","1","arctic-dual-task","","F","uppercase","282000","0","1","af28a1e239ad0acb3d4ea59bf0cdf84322054da41c9a34fde638612556a4bd94","282009.299999997","651.4000000059605","77","1","arctic","","","","",""
"dual-task","null","null","null","","arctic","swim","1301.5","","r","null","77","88","0","arctic-dual-task","","r","lowercase","290000","0","1","af28a1e239ad0acb3d4ea59bf0cdf84322054da41c9a34fde638612556a4bd94","290003.700000003","1301.5","77","0","arctic","","","","",""
"dual-task","null","null","null","","arctic","swim","559.9000000059605","","e","null","88","88","1","arctic-dual-task","","e","lowercase","300000","0","1","af28a1e239ad0acb3d4ea59bf0cdf84322054da41c9a34fde638612556a4bd94","300012","559.9000000059605","88","1","arctic","","","","",""
"dual-task","null","null","null","","arctic","swim","754.5","","F","null","88","77","0","arctic-dual-task","","F","uppercase","312000","0","1","af28a1e239ad0acb3d4ea59bf0cdf84322054da41c9a34fde638612556a4bd94","312015.299999997","754.5","88","0","arctic","","","","",""
"dual-task","null","null","null","","arctic","swim","753.7999999970198","","q","null","77","88","0","arctic-dual-task","","q","lowercase","320000","0","1","af28a1e239ad0acb3d4ea59bf0cdf84322054da41c9a34fde638612556a4bd94","320004.200000003","753.7999999970198","77","0","arctic","","","","",""
"dual-task","null","null","null","","arctic","swim","884.2000000029802","","q","null","77","88","0","arctic-dual-task","","q","lowercase","332000","0","1","af28a1e239ad0acb3d4ea59bf0cdf84322054da41c9a34fde638612556a4bd94","332006.200000003","884.2000000029802","77","0","arctic","","","","",""
"dual-task","null","null","null","","arctic","swim","823.7999999970198","","e","null","77","88","0","arctic-dual-task","","e","lowercase","340000","0","1","af28a1e239ad0acb3d4ea59bf0cdf84322054da41c9a34fde638612556a4bd94","340007.299999997","823.7999999970198","77","0","arctic","","","","",""
"dual-task","null","null","null","","arctic","swim","1053.2999999970198","","t","null","88","88","1","arctic-dual-task","","t","lowercase","352000","0","1","af28a1e239ad0acb3d4ea59bf0cdf84322054da41c9a34fde638612556a4bd94","351999.200000003","1053.2999999970198","88","1","arctic","","","","",""
"dual-task","null","null","null","","arctic","swim","1353.0999999940395","","r","null","77","88","0","arctic-dual-task","","r","lowercase","360000","0","1","af28a1e239ad0acb3d4ea59bf0cdf84322054da41c9a34fde638612556a4bd94","360006.299999997","1353.0999999940395","77","0","arctic","","","","",""
"dual-task","null","null","null","","arctic","swim","833.5","","R","null","88","77","0","arctic-dual-task","","R","uppercase","368000","0","1","af28a1e239ad0acb3d4ea59bf0cdf84322054da41c9a34fde638612556a4bd94","368014.59999999404","833.5","88","0","arctic","","","","",""
"dual-task","null","null","null","","arctic","swim","768.2999999970198","","H","null","88","77","0","arctic-dual-task","","H","uppercase","382000","0","1","af28a1e239ad0acb3d4ea59bf0cdf84322054da41c9a34fde638612556a4bd94","382000.5","768.2999999970198","88","0","arctic","","","","",""
"dual-task","null","null","null","","arctic","swim","572.3000000119209","","f","null","77","88","0","arctic-dual-task","","f","lowercase","396000","0","1","af28a1e239ad0acb3d4ea59bf0cdf84322054da41c9a34fde638612556a4bd94","396008.59999999404","572.3000000119209","77","0","arctic","","","","",""
"dual-task","null","null","null","","arctic","swim","824.0999999940395","","N","null","88","77","0","arctic-dual-task","","N","uppercase","406000","0","1","af28a1e239ad0acb3d4ea59bf0cdf84322054da41c9a34fde638612556a4bd94","406015.299999997","824.0999999940395","88","0","arctic","","","","",""
"dual-task","null","null","null","","arctic","swim","670.5999999940395","","Q","null","88","77","0","arctic-dual-task","","Q","uppercase","414000","0","1","af28a1e239ad0acb3d4ea59bf0cdf84322054da41c9a34fde638612556a4bd94","414006","670.5999999940395","88","0","arctic","","","","",""
"dual-task","null","null","null","","arctic","swim","NA","","t","null","NA","88","0","arctic-dual-task","","t","lowercase","422000","1","1","af28a1e239ad0acb3d4ea59bf0cdf84322054da41c9a34fde638612556a4bd94","422006","NA","NA","0","arctic","","","","",""
"dual-task","null","null","null","","arctic","swim","1079.2000000029802","","a","null","77","88","0","arctic-dual-task","","a","lowercase","432000","0","1","af28a1e239ad0acb3d4ea59bf0cdf84322054da41c9a34fde638612556a4bd94","432000.40000000596","1079.2000000029802","77","0","arctic","","","","",""
"dual-task","null","null","null","","arctic","swim","1341.2999999970198","","g","null","88","88","1","arctic-dual-task","","g","lowercase","440000","0","1","af28a1e239ad0acb3d4ea59bf0cdf84322054da41c9a34fde638612556a4bd94","440003.40000000596","1341.2999999970198","88","1","arctic","","","","",""
"dual-task","null","null","null","","arctic","swim","1046","","h","null","77","88","0","arctic-dual-task","","h","lowercase","454000","0","1","af28a1e239ad0acb3d4ea59bf0cdf84322054da41c9a34fde638612556a4bd94","453999.59999999404","1046","77","0","arctic","","","","",""
"dual-task","null","null","null","","arctic","swim","592.5999999940395","","G","null","88","77","0","arctic-dual-task","","G","uppercase","462000","0","1","af28a1e239ad0acb3d4ea59bf0cdf84322054da41c9a34fde638612556a4bd94","462013.700000003","592.5999999940395","88","0","arctic","","","","",""
"dual-task","null","null","null","","arctic","swim","859.2999999970198","","h","null","77","88","0","arctic-dual-task","","h","lowercase","472000","0","1","af28a1e239ad0acb3d4ea59bf0cdf84322054da41c9a34fde638612556a4bd94","472015.299999997","859.2999999970198","77","0","arctic","","","","",""
"dual-task","null","null","null","","arctic","swim","1065.1000000089407","","t","null","77","88","0","arctic-dual-task","","t","lowercase","480000","0","1","af28a1e239ad0acb3d4ea59bf0cdf84322054da41c9a34fde638612556a4bd94","480010.59999999404","1065.1000000089407","77","0","arctic","","","","",""
"dual-task","null","null","null","","arctic","swim","1221.1000000089407","","n","null","77","88","0","arctic-dual-task","","n","lowercase","486000","0","1","af28a1e239ad0acb3d4ea59bf0cdf84322054da41c9a34fde638612556a4bd94","486003.200000003","1221.1000000089407","77","0","arctic","","","","",""
"dual-task","null","null","null","","arctic","swim","903.5","","A","null","88","77","0","arctic-dual-task","","A","uppercase","496000","0","1","af28a1e239ad0acb3d4ea59bf0cdf84322054da41c9a34fde638612556a4bd94","496006.09999999404","903.5","88","0","arctic","","","","",""
"dual-task","null","null","null","","arctic","swim","666.3999999910593","","H","null","88","77","0","arctic-dual-task","","H","uppercase","508000","0","1","af28a1e239ad0acb3d4ea59bf0cdf84322054da41c9a34fde638612556a4bd94","508009.09999999404","666.3999999910593","88","0","arctic","","","","",""
"dual-task","null","null","null","","arctic","swim","1153.2000000029802","","D","null","88","77","0","arctic-dual-task","","D","uppercase","514000","0","1","af28a1e239ad0acb3d4ea59bf0cdf84322054da41c9a34fde638612556a4bd94","514013.5","1153.2000000029802","88","0","arctic","","","","",""
"dual-task","null","null","null","","arctic","swim","956.5999999940395","","N","null","88","77","0","arctic-dual-task","","N","uppercase","520000","0","1","af28a1e239ad0acb3d4ea59bf0cdf84322054da41c9a34fde638612556a4bd94","520004.200000003","956.5999999940395","88","0","arctic","","","","",""
"dual-task","null","null","null","","arctic","swim","1379.7999999970198","","q","null","77","88","0","arctic-dual-task","","q","lowercase","530000","0","1","af28a1e239ad0acb3d4ea59bf0cdf84322054da41c9a34fde638612556a4bd94","530010.5","1379.7999999970198","77","0","arctic","","","","",""
"dual-task","null","null","null","","arctic","swim","NA","","g","null","NA","88","0","arctic-dual-task","","g","lowercase","542000","1","1","af28a1e239ad0acb3d4ea59bf0cdf84322054da41c9a34fde638612556a4bd94","542010.200000003","NA","NA","0","arctic","","","","",""
"dual-task","null","null","null","","arctic","swim","1500","","b","null","77","88","0","arctic-dual-task","","b","lowercase","554000","0","1","af28a1e239ad0acb3d4ea59bf0cdf84322054da41c9a34fde638612556a4bd94","554000.799999997","1500","77","0","arctic","","","","",""
"dual-task","null","null","null","","arctic","swim","1222.8999999910593","","n","null","77","88","0","arctic-dual-task","","n","lowercase","562000","0","1","af28a1e239ad0acb3d4ea59bf0cdf84322054da41c9a34fde638612556a4bd94","562005.900000006","1222.8999999910593","77","0","arctic","","","","",""
"dual-task","null","null","null","","arctic","swim","NA","","b","null","NA","88","0","arctic-dual-task","","b","lowercase","570000","1","1","af28a1e239ad0acb3d4ea59bf0cdf84322054da41c9a34fde638612556a4bd94","570000.799999997","NA","NA","0","arctic","","","","",""
"dual-task","null","null","null","","arctic","swim","840.3999999910593","","g","null","77","88","0","arctic-dual-task","","g","lowercase","578000","0","1","af28a1e239ad0acb3d4ea59bf0cdf84322054da41c9a34fde638612556a4bd94","578004.799999997","840.3999999910593","77","0","arctic","","","","",""
"dual-task","null","null","null","","arctic","swim","798.8999999910593","","e","null","77","88","0","arctic-dual-task","","e","lowercase","586000","0","1","af28a1e239ad0acb3d4ea59bf0cdf84322054da41c9a34fde638612556a4bd94","586002.400000006","798.8999999910593","77","0","arctic","","","","",""
"dual-task","null","null","null","","arctic","swim","1757.2000000029802","","A","null","88","77","0","arctic-dual-task","","A","uppercase","594000","0","1","af28a1e239ad0acb3d4ea59bf0cdf84322054da41c9a34fde638612556a4bd94","594009.900000006","1757.2000000029802","88","0","arctic","","","","",""
"dual-task","null","null","null","","arctic","swim","1985.2000000029802","","h","null","77","88","0","arctic-dual-task","","h","lowercase","608000","0","1","af28a1e239ad0acb3d4ea59bf0cdf84322054da41c9a34fde638612556a4bd94","608000.099999994","1985.2000000029802","77","0","arctic","","","","",""
"dual-task","null","null","null","","arctic","swim","752.6000000089407","","E","null","88","77","0","arctic-dual-task","","E","uppercase","618000","0","1","af28a1e239ad0acb3d4ea59bf0cdf84322054da41c9a34fde638612556a4bd94","618013.799999997","752.6000000089407","88","0","arctic","","","","",""
"dual-task","null","null","null","","arctic","swim","1646.9000000059605","","B","null","88","77","0","arctic-dual-task","","B","uppercase","626000","0","1","af28a1e239ad0acb3d4ea59bf0cdf84322054da41c9a34fde638612556a4bd94","626003.200000003","1646.9000000059605","88","0","arctic","","","","",""
"dual-task","null","null","null","","arctic","swim","575.7000000029802","","R","null","88","77","0","arctic-dual-task","","R","uppercase","638000","0","1","af28a1e239ad0acb3d4ea59bf0cdf84322054da41c9a34fde638612556a4bd94","638013.900000006","575.7000000029802","88","0","arctic","","","","",""
"dual-task","null","null","null","","arctic","swim","NA","","a","null","NA","88","0","arctic-dual-task","","a","lowercase","646000","1","1","af28a1e239ad0acb3d4ea59bf0cdf84322054da41c9a34fde638612556a4bd94","646000.900000006","NA","NA","0","arctic","","","","",""
"dual-task","null","null","null","","arctic","swim","1036.8999999910593","","a","null","77","88","0","arctic-dual-task","","a","lowercase","658000","0","1","af28a1e239ad0acb3d4ea59bf0cdf84322054da41c9a34fde638612556a4bd94","658014.900000006","1036.8999999910593","77","0","arctic","","","","",""
"dual-task","null","null","null","","arctic","swim","717.7999999970198","","b","null","77","88","0","arctic-dual-task","","b","lowercase","670000","0","1","af28a1e239ad0acb3d4ea59bf0cdf84322054da41c9a34fde638612556a4bd94","670001.599999994","717.7999999970198","77","0","arctic","","","","",""
"dual-task","null","null","null","","arctic","swim","765.5","","Q","null","88","77","0","arctic-dual-task","","Q","uppercase","680000","0","1","af28a1e239ad0acb3d4ea59bf0cdf84322054da41c9a34fde638612556a4bd94","680000.5","765.5","88","0","arctic","","","","",""
"dual-task","null","null","null","","arctic","swim","746.2000000029802","","D","null","88","77","0","arctic-dual-task","","D","uppercase","688000","0","1","af28a1e239ad0acb3d4ea59bf0cdf84322054da41c9a34fde638612556a4bd94","688009.400000006","746.2000000029802","88","0","arctic","","","","",""
"dual-task","null","null","null","","arctic","swim","1799.2999999970198","","r","null","77","88","0","arctic-dual-task","","r","lowercase","702000","0","1","af28a1e239ad0acb3d4ea59bf0cdf84322054da41c9a34fde638612556a4bd94","702004.200000003","1799.2999999970198","77","0","arctic","","","","",""
"dual-task","null","null","null","","arctic","swim","675.4000000059605","","A","null","88","77","0","arctic-dual-task","","A","uppercase","716000","0","1","af28a1e239ad0acb3d4ea59bf0cdf84322054da41c9a34fde638612556a4bd94","716000.900000006","675.4000000059605","88","0","arctic","","","","",""
"dual-task","null","null","null","","arctic","swim","904.3999999910593","","E","null","88","77","0","arctic-dual-task","","E","uppercase","724000","0","1","af28a1e239ad0acb3d4ea59bf0cdf84322054da41c9a34fde638612556a4bd94","724000.400000006","904.3999999910593","88","0","arctic","","","","",""
"dual-task","null","null","null","","arctic","swim","1051.7000000029802","","a","null","77","88","0","arctic-dual-task","","a","lowercase","734000","0","1","af28a1e239ad0acb3d4ea59bf0cdf84322054da41c9a34fde638612556a4bd94","734000.299999997","1051.7000000029802","77","0","arctic","","","","",""
"dual-task","null","null","null","","arctic","swim","970.7999999970198","","D","null","88","77","0","arctic-dual-task","","D","uppercase","744000","0","1","af28a1e239ad0acb3d4ea59bf0cdf84322054da41c9a34fde638612556a4bd94","744014.200000003","970.7999999970198","88","0","arctic","","","","",""
"dual-task","null","null","null","","arctic","swim","893.5","","T","null","88","77","0","arctic-dual-task","","T","uppercase","754000","0","1","af28a1e239ad0acb3d4ea59bf0cdf84322054da41c9a34fde638612556a4bd94","754006.200000003","893.5","88","0","arctic","","","","",""
"dual-task","null","null","null","","arctic","swim","609.1000000089407","","H","null","88","77","0","arctic-dual-task","","H","uppercase","766000","0","1","af28a1e239ad0acb3d4ea59bf0cdf84322054da41c9a34fde638612556a4bd94","766004.200000003","609.1000000089407","88","0","arctic","","","","",""
"dual-task","null","null","null","","arctic","swim","1939.6000000089407","","f","null","77","88","0","arctic-dual-task","","f","lowercase","778000","0","1","af28a1e239ad0acb3d4ea59bf0cdf84322054da41c9a34fde638612556a4bd94","778000.400000006","1939.6000000089407","77","0","arctic","","","","",""
"dual-task","null","null","null","","arctic","swim","957","","f","null","77","88","0","arctic-dual-task","","f","lowercase","788000","0","1","af28a1e239ad0acb3d4ea59bf0cdf84322054da41c9a34fde638612556a4bd94","788014.900000006","957","77","0","arctic","","","","",""
"audio-keyboard-response","29","3841809","0.0-6.0-0.0-1.0","af28a1e239ad0acb3d4ea59bf0cdf84322054da41c9a34fde638612556a4bd94","arctic","swim","null","","audio/story_arctic.mp3","","null","","","","","","","","","","","","","","","","","","","",""
"html-button-response","30","3844282","0.0-6.0-0.0-2.0","af28a1e239ad0acb3d4ea59bf0cdf84322054da41c9a34fde638612556a4bd94","arctic","swim","2472","","<p>This concludes the story. Thank you for listening.</p><p>You will now answer some questions about the content of the story.</p>","0","","","","","","","","","","","","","","","","","","","","",""
"survey-multi-choice","31","3849872","0.0-6.0-0.0-3.0-0.0","af28a1e239ad0acb3d4ea59bf0cdf84322054da41c9a34fde638612556a4bd94","arctic","swim","5561","","<b>What was the objective of the narrator&#39;s expedition?</b>","","","","1","arctic-comprehension","","","","","","","","","","","","","{""Q0"":""Dogsled across Arctic America""}","","","",""
"survey-multi-choice","32","3855784","0.0-6.0-0.0-3.0-0.1","af28a1e239ad0acb3d4ea59bf0cdf84322054da41c9a34fde638612556a4bd94","arctic","swim","5649","","<b>How did the narrator prepare for her expedition?</b>","","","","1","arctic-comprehension","","","","","","","","","","","","","{""Q0"":""Trained in Alaska learning how to dogsled""}","","","",""
"survey-multi-choice","33","3861651","0.0-6.0-0.0-3.0-0.2","af28a1e239ad0acb3d4ea59bf0cdf84322054da41c9a34fde638612556a4bd94","arctic","swim","5600","","<b>Which dog on the narrator&#39;s dog team never followed instructions?</b>","","","","0","arctic-comprehension","","","","","","","","","","","","","{""Q0"":""Douggie-dog""}","","","",""
"survey-multi-choice","34","3873460","0.0-6.0-0.0-3.0-0.3","af28a1e239ad0acb3d4ea59bf0cdf84322054da41c9a34fde638612556a4bd94","arctic","swim","11546","","<b>What were the weather conditions in the Arctic like the winter of the narrator&#39;s expedition?</b>","","","","0","arctic-comprehension","","","","","","","","","","","","","{""Q0"":""It was the coldest winter in recorded history.""}","","","",""
"survey-multi-choice","35","3878065","0.0-6.0-0.0-3.0-0.4","af28a1e239ad0acb3d4ea59bf0cdf84322054da41c9a34fde638612556a4bd94","arctic","swim","4345","","<b>What is the name of the narrator&#39;s neighbour?</b>","","","","1","arctic-comprehension","","","","","","","","","","","","","{""Q0"":""Dave""}","","","",""
"survey-multi-choice","36","3883933","0.0-6.0-0.0-3.0-0.5","af28a1e239ad0acb3d4ea59bf0cdf84322054da41c9a34fde638612556a4bd94","arctic","swim","5612","","<b>How did the narrator&#39;s neighbour respond when she told him about her expedition?</b>","","","","1","arctic-comprehension","","","","","","","","","","","","","{""Q0"":""He said she was going to fail.""}","","","",""
"survey-multi-choice","37","3889692","0.0-6.0-0.0-3.0-0.6","af28a1e239ad0acb3d4ea59bf0cdf84322054da41c9a34fde638612556a4bd94","arctic","swim","5501","","<b>How did the dogs respond when they saw the bears?</b>","","","","0","arctic-comprehension","","","","","","","","","","","","","{""Q0"":""Barked aggressively""}","","","",""
"survey-multi-choice","38","3902065","0.0-6.0-0.0-3.0-0.7","af28a1e239ad0acb3d4ea59bf0cdf84322054da41c9a34fde638612556a4bd94","arctic","swim","12116","","<b>What did the narrator do for leisure while in her tent?</b>","","","","1","arctic-comprehension","","","","","","","","","","","","","{""Q0"":""Read""}","","","",""
"survey-multi-choice","39","3908023","0.0-6.0-0.0-3.0-0.8","af28a1e239ad0acb3d4ea59bf0cdf84322054da41c9a34fde638612556a4bd94","arctic","swim","5691","","<b>How did the narrator&#39;s encounter with the polar bears end?</b>","","","","1","arctic-comprehension","","","","","","","","","","","","","{""Q0"":""The bears walked back to their den.""}","","","",""
"survey-multi-choice","40","3912833","0.0-6.0-0.0-3.0-0.9","af28a1e239ad0acb3d4ea59bf0cdf84322054da41c9a34fde638612556a4bd94","arctic","swim","4554","","<b>How many sponsorships did the narrator receive to support her expedition?</b>","","","","1","arctic-comprehension","","","","","","","","","","","","","{""Q0"":""None""}","","","",""
"html-button-response","41","3914709","0.0-6.0-0.0-4.0","af28a1e239ad0acb3d4ea59bf0cdf84322054da41c9a34fde638612556a4bd94","arctic","swim","1619","","<p>Thank you for your responses.</p><p>You will now answer some questions about your impressions of the story.</p>","0","","","","","","","","","","","","","","","","","","","","",""
"html-button-response","42","3917192","0.0-6.0-0.0-5.0-0.0","af28a1e239ad0acb3d4ea59bf0cdf84322054da41c9a34fde638612556a4bd94","arctic","swim","2481","","EE2","5","","","","arctic-engagement","","","","","","","","","","","","","","6","emo-engage","",""
"html-button-response","43","3919310","0.0-6.0-0.0-5.0-0.1","af28a1e239ad0acb3d4ea59bf0cdf84322054da41c9a34fde638612556a4bd94","arctic","swim","1864","","E7","6","","","","arctic-engagement","","","","","","","","","","","","","","7","enjoyment","",""
"html-button-response","44","3920665","0.0-6.0-0.0-5.0-0.2","af28a1e239ad0acb3d4ea59bf0cdf84322054da41c9a34fde638612556a4bd94","arctic","swim","1103","","EE3","5","","","","arctic-engagement","","","","","","","","","","","","","","6","emo-engage","",""
"html-button-response","45","3922009","0.0-6.0-0.0-5.0-0.3","af28a1e239ad0acb3d4ea59bf0cdf84322054da41c9a34fde638612556a4bd94","arctic","swim","1089","","E6","5","","","","arctic-engagement","","","","","","","","","","","","","","6","enjoyment","",""
"html-button-response","46","3922874","0.0-6.0-0.0-5.0-0.4","af28a1e239ad0acb3d4ea59bf0cdf84322054da41c9a34fde638612556a4bd94","arctic","swim","611","","A1","5","","","","arctic-engagement","","","","","","","","","","","","","","6","absorption","",""
"html-button-response","47","3924881","0.0-6.0-0.0-5.0-0.5","af28a1e239ad0acb3d4ea59bf0cdf84322054da41c9a34fde638612556a4bd94","arctic","swim","1753","","EE4","6","","","","arctic-engagement","","","","","","","","","","","","","","7","emo-engage","",""
"html-button-response","48","3926528","0.0-6.0-0.0-5.0-0.6","af28a1e239ad0acb3d4ea59bf0cdf84322054da41c9a34fde638612556a4bd94","arctic","swim","1395","","A3","5","","","","arctic-engagement","","","","","","","","","","","","","","6","absorption","",""
"html-button-response","49","3928301","0.0-6.0-0.0-5.0-0.7","af28a1e239ad0acb3d4ea59bf0cdf84322054da41c9a34fde638612556a4bd94","arctic","swim","1519","","MS3","5","","","","arctic-engagement","","","","","","","","","","","","","","6","mental-sim","",""
"html-button-response","50","3929911","0.0-6.0-0.0-5.0-0.8","af28a1e239ad0acb3d4ea59bf0cdf84322054da41c9a34fde638612556a4bd94","arctic","swim","1354","","A4","5","","","","arctic-engagement","","","","","","","","","","","","","","6","absorption","",""
"html-button-response","51","3931822","0.0-6.0-0.0-5.0-0.9","af28a1e239ad0acb3d4ea59bf0cdf84322054da41c9a34fde638612556a4bd94","arctic","swim","1657","","E10","6","","","","arctic-engagement","","","","","","","","","","","","","","7","enjoyment","",""
"html-button-response","52","3933346","0.0-6.0-0.0-5.0-0.10","af28a1e239ad0acb3d4ea59bf0cdf84322054da41c9a34fde638612556a4bd94","arctic","swim","1271","","E1","6","","","","arctic-engagement","","","","","","","","","","","","","","7","enjoyment","",""
"html-button-response","53","3937077","0.0-6.0-0.0-5.0-0.11","af28a1e239ad0acb3d4ea59bf0cdf84322054da41c9a34fde638612556a4bd94","arctic","swim","3476","","EE1","6","","","","arctic-engagement","","","","","","","","","","","","","","7","emo-engage","",""
"html-button-response","54","3940109","0.0-6.0-0.0-5.0-0.12","af28a1e239ad0acb3d4ea59bf0cdf84322054da41c9a34fde638612556a4bd94","arctic","swim","2776","","MS2","6","","","","arctic-engagement","","","","","","","","","","","","","","7","mental-sim","",""
"html-button-response","55","3942847","0.0-6.0-0.0-5.0-0.13","af28a1e239ad0acb3d4ea59bf0cdf84322054da41c9a34fde638612556a4bd94","arctic","swim","2485","","A2","6","","","","arctic-engagement","","","","","","","","","","","","","","7","absorption","",""
"html-button-response","56","3945354","0.0-6.0-0.0-5.0-0.14","af28a1e239ad0acb3d4ea59bf0cdf84322054da41c9a34fde638612556a4bd94","arctic","swim","2250","","E8","5","","","","arctic-engagement","","","","","","","","","","","","","","6","enjoyment","",""
"html-button-response","57","3947027","0.0-6.0-0.0-5.0-0.15","af28a1e239ad0acb3d4ea59bf0cdf84322054da41c9a34fde638612556a4bd94","arctic","swim","1418","","EE5","5","","","","arctic-engagement","","","","","","","","","","","","","","6","emo-engage","",""
"html-button-response","58","3949262","0.0-6.0-0.0-5.0-0.16","af28a1e239ad0acb3d4ea59bf0cdf84322054da41c9a34fde638612556a4bd94","arctic","swim","1981","","MS1","5","","","","arctic-engagement","","","","","","","","","","","","","","6","mental-sim","",""
"html-button-response","59","3952580","0.0-6.0-0.0-5.0-0.17","af28a1e239ad0acb3d4ea59bf0cdf84322054da41c9a34fde638612556a4bd94","arctic","swim","3065","","A5","4","","","","arctic-engagement","","","","","","","","","","","","","","5","absorption","",""
"html-keyboard-response","60","3963440","0.0-6.0-1.0","af28a1e239ad0acb3d4ea59bf0cdf84322054da41c9a34fde638612556a4bd94","arctic","swim","10607","","<p>Thank you for your responses. You will now listen to the second story.</p><p>Remember, as you listen to the story you will see letters appear on the screen.</br>As quickly as possible, press <b>&lt;x&gt;</b> if the letter is lowercase and <b>&lt;m&gt;</b> if the letter is uppercase.</p><p>Press <b>&lt;x&gt;</b> or <b>&lt;m&gt;</b> to begin listening!</p>","","77","","","","","","","","","","","","","","","","","","","",""
"html-keyboard-response","61","3963942","0.0-6.0-2.0-0.0","af28a1e239ad0acb3d4ea59bf0cdf84322054da41c9a34fde638612556a4bd94","arctic","swim","null","","<div style=""font-size:60px;"" tabindex=""0"">+</div>","","null","","","","","","","","","","","","","","","","","","","",""
"dual-task","null","null","null","","arctic","swim","704.4000000059605","","G","null","77","77","1","swim-dual-task","","G","uppercase","10000","0","1","af28a1e239ad0acb3d4ea59bf0cdf84322054da41c9a34fde638612556a4bd94","10009.59999999404","704.4000000059605","77","1","swim","","","","",""
"dual-task","null","null","null","","arctic","swim","603","","F","null","77","77","1","swim-dual-task","","F","uppercase","18000","0","1","af28a1e239ad0acb3d4ea59bf0cdf84322054da41c9a34fde638612556a4bd94","18006.59999999404","603","77","1","swim","","","","",""
"dual-task","null","null","null","","arctic","swim","1337.5999999940395","","t","null","88","88","1","swim-dual-task","","t","lowercase","28000","0","1","af28a1e239ad0acb3d4ea59bf0cdf84322054da41c9a34fde638612556a4bd94","28008.90000000596","1337.5999999940395","88","1","swim","","","","",""
"dual-task","null","null","null","","arctic","swim","1879.2999999970198","","n","null","88","88","1","swim-dual-task","","n","lowercase","40000","0","1","af28a1e239ad0acb3d4ea59bf0cdf84322054da41c9a34fde638612556a4bd94","40013.90000000596","1879.2999999970198","88","1","swim","","","","",""
"dual-task","null","null","null","","arctic","swim","1290.0999999940395","","N","null","77","77","1","swim-dual-task","","N","uppercase","54000","0","1","af28a1e239ad0acb3d4ea59bf0cdf84322054da41c9a34fde638612556a4bd94","54009.79999999702","1290.0999999940395","77","1","swim","","","","",""
"dual-task","null","null","null","","arctic","swim","1606.5","","H","null","77","77","1","swim-dual-task","","H","uppercase","62000","0","1","af28a1e239ad0acb3d4ea59bf0cdf84322054da41c9a34fde638612556a4bd94","62009","1606.5","77","1","swim","","","","",""
"dual-task","null","null","null","","arctic","swim","1761.6000000089407","","Q","null","77","77","1","swim-dual-task","","Q","uppercase","72000","0","1","af28a1e239ad0acb3d4ea59bf0cdf84322054da41c9a34fde638612556a4bd94","72009.79999999702","1761.6000000089407","77","1","swim","","","","",""
"dual-task","null","null","null","","arctic","swim","1217.2999999970198","","e","null","88","88","1","swim-dual-task","","e","lowercase","82000","0","1","af28a1e239ad0acb3d4ea59bf0cdf84322054da41c9a34fde638612556a4bd94","82009.59999999404","1217.2999999970198","88","1","swim","","","","",""
"dual-task","null","null","null","","arctic","swim","1360.0999999940395","","r","null","88","88","1","swim-dual-task","","r","lowercase","94000","0","1","af28a1e239ad0acb3d4ea59bf0cdf84322054da41c9a34fde638612556a4bd94","94004.5","1360.0999999940395","88","1","swim","","","","",""
"dual-task","null","null","null","","arctic","swim","NA","","a","null","NA","88","0","swim-dual-task","","a","lowercase","108000","1","1","af28a1e239ad0acb3d4ea59bf0cdf84322054da41c9a34fde638612556a4bd94","108009.20000000298","NA","NA","0","swim","","","","",""
"dual-task","null","null","null","","arctic","swim","1072.1000000089407","","d","null","88","88","1","swim-dual-task","","d","lowercase","116000","0","1","af28a1e239ad0acb3d4ea59bf0cdf84322054da41c9a34fde638612556a4bd94","116015.5","1072.1000000089407","88","1","swim","","","","",""
"dual-task","null","null","null","","arctic","swim","1724.2000000029802","","h","null","88","88","1","swim-dual-task","","h","lowercase","124000","0","1","af28a1e239ad0acb3d4ea59bf0cdf84322054da41c9a34fde638612556a4bd94","124019.09999999404","1724.2000000029802","88","1","swim","","","","",""
"dual-task","null","null","null","","arctic","swim","1091.3999999910593","","G","null","77","77","1","swim-dual-task","","G","uppercase","136000","0","1","af28a1e239ad0acb3d4ea59bf0cdf84322054da41c9a34fde638612556a4bd94","136009.70000000298","1091.3999999910593","77","1","swim","","","","",""
"dual-task","null","null","null","","arctic","swim","1275.5","","D","null","77","77","1","swim-dual-task","","D","uppercase","150000","0","1","af28a1e239ad0acb3d4ea59bf0cdf84322054da41c9a34fde638612556a4bd94","150002.29999999702","1275.5","77","1","swim","","","","",""
"dual-task","null","null","null","","arctic","swim","826.5","","g","null","88","88","1","swim-dual-task","","g","lowercase","162000","0","1","af28a1e239ad0acb3d4ea59bf0cdf84322054da41c9a34fde638612556a4bd94","162001.59999999404","826.5","88","1","swim","","","","",""
"dual-task","null","null","null","","arctic","swim","1243.2000000029802","","N","null","77","77","1","swim-dual-task","","N","uppercase","174000","0","1","af28a1e239ad0acb3d4ea59bf0cdf84322054da41c9a34fde638612556a4bd94","174009.20000000298","1243.2000000029802","77","1","swim","","","","",""
"dual-task","null","null","null","","arctic","swim","954.7000000029802","","r","null","88","88","1","swim-dual-task","","r","lowercase","184000","0","1","af28a1e239ad0acb3d4ea59bf0cdf84322054da41c9a34fde638612556a4bd94","184019.40000000596","954.7000000029802","88","1","swim","","","","",""
"dual-task","null","null","null","","arctic","swim","510.20000000298023","","F","null","77","77","1","swim-dual-task","","F","uppercase","196000","0","1","af28a1e239ad0acb3d4ea59bf0cdf84322054da41c9a34fde638612556a4bd94","196013.90000000596","510.20000000298023","77","1","swim","","","","",""
"dual-task","null","null","null","","arctic","swim","553.3000000119209","","d","null","88","88","1","swim-dual-task","","d","lowercase","210000","0","1","af28a1e239ad0acb3d4ea59bf0cdf84322054da41c9a34fde638612556a4bd94","210009.59999999404","553.3000000119209","88","1","swim","","","","",""
"dual-task","null","null","null","","arctic","swim","1105.5","","d","null","88","88","1","swim-dual-task","","d","lowercase","220000","0","1","af28a1e239ad0acb3d4ea59bf0cdf84322054da41c9a34fde638612556a4bd94","220010.20000000298","1105.5","88","1","swim","","","","",""
"dual-task","null","null","null","","arctic","swim","1178.5","","Q","null","77","77","1","swim-dual-task","","Q","uppercase","230000","0","1","af28a1e239ad0acb3d4ea59bf0cdf84322054da41c9a34fde638612556a4bd94","230014.20000000298","1178.5","77","1","swim","","","","",""
"dual-task","null","null","null","","arctic","swim","1473.2999999970198","","f","null","88","88","1","swim-dual-task","","f","lowercase","238000","0","1","af28a1e239ad0acb3d4ea59bf0cdf84322054da41c9a34fde638612556a4bd94","238003.40000000596","1473.2999999970198","88","1","swim","","","","",""
"dual-task","null","null","null","","arctic","swim","602","","F","null","77","77","1","swim-dual-task","","F","uppercase","246000","0","1","af28a1e239ad0acb3d4ea59bf0cdf84322054da41c9a34fde638612556a4bd94","246020.79999999702","602","77","1","swim","","","","",""
"dual-task","null","null","null","","arctic","swim","826.6000000089407","","d","null","88","88","1","swim-dual-task","","d","lowercase","258000","0","1","af28a1e239ad0acb3d4ea59bf0cdf84322054da41c9a34fde638612556a4bd94","258004.09999999404","826.6000000089407","88","1","swim","","","","",""
"dual-task","null","null","null","","arctic","swim","568.6000000089407","","n","null","88","88","1","swim-dual-task","","n","lowercase","268000","0","1","af28a1e239ad0acb3d4ea59bf0cdf84322054da41c9a34fde638612556a4bd94","268001.40000000596","568.6000000089407","88","1","swim","","","","",""
"dual-task","null","null","null","","arctic","swim","562.9000000059605","","q","null","88","88","1","swim-dual-task","","q","lowercase","282000","0","1","af28a1e239ad0acb3d4ea59bf0cdf84322054da41c9a34fde638612556a4bd94","282005.799999997","562.9000000059605","88","1","swim","","","","",""
"dual-task","null","null","null","","arctic","swim","537.3999999910593","","t","null","88","88","1","swim-dual-task","","t","lowercase","288000","0","1","af28a1e239ad0acb3d4ea59bf0cdf84322054da41c9a34fde638612556a4bd94","288009.90000000596","537.3999999910593","88","1","swim","","","","",""
"dual-task","null","null","null","","arctic","swim","872.6999999880791","","D","null","77","77","1","swim-dual-task","","D","uppercase","302000","0","1","af28a1e239ad0acb3d4ea59bf0cdf84322054da41c9a34fde638612556a4bd94","302009.700000003","872.6999999880791","77","1","swim","","","","",""
"dual-task","null","null","null","","arctic","swim","714.5999999940395","","h","null","88","88","1","swim-dual-task","","h","lowercase","312000","0","1","af28a1e239ad0acb3d4ea59bf0cdf84322054da41c9a34fde638612556a4bd94","312001.299999997","714.5999999940395","88","1","swim","","","","",""
"dual-task","null","null","null","","arctic","swim","616","","H","null","88","77","0","swim-dual-task","","H","uppercase","322000","0","1","af28a1e239ad0acb3d4ea59bf0cdf84322054da41c9a34fde638612556a4bd94","322010.40000000596","616","88","0","swim","","","","",""
"dual-task","null","null","null","","arctic","swim","NA","","q","null","NA","88","0","swim-dual-task","","q","lowercase","330000","1","1","af28a1e239ad0acb3d4ea59bf0cdf84322054da41c9a34fde638612556a4bd94","330007.700000003","NA","NA","0","swim","","","","",""
"dual-task","null","null","null","","arctic","swim","1410.5","","f","null","88","88","1","swim-dual-task","","f","lowercase","340000","0","1","af28a1e239ad0acb3d4ea59bf0cdf84322054da41c9a34fde638612556a4bd94","340005","1410.5","88","1","swim","","","","",""
"dual-task","null","null","null","","arctic","swim","1832.7000000029802","","E","null","77","77","1","swim-dual-task","","E","uppercase","350000","0","1","af28a1e239ad0acb3d4ea59bf0cdf84322054da41c9a34fde638612556a4bd94","350020.299999997","1832.7000000029802","77","1","swim","","","","",""
"dual-task","null","null","null","","arctic","swim","1642.7999999970198","","R","null","77","77","1","swim-dual-task","","R","uppercase","362000","0","1","af28a1e239ad0acb3d4ea59bf0cdf84322054da41c9a34fde638612556a4bd94","362013.09999999404","1642.7999999970198","77","1","swim","","","","",""
"dual-task","null","null","null","","arctic","swim","1272.199999988079","","R","null","77","77","1","swim-dual-task","","R","uppercase","372000","0","1","af28a1e239ad0acb3d4ea59bf0cdf84322054da41c9a34fde638612556a4bd94","372020.700000003","1272.199999988079","77","1","swim","","","","",""
"dual-task","null","null","null","","arctic","swim","1635.2000000029802","","r","null","88","88","1","swim-dual-task","","r","lowercase","380000","0","1","af28a1e239ad0acb3d4ea59bf0cdf84322054da41c9a34fde638612556a4bd94","380001.40000000596","1635.2000000029802","88","1","swim","","","","",""
"dual-task","null","null","null","","arctic","swim","1571","","b","null","88","88","1","swim-dual-task","","b","lowercase","390000","0","1","af28a1e239ad0acb3d4ea59bf0cdf84322054da41c9a34fde638612556a4bd94","390011","1571","88","1","swim","","","","",""
"dual-task","null","null","null","","arctic","swim","NA","","Q","null","NA","77","0","swim-dual-task","","Q","uppercase","396000","1","1","af28a1e239ad0acb3d4ea59bf0cdf84322054da41c9a34fde638612556a4bd94","396012.299999997","NA","NA","0","swim","","","","",""
"dual-task","null","null","null","","arctic","swim","NA","","t","null","NA","88","0","swim-dual-task","","t","lowercase","406000","1","1","af28a1e239ad0acb3d4ea59bf0cdf84322054da41c9a34fde638612556a4bd94","406001.799999997","NA","NA","0","swim","","","","",""
"dual-task","null","null","null","","arctic","swim","NA","","h","null","NA","88","0","swim-dual-task","","h","lowercase","416000","1","1","af28a1e239ad0acb3d4ea59bf0cdf84322054da41c9a34fde638612556a4bd94","416020.5","NA","NA","0","swim","","","","",""
"dual-task","null","null","null","","arctic","swim","NA","","A","null","NA","77","0","swim-dual-task","","A","uppercase","422000","1","1","af28a1e239ad0acb3d4ea59bf0cdf84322054da41c9a34fde638612556a4bd94","422010.200000003","NA","NA","0","swim","","","","",""
"dual-task","null","null","null","","arctic","swim","1637.2000000029802","","R","null","88","77","0","swim-dual-task","","R","uppercase","428000","0","1","af28a1e239ad0acb3d4ea59bf0cdf84322054da41c9a34fde638612556a4bd94","428002.5","1637.2000000029802","88","0","swim","","","","",""
"dual-task","null","null","null","","arctic","swim","1379.9000000059605","","B","null","77","77","1","swim-dual-task","","B","uppercase","438000","0","1","af28a1e239ad0acb3d4ea59bf0cdf84322054da41c9a34fde638612556a4bd94","438018.700000003","1379.9000000059605","77","1","swim","","","","",""
"dual-task","null","null","null","","arctic","swim","NA","","n","null","NA","88","0","swim-dual-task","","n","lowercase","444000","1","1","af28a1e239ad0acb3d4ea59bf0cdf84322054da41c9a34fde638612556a4bd94","444008.299999997","NA","NA","0","swim","","","","",""
"dual-task","null","null","null","","arctic","swim","1941.2999999970198","","a","null","88","88","1","swim-dual-task","","a","lowercase","452000","0","1","af28a1e239ad0acb3d4ea59bf0cdf84322054da41c9a34fde638612556a4bd94","452013.700000003","1941.2999999970198","88","1","swim","","","","",""
"dual-task","null","null","null","","arctic","swim","1183.2000000029802","","T","null","77","77","1","swim-dual-task","","T","uppercase","460000","0","1","af28a1e239ad0acb3d4ea59bf0cdf84322054da41c9a34fde638612556a4bd94","460001","1183.2000000029802","77","1","swim","","","","",""
"dual-task","null","null","null","","arctic","swim","NA","","E","null","NA","77","0","swim-dual-task","","E","uppercase","474000","1","1","af28a1e239ad0acb3d4ea59bf0cdf84322054da41c9a34fde638612556a4bd94","474019.5","NA","NA","0","swim","","","","",""
"dual-task","null","null","null","","arctic","swim","NA","","r","null","NA","88","0","swim-dual-task","","r","lowercase","486000","1","1","af28a1e239ad0acb3d4ea59bf0cdf84322054da41c9a34fde638612556a4bd94","486009.700000003","NA","NA","0","swim","","","","",""
"dual-task","null","null","null","","arctic","swim","NA","","g","null","NA","88","0","swim-dual-task","","g","lowercase","494000","1","1","af28a1e239ad0acb3d4ea59bf0cdf84322054da41c9a34fde638612556a4bd94","494009.09999999404","NA","NA","0","swim","","","","",""
"dual-task","null","null","null","","arctic","swim","1338.0999999940395","","a","null","88","88","1","swim-dual-task","","a","lowercase","508000","0","1","af28a1e239ad0acb3d4ea59bf0cdf84322054da41c9a34fde638612556a4bd94","508008.90000000596","1338.0999999940395","88","1","swim","","","","",""
"dual-task","null","null","null","","arctic","swim","1991.2000000029802","","Q","null","77","77","1","swim-dual-task","","Q","uppercase","522000","0","1","af28a1e239ad0acb3d4ea59bf0cdf84322054da41c9a34fde638612556a4bd94","522002","1991.2000000029802","77","1","swim","","","","",""
"dual-task","null","null","null","","arctic","swim","1810.2999999970198","","B","null","77","77","1","swim-dual-task","","B","uppercase","532000","0","1","af28a1e239ad0acb3d4ea59bf0cdf84322054da41c9a34fde638612556a4bd94","532011.599999994","1810.2999999970198","77","1","swim","","","","",""
"dual-task","null","null","null","","arctic","swim","1275.9000000059605","","b","null","88","88","1","swim-dual-task","","b","lowercase","544000","0","1","af28a1e239ad0acb3d4ea59bf0cdf84322054da41c9a34fde638612556a4bd94","544019.599999994","1275.9000000059605","88","1","swim","","","","",""
"dual-task","null","null","null","","arctic","swim","1518.5","","T","null","77","77","1","swim-dual-task","","T","uppercase","558000","0","1","af28a1e239ad0acb3d4ea59bf0cdf84322054da41c9a34fde638612556a4bd94","558003.900000006","1518.5","77","1","swim","","","","",""
"dual-task","null","null","null","","arctic","swim","1479.4000000059605","","N","null","77","77","1","swim-dual-task","","N","uppercase","564000","0","1","af28a1e239ad0acb3d4ea59bf0cdf84322054da41c9a34fde638612556a4bd94","564000.400000006","1479.4000000059605","77","1","swim","","","","",""
"dual-task","null","null","null","","arctic","swim","1445.5","","q","null","88","88","1","swim-dual-task","","q","lowercase","574000","0","1","af28a1e239ad0acb3d4ea59bf0cdf84322054da41c9a34fde638612556a4bd94","574019.099999994","1445.5","88","1","swim","","","","",""
"dual-task","null","null","null","","arctic","swim","1255.7000000029802","","G","null","77","77","1","swim-dual-task","","G","uppercase","582000","0","1","af28a1e239ad0acb3d4ea59bf0cdf84322054da41c9a34fde638612556a4bd94","582019.5","1255.7000000029802","77","1","swim","","","","",""
"dual-task","null","null","null","","arctic","swim","1192.2000000029802","","A","null","77","77","1","swim-dual-task","","A","uppercase","592000","0","1","af28a1e239ad0acb3d4ea59bf0cdf84322054da41c9a34fde638612556a4bd94","592009.700000003","1192.2000000029802","77","1","swim","","","","",""
"dual-task","null","null","null","","arctic","swim","1184.2999999970198","","B","null","77","77","1","swim-dual-task","","B","uppercase","606000","0","1","af28a1e239ad0acb3d4ea59bf0cdf84322054da41c9a34fde638612556a4bd94","606015.5","1184.2999999970198","77","1","swim","","","","",""
"dual-task","null","null","null","","arctic","swim","1854.6000000089407","","q","null","88","88","1","swim-dual-task","","q","lowercase","612000","0","1","af28a1e239ad0acb3d4ea59bf0cdf84322054da41c9a34fde638612556a4bd94","612006","1854.6000000089407","88","1","swim","","","","",""
"dual-task","null","null","null","","arctic","swim","NA","","g","null","NA","88","0","swim-dual-task","","g","lowercase","620000","1","1","af28a1e239ad0acb3d4ea59bf0cdf84322054da41c9a34fde638612556a4bd94","620014.099999994","NA","NA","0","swim","","","","",""
"dual-task","null","null","null","","arctic","swim","1156.3999999910593","","b","null","88","88","1","swim-dual-task","","b","lowercase","628000","0","1","af28a1e239ad0acb3d4ea59bf0cdf84322054da41c9a34fde638612556a4bd94","628000.200000003","1156.3999999910593","88","1","swim","","","","",""
"dual-task","null","null","null","","arctic","swim","1489.1000000089407","","G","null","77","77","1","swim-dual-task","","G","uppercase","636000","0","1","af28a1e239ad0acb3d4ea59bf0cdf84322054da41c9a34fde638612556a4bd94","636010.099999994","1489.1000000089407","77","1","swim","","","","",""
"dual-task","null","null","null","","arctic","swim","1313.2999999970198","","f","null","88","88","1","swim-dual-task","","f","lowercase","646000","0","1","af28a1e239ad0acb3d4ea59bf0cdf84322054da41c9a34fde638612556a4bd94","646014.200000003","1313.2999999970198","88","1","swim","","","","",""
"dual-task","null","null","null","","arctic","swim","1262.300000011921","","E","null","77","77","1","swim-dual-task","","E","uppercase","656000","0","1","af28a1e239ad0acb3d4ea59bf0cdf84322054da41c9a34fde638612556a4bd94","656001.700000003","1262.300000011921","77","1","swim","","","","",""
"dual-task","null","null","null","","arctic","swim","1693","","E","null","77","77","1","swim-dual-task","","E","uppercase","664000","0","1","af28a1e239ad0acb3d4ea59bf0cdf84322054da41c9a34fde638612556a4bd94","664023.200000003","1693","77","1","swim","","","","",""
"dual-task","null","null","null","","arctic","swim","1152.0999999940395","","D","null","77","77","1","swim-dual-task","","D","uppercase","676000","0","1","af28a1e239ad0acb3d4ea59bf0cdf84322054da41c9a34fde638612556a4bd94","676004.5","1152.0999999940395","77","1","swim","","","","",""
"dual-task","null","null","null","","arctic","swim","997.7999999970198","","D","null","77","77","1","swim-dual-task","","D","uppercase","688000","0","1","af28a1e239ad0acb3d4ea59bf0cdf84322054da41c9a34fde638612556a4bd94","688002.900000006","997.7999999970198","77","1","swim","","","","",""
"dual-task","null","null","null","","arctic","swim","NA","","e","null","NA","88","0","swim-dual-task","","e","lowercase","694000","1","1","af28a1e239ad0acb3d4ea59bf0cdf84322054da41c9a34fde638612556a4bd94","694002.200000003","NA","NA","0","swim","","","","",""
"dual-task","null","null","null","","arctic","swim","1474.800000011921","","A","null","77","77","1","swim-dual-task","","A","uppercase","704000","0","1","af28a1e239ad0acb3d4ea59bf0cdf84322054da41c9a34fde638612556a4bd94","704010.200000003","1474.800000011921","77","1","swim","","","","",""
"dual-task","null","null","null","","arctic","swim","1897.800000011921","","g","null","88","88","1","swim-dual-task","","g","lowercase","712000","0","1","af28a1e239ad0acb3d4ea59bf0cdf84322054da41c9a34fde638612556a4bd94","712005.099999994","1897.800000011921","88","1","swim","","","","",""
"dual-task","null","null","null","","arctic","swim","NA","","h","null","NA","88","0","swim-dual-task","","h","lowercase","722000","1","1","af28a1e239ad0acb3d4ea59bf0cdf84322054da41c9a34fde638612556a4bd94","722009.200000003","NA","NA","0","swim","","","","",""
"dual-task","null","null","null","","arctic","swim","NA","","T","null","NA","77","0","swim-dual-task","","T","uppercase","734000","1","1","af28a1e239ad0acb3d4ea59bf0cdf84322054da41c9a34fde638612556a4bd94","734001","NA","NA","0","swim","","","","",""
"dual-task","null","null","null","","arctic","swim","1746.0999999940395","","H","null","77","77","1","swim-dual-task","","H","uppercase","746000","0","1","af28a1e239ad0acb3d4ea59bf0cdf84322054da41c9a34fde638612556a4bd94","746005.799999997","1746.0999999940395","77","1","swim","","","","",""
"dual-task","null","null","null","","arctic","swim","1506.3999999910593","","n","null","88","88","1","swim-dual-task","","n","lowercase","760000","0","1","af28a1e239ad0acb3d4ea59bf0cdf84322054da41c9a34fde638612556a4bd94","760017.599999994","1506.3999999910593","88","1","swim","","","","",""
"dual-task","null","null","null","","arctic","swim","1549.699999988079","","A","null","77","77","1","swim-dual-task","","A","uppercase","766000","0","1","af28a1e239ad0acb3d4ea59bf0cdf84322054da41c9a34fde638612556a4bd94","766009.400000006","1549.699999988079","77","1","swim","","","","",""
"dual-task","null","null","null","","arctic","swim","1763.7999999970198","","H","null","77","77","1","swim-dual-task","","H","uppercase","778000","0","1","af28a1e239ad0acb3d4ea59bf0cdf84322054da41c9a34fde638612556a4bd94","778009.099999994","1763.7999999970198","77","1","swim","","","","",""
"dual-task","null","null","null","","arctic","swim","1772.0999999940395","","T","null","77","77","1","swim-dual-task","","T","uppercase","788000","0","1","af28a1e239ad0acb3d4ea59bf0cdf84322054da41c9a34fde638612556a4bd94","788019.5","1772.0999999940395","77","1","swim","","","","",""
"dual-task","null","null","null","","arctic","swim","NA","","t","null","NA","88","0","swim-dual-task","","t","lowercase","794000","1","1","af28a1e239ad0acb3d4ea59bf0cdf84322054da41c9a34fde638612556a4bd94","794020","NA","NA","0","swim","","","","",""
"audio-keyboard-response","62","4774037","0.0-6.0-2.0-1.0","af28a1e239ad0acb3d4ea59bf0cdf84322054da41c9a34fde638612556a4bd94","arctic","swim","null","","audio/story_swim_scrambled.mp3","","null","","","","","","","","","","","","","","","","","","","",""
"html-button-response","63","4776964","0.0-6.0-2.0-2.0","af28a1e239ad0acb3d4ea59bf0cdf84322054da41c9a34fde638612556a4bd94","arctic","swim","2923","","<p>This concludes the story. Thank you for listening.</p><p>You will now answer some questions about the content of the story.</p>","0","","","","","","","","","","","","","","","","","","","","",""
"survey-multi-choice","64","4780277","0.0-6.0-2.0-3.0-0.0","af28a1e239ad0acb3d4ea59bf0cdf84322054da41c9a34fde638612556a4bd94","arctic","swim","3307","","<b>Where is the home of naval aviation?</b>","","","","1","swim-comprehension","","","","","","","","","","","","","{""Q0"":""Pensacola""}","","","",""
"survey-multi-choice","65","4783217","0.0-6.0-2.0-3.0-0.1","af28a1e239ad0acb3d4ea59bf0cdf84322054da41c9a34fde638612556a4bd94","arctic","swim","2684","","<b>What is the narrator afraid of, aside from the water?</b>","","","","0","swim-comprehension","","","","","","","","","","","","","{""Q0"":""Snakes""}","","","",""
"survey-multi-choice","66","4790453","0.0-6.0-2.0-3.0-0.2","af28a1e239ad0acb3d4ea59bf0cdf84322054da41c9a34fde638612556a4bd94","arctic","swim","6977","","<b>What gave the narrator his greatest feeling of accomplishment?</b>","","","","1","swim-comprehension","","","","","","","","","","","","","{""Q0"":""Passing the water survival course""}","","","",""
"survey-multi-choice","67","4799518","0.0-6.0-2.0-3.0-0.3","af28a1e239ad0acb3d4ea59bf0cdf84322054da41c9a34fde638612556a4bd94","arctic","swim","8794","","<b>How many astronaut candidates reported for duty at the Johnson Space Center?</b>","","","","1","swim-comprehension","","","","","","","","","","","","","{""Q0"":""Forty-four""}","","","",""
"survey-multi-choice","68","4806030","0.0-6.0-2.0-3.0-0.4","af28a1e239ad0acb3d4ea59bf0cdf84322054da41c9a34fde638612556a4bd94","arctic","swim","6251","","<b>How often does the narrator swim, now that he is a good swimmer?</b>","","","","1","swim-comprehension","","","","","","","","","","","","","{""Q0"":""Never swam again in his life""}","","","",""
"survey-multi-choice","69","4811857","0.0-6.0-2.0-3.0-0.5","af28a1e239ad0acb3d4ea59bf0cdf84322054da41c9a34fde638612556a4bd94","arctic","swim","5565","","<b>How many times did the astronaut candidates have to complete the final exercise to pass?</b>","","","","1","swim-comprehension","","","","","","","","","","","","","{""Q0"":""Two""}","","","",""
"survey-multi-choice","70","4816210","0.0-6.0-2.0-3.0-0.6","af28a1e239ad0acb3d4ea59bf0cdf84322054da41c9a34fde638612556a4bd94","arctic","swim","4091","","<b>How many astronaut candidates passed the first swim test?</b>","","","","0","swim-comprehension","","","","","","","","","","","","","{""Q0"":""All but one""}","","","",""
"survey-multi-choice","71","4821121","0.0-6.0-2.0-3.0-0.7","af28a1e239ad0acb3d4ea59bf0cdf84322054da41c9a34fde638612556a4bd94","arctic","swim","4657","","<b>What was the final step of the first swim test in the pool?</b>","","","","1","swim-comprehension","","","","","","","","","","","","","{""Q0"":""Tread water with hands above the water""}","","","",""
"survey-multi-choice","72","4826181","0.0-6.0-2.0-3.0-0.8","af28a1e239ad0acb3d4ea59bf0cdf84322054da41c9a34fde638612556a4bd94","arctic","swim","4803","","<b>How did the narrator train for his swim test?</b>","","","","1","swim-comprehension","","","","","","","","","","","","","{""Q0"":""Took his kids to the pool every day""}","","","",""
"survey-multi-choice","73","4830667","0.0-6.0-2.0-3.0-0.9","af28a1e239ad0acb3d4ea59bf0cdf84322054da41c9a34fde638612556a4bd94","arctic","swim","4231","","<b>What were the astronaut candidates trained to do at the naval air station?</b>","","","","1","swim-comprehension","","","","","","","","","","","","","{""Q0"":""Eject out of aircraft and survive in water long enough to be rescued""}","","","",""
"html-button-response","74","4832179","0.0-6.0-2.0-4.0","af28a1e239ad0acb3d4ea59bf0cdf84322054da41c9a34fde638612556a4bd94","arctic","swim","1258","","<p>Thank you for your responses.</p><p>You will now answer some questions about your impressions of the story.</p>","0","","","","","","","","","","","","","","","","","","","","",""
"html-button-response","75","4833992","0.0-6.0-2.0-5.0-0.0","af28a1e239ad0acb3d4ea59bf0cdf84322054da41c9a34fde638612556a4bd94","arctic","swim","1810","","A2","4","","","","swim-engagement","","","","","","","","","","","","","","5","absorption","",""
"html-button-response","76","4835634","0.0-6.0-2.0-5.0-0.1","af28a1e239ad0acb3d4ea59bf0cdf84322054da41c9a34fde638612556a4bd94","arctic","swim","1387","","E7","3","","","","swim-engagement","","","","","","","","","","","","","","4","enjoyment","",""
"html-button-response","77","4837224","0.0-6.0-2.0-5.0-0.2","af28a1e239ad0acb3d4ea59bf0cdf84322054da41c9a34fde638612556a4bd94","arctic","swim","1336","","E1","1","","","","swim-engagement","","","","","","","","","","","","","","2","enjoyment","",""
"html-button-response","78","4838617","0.0-6.0-2.0-5.0-0.3","af28a1e239ad0acb3d4ea59bf0cdf84322054da41c9a34fde638612556a4bd94","arctic","swim","1139","","MS1","2","","","","swim-engagement","","","","","","","","","","","","","","3","mental-sim","",""
"html-button-response","79","4839974","0.0-6.0-2.0-5.0-0.4","af28a1e239ad0acb3d4ea59bf0cdf84322054da41c9a34fde638612556a4bd94","arctic","swim","1103","","A3","1","","","","swim-engagement","","","","","","","","","","","","","","2","absorption","",""
"html-button-response","80","4841259","0.0-6.0-2.0-5.0-0.5","af28a1e239ad0acb3d4ea59bf0cdf84322054da41c9a34fde638612556a4bd94","arctic","swim","1032","","EE5","2","","","","swim-engagement","","","","","","","","","","","","","","3","emo-engage","",""
"html-button-response","81","4842305","0.0-6.0-2.0-5.0-0.6","af28a1e239ad0acb3d4ea59bf0cdf84322054da41c9a34fde638612556a4bd94","arctic","swim","789","","E8","2","","","","swim-engagement","","","","","","","","","","","","","","3","enjoyment","",""
"html-button-response","82","4843902","0.0-6.0-2.0-5.0-0.7","af28a1e239ad0acb3d4ea59bf0cdf84322054da41c9a34fde638612556a4bd94","arctic","swim","1343","","EE4","1","","","","swim-engagement","","","","","","","","","","","","","","2","emo-engage","",""
"html-button-response","83","4845132","0.0-6.0-2.0-5.0-0.8","af28a1e239ad0acb3d4ea59bf0cdf84322054da41c9a34fde638612556a4bd94","arctic","swim","977","","A5","1","","","","swim-engagement","","","","","","","","","","","","","","2","absorption","",""
"html-button-response","84","4847535","0.0-6.0-2.0-5.0-0.9","af28a1e239ad0acb3d4ea59bf0cdf84322054da41c9a34fde638612556a4bd94","arctic","swim","2137","","A4","1","","","","swim-engagement","","","","","","","","","","","","","","2","absorption","",""
"html-button-response","85","4849295","0.0-6.0-2.0-5.0-0.10","af28a1e239ad0acb3d4ea59bf0cdf84322054da41c9a34fde638612556a4bd94","arctic","swim","1508","","EE1","2","","","","swim-engagement","","","","","","","","","","","","","","3","emo-engage","",""
"html-button-response","86","4850550","0.0-6.0-2.0-5.0-0.11","af28a1e239ad0acb3d4ea59bf0cdf84322054da41c9a34fde638612556a4bd94","arctic","swim","999","","E10","2","","","","swim-engagement","","","","","","","","","","","","","","3","enjoyment","",""
"html-button-response","87","4851666","0.0-6.0-2.0-5.0-0.12","af28a1e239ad0acb3d4ea59bf0cdf84322054da41c9a34fde638612556a4bd94","arctic","swim","861","","MS3","2","","","","swim-engagement","","","","","","","","","","","","","","3","mental-sim","",""
"html-button-response","88","4854171","0.0-6.0-2.0-5.0-0.13","af28a1e239ad0acb3d4ea59bf0cdf84322054da41c9a34fde638612556a4bd94","arctic","swim","2251","","E6","3","","","","swim-engagement","","","","","","","","","","","","","","4","enjoyment","",""
"html-button-response","89","4855585","0.0-6.0-2.0-5.0-0.14","af28a1e239ad0acb3d4ea59bf0cdf84322054da41c9a34fde638612556a4bd94","arctic","swim","1160","","EE3","2","","","","swim-engagement","","","","","","","","","","","","","","3","emo-engage","",""
"html-button-response","90","4856699","0.0-6.0-2.0-5.0-0.15","af28a1e239ad0acb3d4ea59bf0cdf84322054da41c9a34fde638612556a4bd94","arctic","swim","862","","MS2","2","","","","swim-engagement","","","","","","","","","","","","","","3","mental-sim","",""
"html-button-response","91","4857958","0.0-6.0-2.0-5.0-0.16","af28a1e239ad0acb3d4ea59bf0cdf84322054da41c9a34fde638612556a4bd94","arctic","swim","1006","","EE2","3","","","","swim-engagement","","","","","","","","","","","","","","4","emo-engage","",""
"html-button-response","92","4859045","0.0-6.0-2.0-5.0-0.17","af28a1e239ad0acb3d4ea59bf0cdf84322054da41c9a34fde638612556a4bd94","arctic","swim","833","","A1","3","","","","swim-engagement","","","","","","","","","","","","","","4","absorption","",""
"html-button-response","93","4860512","0.0-8.0","af28a1e239ad0acb3d4ea59bf0cdf84322054da41c9a34fde638612556a4bd94","arctic","swim","1214","","<p>Thank you for your responses.</p><p>You will now answer some demographic, hearing, and general health questions.</p>","0","","","","","","","","","","","","","","","","","","","","",""
"survey-multi-choice","94","4863459","0.0-9.0-0.0","af28a1e239ad0acb3d4ea59bf0cdf84322054da41c9a34fde638612556a4bd94","arctic","swim","2925","","","","","","","survey","","","","","","","","","","","","","{""Q0"":""Chrome""}","","","browser",""
"survey-text","95","4866514","0.0-9.0-1.0","af28a1e239ad0acb3d4ea59bf0cdf84322054da41c9a34fde638612556a4bd94","arctic","swim","2796.7000000029802","","","","","","","survey","","","","","","","","","","","","","{""AGE"":""38""}","","","age","38"
"survey-multi-choice","96","4868867","0.0-9.0-2.0","af28a1e239ad0acb3d4ea59bf0cdf84322054da41c9a34fde638612556a4bd94","arctic","swim","2089","","","","","","","survey","","","","","","","","","","","","","{""Q0"":""Female""}","","","gender","Female"
"survey-multi-choice","97","4871135","0.0-9.0-4.0","af28a1e239ad0acb3d4ea59bf0cdf84322054da41c9a34fde638612556a4bd94","arctic","swim","2013","","","","","","","survey","","","","","","","","","","","","","{""Q0"":""Right""}","","","handedness","Right"
"survey-multi-choice","98","4873693","0.0-9.0-5.0","af28a1e239ad0acb3d4ea59bf0cdf84322054da41c9a34fde638612556a4bd94","arctic","swim","2300","","","","","","","survey","","","","","","","","","","","","","{""Q0"":""Bachelor's Degree""}","","","education","Bachelor's Degree"
"survey-text","99","4878504","0.0-10.0-0.0","af28a1e239ad0acb3d4ea59bf0cdf84322054da41c9a34fde638612556a4bd94","arctic","swim","4546.70000000298","","","","","","","survey","","","","","","","","","","","","","{""L1"":""English""}","","","first-language","English"
"survey-text","100","4886652","0.0-10.0-1.0","af28a1e239ad0acb3d4ea59bf0cdf84322054da41c9a34fde638612556a4bd94","arctic","swim","7886.9000000059605","","","","","","","survey","","","","","","","","","","","","","{""L2name"":"""",""L2fluency"":"""",""L3name"":"""",""L3fluency"":"""",""L4name"":"""",""L4fluency"":""""}","","","additional-languages","{""L2name"":"""",""L2fluency"":"""",""L3name"":"""",""L3fluency"":"""",""L4name"":"""",""L4fluency"":""""}"
"survey-multi-choice","101","4889969","0.0-10.0-2.0","af28a1e239ad0acb3d4ea59bf0cdf84322054da41c9a34fde638612556a4bd94","arctic","swim","3061","","","","","","","survey","","","","","","","","","","","","","{""Q0"":""No""}","","","hearing-aid","No"
"survey-multi-choice","102","4892801","0.0-10.0-3.0","af28a1e239ad0acb3d4ea59bf0cdf84322054da41c9a34fde638612556a4bd94","arctic","swim","2574","","","","","","","survey","","","","","","","","","","","","","{""Q0"":""Never""}","","","ringing-ears","Never"
"survey-multi-choice","103","4895725","0.0-10.0-5.0","af28a1e239ad0acb3d4ea59bf0cdf84322054da41c9a34fde638612556a4bd94","arctic","swim","2669","","","","","","","survey","","","","","","","","","","","","","{""Q0"":""No""}","","","neuro-disease","No"
"survey-multi-choice","104","4898416","0.0-10.0-7.0","af28a1e239ad0acb3d4ea59bf0cdf84322054da41c9a34fde638612556a4bd94","arctic","swim","2437","","","","","","","survey","","","","","","","","","","","","","{""Q0"":""No""}","","","take-meds","No"
"survey-text","105","4902159","0.0-10.0-9.0","af28a1e239ad0acb3d4ea59bf0cdf84322054da41c9a34fde638612556a4bd94","arctic","swim","3351.5","","","","","","","survey","","","","","","","","","","","","","{""HC"":""n/a""}","","","health-concerns","n/a"
"html-button-response","106","4905559","0.0-11.0-0.0","af28a1e239ad0acb3d4ea59bf0cdf84322054da41c9a34fde638612556a4bd94","arctic","swim","3146","","<p>How would you describe your musical skills/experiences?</p>","2","","","","survey","","","","","","","","","","","","","","","","music-skill","3"
"survey-multi-choice","107","4908139","0.0-11.0-1.0","af28a1e239ad0acb3d4ea59bf0cdf84322054da41c9a34fde638612556a4bd94","arctic","swim","2325","","","","","","","survey","","","","","","","","","","","","","{""Q0"":""No""}","","","music-instrument","No"
"html-button-response","108","4910371","0.0-12.0-0.0","af28a1e239ad0acb3d4ea59bf0cdf84322054da41c9a34fde638612556a4bd94","arctic","swim","1979","","<p>How would you describe your general hearing abilities?</p>","5","","","","survey","","","","","","","","","","","","","","","","ssq-01","6"
"html-button-response","109","4913821","0.0-12.0-1.0","af28a1e239ad0acb3d4ea59bf0cdf84322054da41c9a34fde638612556a4bd94","arctic","swim","3197","","<p>When you talk with someone at a place that strongly reverberates/echoes (e.g., in a church or train station),</br>can you understand what the person says?</p>","9","","","","survey","","","","","","","","","","","","","","","","ssq-02","9"
"html-button-response","110","4916247","0.0-12.0-2.0","af28a1e239ad0acb3d4ea59bf0cdf84322054da41c9a34fde638612556a4bd94","arctic","swim","2172","","<p>When you are with a group (~5 people) in a lively restaurant, can you follow the group's conversation?</p>","8","","","","survey","","","","","","","","","","","","","","","","ssq-03","8"
"html-button-response","111","4917980","0.0-12.0-3.0","af28a1e239ad0acb3d4ea59bf0cdf84322054da41c9a34fde638612556a4bd94","arctic","swim","1479","","<p>Based on the sound of a bus or truck, can you tell whether it is moving towards or away from you?</p>","8","","","","survey","","","","","","","","","","","","","","","","ssq-04","8"
"html-button-response","112","4918874","0.0-12.0-4.0","af28a1e239ad0acb3d4ea59bf0cdf84322054da41c9a34fde638612556a4bd94","arctic","swim","640","","<p>When you are in an unknown environment, can you tell from which direction a brief sound originates?</p>","8","","","","survey","","","","","","","","","","","","","","","","ssq-05","8"
"html-button-response","113","4919576","0.0-12.0-5.0","af28a1e239ad0acb3d4ea59bf0cdf84322054da41c9a34fde638612556a4bd94","arctic","swim","447","","<p>Are you able to ignore distracting sounds when you concentrate on a specific aspect of your acoustic surrounding?</p>","8","","","","survey","","","","","","","","","","","","","","","","ssq-06","8"
"fullscreen","114","4920828","0.0-13.0","af28a1e239ad0acb3d4ea59bf0cdf84322054da41c9a34fde638612556a4bd94","arctic","swim","","","","","","","","","true","","","","","","","","","","","","","","","",""
