"trial_type","trial_index","time_elapsed","internal_node_id","ParticipantID","firstStory","scramStory","rt","url","stimulus","button_pressed","key_press","correctRESP","correct","designation","success","letterStim","letterType","ONSET","TIMEOUT","CONDITION","Participant","ONSET_ACTUAL","RT","RESP","ACC","STORY","responses","response","type","surveyQuestion","QRESP"
"pavlovia","0","4","0.0-0.0","9b32d2edeb9fe1b1d23d0dd9f8b3ffca02591e22406e930099b42ef979442973","arctic","swim","","","","","","","","","","","","","","","","","","","","","","","","",""
"external-html","1","30947","0.0-1.0","9b32d2edeb9fe1b1d23d0dd9f8b3ffca02591e22406e930099b42ef979442973","arctic","swim","29379","consent/consent_updated.html","","","","","","","","","","","","","","","","","","","","","","",""
"html-button-response","2","33828","0.0-2.0-0.0","9b32d2edeb9fe1b1d23d0dd9f8b3ffca02591e22406e930099b42ef979442973","arctic","swim","2878","","<p>Before we begin the main task, you will complete a short volume calibration and headphone check.</p><p>Please make sure you are in a quiet listening environment, that you are wearing headphones, and that your computer's volume is turned on.<p></p>","0","","","","","","","","","","","","","","","","","","","","",""
"html-button-response","3","38610","0.0-2.0-1.0","9b32d2edeb9fe1b1d23d0dd9f8b3ffca02591e22406e930099b42ef979442973","arctic","swim","4514","","<p>The volume calibration will be first.</p><p>You will hear a thirty-second noise. Please adjust your computer's volume so that this noise is being presented at a comfortable level.<p></p>","0","","","","","","","","","","","","","","","","","","","","",""
"audio-button-response","4","43048","0.0-2.0-2.0","9b32d2edeb9fe1b1d23d0dd9f8b3ffca02591e22406e930099b42ef979442973","arctic","swim","4178","","audio/volumetest.mp3","0","","","","","","","","","","","","","","","","","","","","",""
"html-keyboard-response","5","46492","0.0-3.0-0.0","9b32d2edeb9fe1b1d23d0dd9f8b3ffca02591e22406e930099b42ef979442973","arctic","swim","3442","","<p>You will now complete a short headphone check.</p><p>On each trial, you will hear three tones. One of these tones will be quieter than the others. Your task is to identify whether the quiet tone occurred first, second, or third.</p><p>There are six trials in total.<p></p><p></p>(Press SPACEBAR to begin)","","32","","","","","","","","","","","","","","","","","","","",""
"html-keyboard-response","6","47256","0.0-3.0-1.0-0.0","9b32d2edeb9fe1b1d23d0dd9f8b3ffca02591e22406e930099b42ef979442973","arctic","swim","null","","<div style=""font-size:60px;"">+</div>","","null","","","","","","","","","","","","","","","","","","","",""
"audio-button-response","7","51539","0.0-3.0-1.0-1.0","9b32d2edeb9fe1b1d23d0dd9f8b3ffca02591e22406e930099b42ef979442973","arctic","swim","4281","","audio/t3_1.mp3","2","","2","1","headphone-test","","","","","","","","","","","","","","","","",""
"html-keyboard-response","8","52042","0.0-3.0-1.0-2.0","9b32d2edeb9fe1b1d23d0dd9f8b3ffca02591e22406e930099b42ef979442973","arctic","swim","null","","<p>Correct</p>","","null","","","","","","","","","","","","","","","","","","","",""
"html-keyboard-response","9","52552","0.0-3.0-1.0-0.1","9b32d2edeb9fe1b1d23d0dd9f8b3ffca02591e22406e930099b42ef979442973","arctic","swim","null","","<div style=""font-size:60px;"">+</div>","","null","","","","","","","","","","","","","","","","","","","",""
"audio-button-response","10","56837","0.0-3.0-1.0-1.1","9b32d2edeb9fe1b1d23d0dd9f8b3ffca02591e22406e930099b42ef979442973","arctic","swim","4284","","audio/t2_1.mp3","1","","1","1","headphone-test","","","","","","","","","","","","","","","","",""
"html-keyboard-response","11","57346","0.0-3.0-1.0-2.1","9b32d2edeb9fe1b1d23d0dd9f8b3ffca02591e22406e930099b42ef979442973","arctic","swim","null","","<p>Correct</p>","","null","","","","","","","","","","","","","","","","","","","",""
"html-keyboard-response","12","57856","0.0-3.0-1.0-0.2","9b32d2edeb9fe1b1d23d0dd9f8b3ffca02591e22406e930099b42ef979442973","arctic","swim","null","","<div style=""font-size:60px;"">+</div>","","null","","","","","","","","","","","","","","","","","","","",""
"audio-button-response","13","62079","0.0-3.0-1.0-1.2","9b32d2edeb9fe1b1d23d0dd9f8b3ffca02591e22406e930099b42ef979442973","arctic","swim","4221","","audio/t1_2.mp3","0","","0","1","headphone-test","","","","","","","","","","","","","","","","",""
"html-keyboard-response","14","62585","0.0-3.0-1.0-2.2","9b32d2edeb9fe1b1d23d0dd9f8b3ffca02591e22406e930099b42ef979442973","arctic","swim","null","","<p>Correct</p>","","null","","","","","","","","","","","","","","","","","","","",""
"html-keyboard-response","15","63102","0.0-3.0-1.0-0.3","9b32d2edeb9fe1b1d23d0dd9f8b3ffca02591e22406e930099b42ef979442973","arctic","swim","null","","<div style=""font-size:60px;"">+</div>","","null","","","","","","","","","","","","","","","","","","","",""
"audio-button-response","16","67392","0.0-3.0-1.0-1.3","9b32d2edeb9fe1b1d23d0dd9f8b3ffca02591e22406e930099b42ef979442973","arctic","swim","4289","","audio/t1_1.mp3","0","","0","1","headphone-test","","","","","","","","","","","","","","","","",""
"html-keyboard-response","17","67896","0.0-3.0-1.0-2.3","9b32d2edeb9fe1b1d23d0dd9f8b3ffca02591e22406e930099b42ef979442973","arctic","swim","null","","<p>Correct</p>","","null","","","","","","","","","","","","","","","","","","","",""
"html-keyboard-response","18","68397","0.0-3.0-1.0-0.4","9b32d2edeb9fe1b1d23d0dd9f8b3ffca02591e22406e930099b42ef979442973","arctic","swim","null","","<div style=""font-size:60px;"">+</div>","","null","","","","","","","","","","","","","","","","","","","",""
"audio-button-response","19","72674","0.0-3.0-1.0-1.4","9b32d2edeb9fe1b1d23d0dd9f8b3ffca02591e22406e930099b42ef979442973","arctic","swim","4276","","audio/t3_2.mp3","2","","2","1","headphone-test","","","","","","","","","","","","","","","","",""
"html-keyboard-response","20","73186","0.0-3.0-1.0-2.4","9b32d2edeb9fe1b1d23d0dd9f8b3ffca02591e22406e930099b42ef979442973","arctic","swim","null","","<p>Correct</p>","","null","","","","","","","","","","","","","","","","","","","",""
"html-keyboard-response","21","73699","0.0-3.0-1.0-0.5","9b32d2edeb9fe1b1d23d0dd9f8b3ffca02591e22406e930099b42ef979442973","arctic","swim","null","","<div style=""font-size:60px;"">+</div>","","null","","","","","","","","","","","","","","","","","","","",""
"audio-button-response","22","77988","0.0-3.0-1.0-1.5","9b32d2edeb9fe1b1d23d0dd9f8b3ffca02591e22406e930099b42ef979442973","arctic","swim","4289","","audio/t2_2.mp3","1","","1","1","headphone-test","","","","","","","","","","","","","","","","",""
"html-keyboard-response","23","78501","0.0-3.0-1.0-2.5","9b32d2edeb9fe1b1d23d0dd9f8b3ffca02591e22406e930099b42ef979442973","arctic","swim","null","","<p>Correct</p>","","null","","","","","","","","","","","","","","","","","","","",""
"fullscreen","24","85038","0.0-4.0","9b32d2edeb9fe1b1d23d0dd9f8b3ffca02591e22406e930099b42ef979442973","arctic","swim","","","","","","","","","true","","","","","","","","","","","","","","","",""
"html-button-response","25","92388","0.0-5.0-0.0","9b32d2edeb9fe1b1d23d0dd9f8b3ffca02591e22406e930099b42ef979442973","arctic","swim","7349","","<p>There are two blocks to this experiment.</p><p>In each block, you will hear a ~13.5 minute story. One of the stories will be scrambled. Please listen carefully to both stories and understand them as best you can.</p><p>After each story, you will be asked some questions to assess your comprehension.</p>","0","","","","","","","","","","","","","","","","","","","","",""
"html-button-response","26","100666","0.0-5.0-1.0","9b32d2edeb9fe1b1d23d0dd9f8b3ffca02591e22406e930099b42ef979442973","arctic","swim","8276","","<p>During each story, there will be an additional task.</p><p>A letter will occasionally appear on the screen.</br>Your job is to - as quickly as you can - decide whether the letter is lowercase or uppercase and press one of two keys on the keyboard:</p><p>If the letter is <b>lowercase</b>, press key &lt;<b>x</b>&gt;.</p><p>If the letter is <b>uppercase</b>, press key &lt;<b>m</b>&gt;.</p>","0","","","","","","","","","","","","","","","","","","","","",""
"html-keyboard-response","27","105850","0.0-5.0-2.0","9b32d2edeb9fe1b1d23d0dd9f8b3ffca02591e22406e930099b42ef979442973","arctic","swim","5183","","<p>Because we want your responses to be as quick as possible, please keep your index fingers over the keys while listening.</p><p>Each block lasts about 20 minutes.</p><p><b>Press &lt;x&gt; or &lt;m&gt; to start the first block!</b></p>","","88","","","","","","","","","","","","","","","","","","","",""
"html-keyboard-response","28","106364","0.0-6.0-0.0-0.0","9b32d2edeb9fe1b1d23d0dd9f8b3ffca02591e22406e930099b42ef979442973","arctic","swim","null","","<div style=""font-size:60px;"" tabindex=""0"">+</div>","","null","","","","","","","","","","","","","","","","","","","",""
"dual-task","null","null","null","","arctic","swim","1085.3999999910593","","g","null","88","88","1","arctic-dual-task","","g","lowercase","10000","0","1","9b32d2edeb9fe1b1d23d0dd9f8b3ffca02591e22406e930099b42ef979442973","10009.90000000596","1085.3999999910593","88","1","arctic","","","","",""
"dual-task","null","null","null","","arctic","swim","437.40000000596046","","B","null","77","77","1","arctic-dual-task","","B","uppercase","24000","0","1","9b32d2edeb9fe1b1d23d0dd9f8b3ffca02591e22406e930099b42ef979442973","24001.59999999404","437.40000000596046","77","1","arctic","","","","",""
"dual-task","null","null","null","","arctic","swim","445.80000001192093","","r","null","88","88","1","arctic-dual-task","","r","lowercase","34000","0","1","9b32d2edeb9fe1b1d23d0dd9f8b3ffca02591e22406e930099b42ef979442973","34012.70000000298","445.80000001192093","88","1","arctic","","","","",""
"dual-task","null","null","null","","arctic","swim","754.6000000089407","","h","null","88","88","1","arctic-dual-task","","h","lowercase","44000","0","1","9b32d2edeb9fe1b1d23d0dd9f8b3ffca02591e22406e930099b42ef979442973","44010.09999999404","754.6000000089407","88","1","arctic","","","","",""
"dual-task","null","null","null","","arctic","swim","729.1000000089407","","h","null","88","88","1","arctic-dual-task","","h","lowercase","56000","0","1","9b32d2edeb9fe1b1d23d0dd9f8b3ffca02591e22406e930099b42ef979442973","56009.5","729.1000000089407","88","1","arctic","","","","",""
"dual-task","null","null","null","","arctic","swim","1063.2000000029802","","T","null","77","77","1","arctic-dual-task","","T","uppercase","64000","0","1","9b32d2edeb9fe1b1d23d0dd9f8b3ffca02591e22406e930099b42ef979442973","64014.40000000596","1063.2000000029802","77","1","arctic","","","","",""
"dual-task","null","null","null","","arctic","swim","423.5","","f","null","88","88","1","arctic-dual-task","","f","lowercase","76000","0","1","9b32d2edeb9fe1b1d23d0dd9f8b3ffca02591e22406e930099b42ef979442973","76010.20000000298","423.5","88","1","arctic","","","","",""
"dual-task","null","null","null","","arctic","swim","528.5999999940395","","t","null","88","88","1","arctic-dual-task","","t","lowercase","86000","0","1","9b32d2edeb9fe1b1d23d0dd9f8b3ffca02591e22406e930099b42ef979442973","86001.29999999702","528.5999999940395","88","1","arctic","","","","",""
"dual-task","null","null","null","","arctic","swim","509.90000000596046","","A","null","77","77","1","arctic-dual-task","","A","uppercase","100000","0","1","9b32d2edeb9fe1b1d23d0dd9f8b3ffca02591e22406e930099b42ef979442973","100002.40000000596","509.90000000596046","77","1","arctic","","","","",""
"dual-task","null","null","null","","arctic","swim","463.40000000596046","","h","null","88","88","1","arctic-dual-task","","h","lowercase","110000","0","1","9b32d2edeb9fe1b1d23d0dd9f8b3ffca02591e22406e930099b42ef979442973","110005.40000000596","463.40000000596046","88","1","arctic","","","","",""
"dual-task","null","null","null","","arctic","swim","438.1000000089407","","f","null","88","88","1","arctic-dual-task","","f","lowercase","122000","0","1","9b32d2edeb9fe1b1d23d0dd9f8b3ffca02591e22406e930099b42ef979442973","122006.5","438.1000000089407","88","1","arctic","","","","",""
"dual-task","null","null","null","","arctic","swim","NA","","Q","null","NA","77","0","arctic-dual-task","","Q","uppercase","128000","1","1","9b32d2edeb9fe1b1d23d0dd9f8b3ffca02591e22406e930099b42ef979442973","128007.20000000298","NA","NA","0","arctic","","","","",""
"dual-task","null","null","null","","arctic","swim","434.59999999403954","","R","null","77","77","1","arctic-dual-task","","R","uppercase","140000","0","1","9b32d2edeb9fe1b1d23d0dd9f8b3ffca02591e22406e930099b42ef979442973","140008.5","434.59999999403954","77","1","arctic","","","","",""
"dual-task","null","null","null","","arctic","swim","460.6000000089407","","D","null","77","77","1","arctic-dual-task","","D","uppercase","152000","0","1","9b32d2edeb9fe1b1d23d0dd9f8b3ffca02591e22406e930099b42ef979442973","152002","460.6000000089407","77","1","arctic","","","","",""
"dual-task","null","null","null","","arctic","swim","498.20000000298023","","r","null","88","88","1","arctic-dual-task","","r","lowercase","160000","0","1","9b32d2edeb9fe1b1d23d0dd9f8b3ffca02591e22406e930099b42ef979442973","160004.20000000298","498.20000000298023","88","1","arctic","","","","",""
"dual-task","null","null","null","","arctic","swim","391.8999999910593","","t","null","88","88","1","arctic-dual-task","","t","lowercase","172000","0","1","9b32d2edeb9fe1b1d23d0dd9f8b3ffca02591e22406e930099b42ef979442973","172003.90000000596","391.8999999910593","88","1","arctic","","","","",""
"dual-task","null","null","null","","arctic","swim","411.29999999701977","","N","null","77","77","1","arctic-dual-task","","N","uppercase","180000","0","1","9b32d2edeb9fe1b1d23d0dd9f8b3ffca02591e22406e930099b42ef979442973","180008","411.29999999701977","77","1","arctic","","","","",""
"dual-task","null","null","null","","arctic","swim","394.20000000298023","","G","null","77","77","1","arctic-dual-task","","G","uppercase","188000","0","1","9b32d2edeb9fe1b1d23d0dd9f8b3ffca02591e22406e930099b42ef979442973","188014.29999999702","394.20000000298023","77","1","arctic","","","","",""
"dual-task","null","null","null","","arctic","swim","438.5","","A","null","77","77","1","arctic-dual-task","","A","uppercase","196000","0","1","9b32d2edeb9fe1b1d23d0dd9f8b3ffca02591e22406e930099b42ef979442973","196012","438.5","77","1","arctic","","","","",""
"dual-task","null","null","null","","arctic","swim","419.90000000596046","","a","null","88","88","1","arctic-dual-task","","a","lowercase","208000","0","1","9b32d2edeb9fe1b1d23d0dd9f8b3ffca02591e22406e930099b42ef979442973","208007.40000000596","419.90000000596046","88","1","arctic","","","","",""
"dual-task","null","null","null","","arctic","swim","445","","B","null","77","77","1","arctic-dual-task","","B","uppercase","218000","0","1","9b32d2edeb9fe1b1d23d0dd9f8b3ffca02591e22406e930099b42ef979442973","218007.5","445","77","1","arctic","","","","",""
"dual-task","null","null","null","","arctic","swim","482.20000000298023","","N","null","77","77","1","arctic-dual-task","","N","uppercase","228000","0","1","9b32d2edeb9fe1b1d23d0dd9f8b3ffca02591e22406e930099b42ef979442973","228013.20000000298","482.20000000298023","77","1","arctic","","","","",""
"dual-task","null","null","null","","arctic","swim","416.20000000298023","","D","null","77","77","1","arctic-dual-task","","D","uppercase","242000","0","1","9b32d2edeb9fe1b1d23d0dd9f8b3ffca02591e22406e930099b42ef979442973","242004.5","416.20000000298023","77","1","arctic","","","","",""
"dual-task","null","null","null","","arctic","swim","482.8999999910593","","g","null","88","88","1","arctic-dual-task","","g","lowercase","254000","0","1","9b32d2edeb9fe1b1d23d0dd9f8b3ffca02591e22406e930099b42ef979442973","254003.90000000596","482.8999999910593","88","1","arctic","","","","",""
"dual-task","null","null","null","","arctic","swim","570.2000000029802","","G","null","77","77","1","arctic-dual-task","","G","uppercase","260000","0","1","9b32d2edeb9fe1b1d23d0dd9f8b3ffca02591e22406e930099b42ef979442973","260004.09999999404","570.2000000029802","77","1","arctic","","","","",""
"dual-task","null","null","null","","arctic","swim","576.1000000089407","","d","null","88","88","1","arctic-dual-task","","d","lowercase","270000","0","1","9b32d2edeb9fe1b1d23d0dd9f8b3ffca02591e22406e930099b42ef979442973","270007.09999999404","576.1000000089407","88","1","arctic","","","","",""
"dual-task","null","null","null","","arctic","swim","592.6000000089407","","R","null","77","77","1","arctic-dual-task","","R","uppercase","282000","0","1","9b32d2edeb9fe1b1d23d0dd9f8b3ffca02591e22406e930099b42ef979442973","282011.09999999404","592.6000000089407","77","1","arctic","","","","",""
"dual-task","null","null","null","","arctic","swim","536.8999999910593","","h","null","88","88","1","arctic-dual-task","","h","lowercase","290000","0","1","9b32d2edeb9fe1b1d23d0dd9f8b3ffca02591e22406e930099b42ef979442973","290008.09999999404","536.8999999910593","88","1","arctic","","","","",""
"dual-task","null","null","null","","arctic","swim","469.70000000298023","","d","null","88","88","1","arctic-dual-task","","d","lowercase","300000","0","1","9b32d2edeb9fe1b1d23d0dd9f8b3ffca02591e22406e930099b42ef979442973","300011.299999997","469.70000000298023","88","1","arctic","","","","",""
"dual-task","null","null","null","","arctic","swim","418.29999999701977","","q","null","88","88","1","arctic-dual-task","","q","lowercase","312000","0","1","9b32d2edeb9fe1b1d23d0dd9f8b3ffca02591e22406e930099b42ef979442973","312015.09999999404","418.29999999701977","88","1","arctic","","","","",""
"dual-task","null","null","null","","arctic","swim","752.9000000059605","","T","null","77","77","1","arctic-dual-task","","T","uppercase","320000","0","1","9b32d2edeb9fe1b1d23d0dd9f8b3ffca02591e22406e930099b42ef979442973","320004","752.9000000059605","77","1","arctic","","","","",""
"dual-task","null","null","null","","arctic","swim","522.6000000089407","","G","null","77","77","1","arctic-dual-task","","G","uppercase","332000","0","1","9b32d2edeb9fe1b1d23d0dd9f8b3ffca02591e22406e930099b42ef979442973","332013.799999997","522.6000000089407","77","1","arctic","","","","",""
"dual-task","null","null","null","","arctic","swim","508.70000000298023","","e","null","88","88","1","arctic-dual-task","","e","lowercase","340000","0","1","9b32d2edeb9fe1b1d23d0dd9f8b3ffca02591e22406e930099b42ef979442973","340002.09999999404","508.70000000298023","88","1","arctic","","","","",""
"dual-task","null","null","null","","arctic","swim","537.8000000119209","","t","null","88","88","1","arctic-dual-task","","t","lowercase","352000","0","1","9b32d2edeb9fe1b1d23d0dd9f8b3ffca02591e22406e930099b42ef979442973","352004","537.8000000119209","88","1","arctic","","","","",""
"dual-task","null","null","null","","arctic","swim","474.29999999701977","","a","null","88","88","1","arctic-dual-task","","a","lowercase","360000","0","1","9b32d2edeb9fe1b1d23d0dd9f8b3ffca02591e22406e930099b42ef979442973","360003.799999997","474.29999999701977","88","1","arctic","","","","",""
"dual-task","null","null","null","","arctic","swim","707.1999999880791","","E","null","77","77","1","arctic-dual-task","","E","uppercase","368000","0","1","9b32d2edeb9fe1b1d23d0dd9f8b3ffca02591e22406e930099b42ef979442973","368012.200000003","707.1999999880791","77","1","arctic","","","","",""
"dual-task","null","null","null","","arctic","swim","587.7000000029802","","b","null","88","88","1","arctic-dual-task","","b","lowercase","382000","0","1","9b32d2edeb9fe1b1d23d0dd9f8b3ffca02591e22406e930099b42ef979442973","382008.299999997","587.7000000029802","88","1","arctic","","","","",""
"dual-task","null","null","null","","arctic","swim","512.2000000029802","","f","null","88","88","1","arctic-dual-task","","f","lowercase","396000","0","1","9b32d2edeb9fe1b1d23d0dd9f8b3ffca02591e22406e930099b42ef979442973","396001.09999999404","512.2000000029802","88","1","arctic","","","","",""
"dual-task","null","null","null","","arctic","swim","499.5","","r","null","88","88","1","arctic-dual-task","","r","lowercase","406000","0","1","9b32d2edeb9fe1b1d23d0dd9f8b3ffca02591e22406e930099b42ef979442973","406005.200000003","499.5","88","1","arctic","","","","",""
"dual-task","null","null","null","","arctic","swim","865","","Q","null","77","77","1","arctic-dual-task","","Q","uppercase","414000","0","1","9b32d2edeb9fe1b1d23d0dd9f8b3ffca02591e22406e930099b42ef979442973","414004","865","77","1","arctic","","","","",""
"dual-task","null","null","null","","arctic","swim","452.20000000298023","","H","null","77","77","1","arctic-dual-task","","H","uppercase","422000","0","1","9b32d2edeb9fe1b1d23d0dd9f8b3ffca02591e22406e930099b42ef979442973","422002","452.20000000298023","77","1","arctic","","","","",""
"dual-task","null","null","null","","arctic","swim","386.29999999701977","","R","null","77","77","1","arctic-dual-task","","R","uppercase","432000","0","1","9b32d2edeb9fe1b1d23d0dd9f8b3ffca02591e22406e930099b42ef979442973","432008.700000003","386.29999999701977","77","1","arctic","","","","",""
"dual-task","null","null","null","","arctic","swim","390.70000000298023","","n","null","88","88","1","arctic-dual-task","","n","lowercase","440000","0","1","9b32d2edeb9fe1b1d23d0dd9f8b3ffca02591e22406e930099b42ef979442973","440006.09999999404","390.70000000298023","88","1","arctic","","","","",""
"dual-task","null","null","null","","arctic","swim","647","","A","null","77","77","1","arctic-dual-task","","A","uppercase","454000","0","1","9b32d2edeb9fe1b1d23d0dd9f8b3ffca02591e22406e930099b42ef979442973","454013.09999999404","647","77","1","arctic","","","","",""
"dual-task","null","null","null","","arctic","swim","481.29999999701977","","q","null","88","88","1","arctic-dual-task","","q","lowercase","462000","0","1","9b32d2edeb9fe1b1d23d0dd9f8b3ffca02591e22406e930099b42ef979442973","462013.90000000596","481.29999999701977","88","1","arctic","","","","",""
"dual-task","null","null","null","","arctic","swim","412.5","","E","null","77","77","1","arctic-dual-task","","E","uppercase","472000","0","1","9b32d2edeb9fe1b1d23d0dd9f8b3ffca02591e22406e930099b42ef979442973","472006.09999999404","412.5","77","1","arctic","","","","",""
"dual-task","null","null","null","","arctic","swim","629.1999999880791","","H","null","77","77","1","arctic-dual-task","","H","uppercase","480000","0","1","9b32d2edeb9fe1b1d23d0dd9f8b3ffca02591e22406e930099b42ef979442973","480006.5","629.1999999880791","77","1","arctic","","","","",""
"dual-task","null","null","null","","arctic","swim","703","","t","null","88","88","1","arctic-dual-task","","t","lowercase","486000","0","1","9b32d2edeb9fe1b1d23d0dd9f8b3ffca02591e22406e930099b42ef979442973","486001.700000003","703","88","1","arctic","","","","",""
"dual-task","null","null","null","","arctic","swim","469.20000000298023","","T","null","77","77","1","arctic-dual-task","","T","uppercase","496000","0","1","9b32d2edeb9fe1b1d23d0dd9f8b3ffca02591e22406e930099b42ef979442973","496009","469.20000000298023","77","1","arctic","","","","",""
"dual-task","null","null","null","","arctic","swim","456.69999998807907","","N","null","77","77","1","arctic-dual-task","","N","uppercase","508000","0","1","9b32d2edeb9fe1b1d23d0dd9f8b3ffca02591e22406e930099b42ef979442973","508007.40000000596","456.69999998807907","77","1","arctic","","","","",""
"dual-task","null","null","null","","arctic","swim","426.20000000298023","","F","null","77","77","1","arctic-dual-task","","F","uppercase","514000","0","1","9b32d2edeb9fe1b1d23d0dd9f8b3ffca02591e22406e930099b42ef979442973","514011.09999999404","426.20000000298023","77","1","arctic","","","","",""
"dual-task","null","null","null","","arctic","swim","667.5","","a","null","88","88","1","arctic-dual-task","","a","lowercase","520000","0","1","9b32d2edeb9fe1b1d23d0dd9f8b3ffca02591e22406e930099b42ef979442973","520002","667.5","88","1","arctic","","","","",""
"dual-task","null","null","null","","arctic","swim","496.70000000298023","","f","null","88","88","1","arctic-dual-task","","f","lowercase","530000","0","1","9b32d2edeb9fe1b1d23d0dd9f8b3ffca02591e22406e930099b42ef979442973","530011","496.70000000298023","88","1","arctic","","","","",""
"dual-task","null","null","null","","arctic","swim","478.59999999403954","","a","null","88","88","1","arctic-dual-task","","a","lowercase","542000","0","1","9b32d2edeb9fe1b1d23d0dd9f8b3ffca02591e22406e930099b42ef979442973","542007.900000006","478.59999999403954","88","1","arctic","","","","",""
"dual-task","null","null","null","","arctic","swim","538.4000000059605","","q","null","88","88","1","arctic-dual-task","","q","lowercase","554000","0","1","9b32d2edeb9fe1b1d23d0dd9f8b3ffca02591e22406e930099b42ef979442973","554009.200000003","538.4000000059605","88","1","arctic","","","","",""
"dual-task","null","null","null","","arctic","swim","495.79999999701977","","F","null","77","77","1","arctic-dual-task","","F","uppercase","562000","0","1","9b32d2edeb9fe1b1d23d0dd9f8b3ffca02591e22406e930099b42ef979442973","562008.200000003","495.79999999701977","77","1","arctic","","","","",""
"dual-task","null","null","null","","arctic","swim","918.1000000089407","","d","null","77","88","0","arctic-dual-task","","d","lowercase","570000","0","1","9b32d2edeb9fe1b1d23d0dd9f8b3ffca02591e22406e930099b42ef979442973","570003.700000003","918.1000000089407","77","0","arctic","","","","",""
"dual-task","null","null","null","","arctic","swim","455.90000000596046","","B","null","77","77","1","arctic-dual-task","","B","uppercase","578000","0","1","9b32d2edeb9fe1b1d23d0dd9f8b3ffca02591e22406e930099b42ef979442973","578006.400000006","455.90000000596046","77","1","arctic","","","","",""
"dual-task","null","null","null","","arctic","swim","535.2000000029802","","b","null","88","88","1","arctic-dual-task","","b","lowercase","586000","0","1","9b32d2edeb9fe1b1d23d0dd9f8b3ffca02591e22406e930099b42ef979442973","586004.599999994","535.2000000029802","88","1","arctic","","","","",""
"dual-task","null","null","null","","arctic","swim","515.6000000089407","","q","null","88","88","1","arctic-dual-task","","q","lowercase","594000","0","1","9b32d2edeb9fe1b1d23d0dd9f8b3ffca02591e22406e930099b42ef979442973","594002.900000006","515.6000000089407","88","1","arctic","","","","",""
"dual-task","null","null","null","","arctic","swim","767","","E","null","77","77","1","arctic-dual-task","","E","uppercase","608000","0","1","9b32d2edeb9fe1b1d23d0dd9f8b3ffca02591e22406e930099b42ef979442973","608009.200000003","767","77","1","arctic","","","","",""
"dual-task","null","null","null","","arctic","swim","678","","Q","null","77","77","1","arctic-dual-task","","Q","uppercase","618000","0","1","9b32d2edeb9fe1b1d23d0dd9f8b3ffca02591e22406e930099b42ef979442973","618011.900000006","678","77","1","arctic","","","","",""
"dual-task","null","null","null","","arctic","swim","745.8000000119209","","T","null","77","77","1","arctic-dual-task","","T","uppercase","626000","0","1","9b32d2edeb9fe1b1d23d0dd9f8b3ffca02591e22406e930099b42ef979442973","626015.400000006","745.8000000119209","77","1","arctic","","","","",""
"dual-task","null","null","null","","arctic","swim","486.8999999910593","","G","null","77","77","1","arctic-dual-task","","G","uppercase","638000","0","1","9b32d2edeb9fe1b1d23d0dd9f8b3ffca02591e22406e930099b42ef979442973","638004.799999997","486.8999999910593","77","1","arctic","","","","",""
"dual-task","null","null","null","","arctic","swim","484.1000000089407","","H","null","77","77","1","arctic-dual-task","","H","uppercase","646000","0","1","9b32d2edeb9fe1b1d23d0dd9f8b3ffca02591e22406e930099b42ef979442973","646013.799999997","484.1000000089407","77","1","arctic","","","","",""
"dual-task","null","null","null","","arctic","swim","397.30000001192093","","N","null","77","77","1","arctic-dual-task","","N","uppercase","658000","0","1","9b32d2edeb9fe1b1d23d0dd9f8b3ffca02591e22406e930099b42ef979442973","658000.799999997","397.30000001192093","77","1","arctic","","","","",""
"dual-task","null","null","null","","arctic","swim","458.5","","b","null","88","88","1","arctic-dual-task","","b","lowercase","670000","0","1","9b32d2edeb9fe1b1d23d0dd9f8b3ffca02591e22406e930099b42ef979442973","670012.599999994","458.5","88","1","arctic","","","","",""
"dual-task","null","null","null","","arctic","swim","503.29999999701977","","g","null","88","88","1","arctic-dual-task","","g","lowercase","680000","0","1","9b32d2edeb9fe1b1d23d0dd9f8b3ffca02591e22406e930099b42ef979442973","680006.200000003","503.29999999701977","88","1","arctic","","","","",""
"dual-task","null","null","null","","arctic","swim","567.7999999970198","","d","null","88","88","1","arctic-dual-task","","d","lowercase","688000","0","1","9b32d2edeb9fe1b1d23d0dd9f8b3ffca02591e22406e930099b42ef979442973","688009.099999994","567.7999999970198","88","1","arctic","","","","",""
"dual-task","null","null","null","","arctic","swim","442.6000000089407","","F","null","77","77","1","arctic-dual-task","","F","uppercase","702000","0","1","9b32d2edeb9fe1b1d23d0dd9f8b3ffca02591e22406e930099b42ef979442973","702005.099999994","442.6000000089407","77","1","arctic","","","","",""
"dual-task","null","null","null","","arctic","swim","495.70000000298023","","A","null","77","77","1","arctic-dual-task","","A","uppercase","716000","0","1","9b32d2edeb9fe1b1d23d0dd9f8b3ffca02591e22406e930099b42ef979442973","716012.400000006","495.70000000298023","77","1","arctic","","","","",""
"dual-task","null","null","null","","arctic","swim","450.20000000298023","","E","null","77","77","1","arctic-dual-task","","E","uppercase","724000","0","1","9b32d2edeb9fe1b1d23d0dd9f8b3ffca02591e22406e930099b42ef979442973","724001.400000006","450.20000000298023","77","1","arctic","","","","",""
"dual-task","null","null","null","","arctic","swim","536.1000000089407","","n","null","88","88","1","arctic-dual-task","","n","lowercase","734000","0","1","9b32d2edeb9fe1b1d23d0dd9f8b3ffca02591e22406e930099b42ef979442973","734007.599999994","536.1000000089407","88","1","arctic","","","","",""
"dual-task","null","null","null","","arctic","swim","1470.7999999970198","","g","null","88","88","1","arctic-dual-task","","g","lowercase","744000","0","1","9b32d2edeb9fe1b1d23d0dd9f8b3ffca02591e22406e930099b42ef979442973","744005.799999997","1470.7999999970198","88","1","arctic","","","","",""
"dual-task","null","null","null","","arctic","swim","622.2000000029802","","e","null","88","88","1","arctic-dual-task","","e","lowercase","754000","0","1","9b32d2edeb9fe1b1d23d0dd9f8b3ffca02591e22406e930099b42ef979442973","754010.5","622.2000000029802","88","1","arctic","","","","",""
"dual-task","null","null","null","","arctic","swim","457.8999999910593","","n","null","88","88","1","arctic-dual-task","","n","lowercase","766000","0","1","9b32d2edeb9fe1b1d23d0dd9f8b3ffca02591e22406e930099b42ef979442973","766007.799999997","457.8999999910593","88","1","arctic","","","","",""
"dual-task","null","null","null","","arctic","swim","427.6000000089407","","B","null","77","77","1","arctic-dual-task","","B","uppercase","778000","0","1","9b32d2edeb9fe1b1d23d0dd9f8b3ffca02591e22406e930099b42ef979442973","778002.5","427.6000000089407","77","1","arctic","","","","",""
"dual-task","null","null","null","","arctic","swim","823.2000000029802","","r","null","88","88","1","arctic-dual-task","","r","lowercase","788000","0","1","9b32d2edeb9fe1b1d23d0dd9f8b3ffca02591e22406e930099b42ef979442973","788002.599999994","823.2000000029802","88","1","arctic","","","","",""
"audio-keyboard-response","29","904405","0.0-6.0-0.0-1.0","9b32d2edeb9fe1b1d23d0dd9f8b3ffca02591e22406e930099b42ef979442973","arctic","swim","null","","audio/story_arctic.mp3","","null","","","","","","","","","","","","","","","","","","","",""
"html-button-response","30","906911","0.0-6.0-0.0-2.0","9b32d2edeb9fe1b1d23d0dd9f8b3ffca02591e22406e930099b42ef979442973","arctic","swim","2504","","<p>This concludes the story. Thank you for listening.</p><p>You will now answer some questions about the content of the story.</p>","0","","","","","","","","","","","","","","","","","","","","",""
"survey-multi-choice","31","911826","0.0-6.0-0.0-3.0-0.0","9b32d2edeb9fe1b1d23d0dd9f8b3ffca02591e22406e930099b42ef979442973","arctic","swim","4910","","<b>How did the narrator&#39;s encounter with the polar bears end?</b>","","","","1","arctic-comprehension","","","","","","","","","","","","","{""Q0"":""The bears walked back to their den.""}","","","",""
"survey-multi-choice","32","914942","0.0-6.0-0.0-3.0-0.1","9b32d2edeb9fe1b1d23d0dd9f8b3ffca02591e22406e930099b42ef979442973","arctic","swim","2856","","<b>What is the name of the narrator&#39;s neighbour?</b>","","","","0","arctic-comprehension","","","","","","","","","","","","","{""Q0"":""Doug""}","","","",""
"survey-multi-choice","33","921609","0.0-6.0-0.0-3.0-0.2","9b32d2edeb9fe1b1d23d0dd9f8b3ffca02591e22406e930099b42ef979442973","arctic","swim","6410","","<b>What were the weather conditions in the Arctic like the winter of the narrator&#39;s expedition?</b>","","","","1","arctic-comprehension","","","","","","","","","","","","","{""Q0"":""There were more storms than any other winter in recorded history.""}","","","",""
"survey-multi-choice","34","925856","0.0-6.0-0.0-3.0-0.3","9b32d2edeb9fe1b1d23d0dd9f8b3ffca02591e22406e930099b42ef979442973","arctic","swim","3990","","<b>What was the objective of the narrator&#39;s expedition?</b>","","","","1","arctic-comprehension","","","","","","","","","","","","","{""Q0"":""Dogsled across Arctic America""}","","","",""
"survey-multi-choice","35","928845","0.0-6.0-0.0-3.0-0.4","9b32d2edeb9fe1b1d23d0dd9f8b3ffca02591e22406e930099b42ef979442973","arctic","swim","2722","","<b>How many sponsorships did the narrator receive to support her expedition?</b>","","","","1","arctic-comprehension","","","","","","","","","","","","","{""Q0"":""None""}","","","",""
"survey-multi-choice","36","932417","0.0-6.0-0.0-3.0-0.5","9b32d2edeb9fe1b1d23d0dd9f8b3ffca02591e22406e930099b42ef979442973","arctic","swim","3301","","<b>What did the narrator do for leisure while in her tent?</b>","","","","1","arctic-comprehension","","","","","","","","","","","","","{""Q0"":""Read""}","","","",""
"survey-multi-choice","37","936799","0.0-6.0-0.0-3.0-0.6","9b32d2edeb9fe1b1d23d0dd9f8b3ffca02591e22406e930099b42ef979442973","arctic","swim","4112","","<b>How did the dogs respond when they saw the bears?</b>","","","","1","arctic-comprehension","","","","","","","","","","","","","{""Q0"":""Approached them""}","","","",""
"survey-multi-choice","38","944907","0.0-6.0-0.0-3.0-0.7","9b32d2edeb9fe1b1d23d0dd9f8b3ffca02591e22406e930099b42ef979442973","arctic","swim","7854","","<b>How did the narrator&#39;s neighbour respond when she told him about her expedition?</b>","","","","1","arctic-comprehension","","","","","","","","","","","","","{""Q0"":""He said she was going to fail.""}","","","",""
"survey-multi-choice","39","948655","0.0-6.0-0.0-3.0-0.8","9b32d2edeb9fe1b1d23d0dd9f8b3ffca02591e22406e930099b42ef979442973","arctic","swim","3494","","<b>Which dog on the narrator&#39;s dog team never followed instructions?</b>","","","","1","arctic-comprehension","","","","","","","","","","","","","{""Q0"":""Robert""}","","","",""
"survey-multi-choice","40","955177","0.0-6.0-0.0-3.0-0.9","9b32d2edeb9fe1b1d23d0dd9f8b3ffca02591e22406e930099b42ef979442973","arctic","swim","6270","","<b>How did the narrator prepare for her expedition?</b>","","","","1","arctic-comprehension","","","","","","","","","","","","","{""Q0"":""Trained in Alaska learning how to dogsled""}","","","",""
"html-button-response","41","956443","0.0-6.0-0.0-4.0","9b32d2edeb9fe1b1d23d0dd9f8b3ffca02591e22406e930099b42ef979442973","arctic","swim","1014","","<p>Thank you for your responses.</p><p>You will now answer some questions about your impressions of the story.</p>","0","","","","","","","","","","","","","","","","","","","","",""
"html-button-response","42","960225","0.0-6.0-0.0-5.0-0.0","9b32d2edeb9fe1b1d23d0dd9f8b3ffca02591e22406e930099b42ef979442973","arctic","swim","3781","","MS2","5","","","","arctic-engagement","","","","","","","","","","","","","","6","mental-sim","",""
"html-button-response","43","962251","0.0-6.0-0.0-5.0-0.1","9b32d2edeb9fe1b1d23d0dd9f8b3ffca02591e22406e930099b42ef979442973","arctic","swim","1773","","EE5","5","","","","arctic-engagement","","","","","","","","","","","","","","6","emo-engage","",""
"html-button-response","44","964887","0.0-6.0-0.0-5.0-0.2","9b32d2edeb9fe1b1d23d0dd9f8b3ffca02591e22406e930099b42ef979442973","arctic","swim","2384","","A4","6","","","","arctic-engagement","","","","","","","","","","","","","","7","absorption","",""
"html-button-response","45","969855","0.0-6.0-0.0-5.0-0.3","9b32d2edeb9fe1b1d23d0dd9f8b3ffca02591e22406e930099b42ef979442973","arctic","swim","4715","","A5","5","","","","arctic-engagement","","","","","","","","","","","","","","6","absorption","",""
"html-button-response","46","971965","0.0-6.0-0.0-5.0-0.4","9b32d2edeb9fe1b1d23d0dd9f8b3ffca02591e22406e930099b42ef979442973","arctic","swim","1858","","E1","6","","","","arctic-engagement","","","","","","","","","","","","","","7","enjoyment","",""
"html-button-response","47","974306","0.0-6.0-0.0-5.0-0.5","9b32d2edeb9fe1b1d23d0dd9f8b3ffca02591e22406e930099b42ef979442973","arctic","swim","2088","","E7","6","","","","arctic-engagement","","","","","","","","","","","","","","7","enjoyment","",""
"html-button-response","48","977241","0.0-6.0-0.0-5.0-0.6","9b32d2edeb9fe1b1d23d0dd9f8b3ffca02591e22406e930099b42ef979442973","arctic","swim","2680","","EE2","5","","","","arctic-engagement","","","","","","","","","","","","","","6","emo-engage","",""
"html-button-response","49","979619","0.0-6.0-0.0-5.0-0.7","9b32d2edeb9fe1b1d23d0dd9f8b3ffca02591e22406e930099b42ef979442973","arctic","swim","2125","","MS3","5","","","","arctic-engagement","","","","","","","","","","","","","","6","mental-sim","",""
"html-button-response","50","986133","0.0-6.0-0.0-5.0-0.8","9b32d2edeb9fe1b1d23d0dd9f8b3ffca02591e22406e930099b42ef979442973","arctic","swim","6261","","EE1","5","","","","arctic-engagement","","","","","","","","","","","","","","6","emo-engage","",""
"html-button-response","51","988185","0.0-6.0-0.0-5.0-0.9","9b32d2edeb9fe1b1d23d0dd9f8b3ffca02591e22406e930099b42ef979442973","arctic","swim","1799","","EE3","5","","","","arctic-engagement","","","","","","","","","","","","","","6","emo-engage","",""
"html-button-response","52","991253","0.0-6.0-0.0-5.0-0.10","9b32d2edeb9fe1b1d23d0dd9f8b3ffca02591e22406e930099b42ef979442973","arctic","swim","2815","","A1","5","","","","arctic-engagement","","","","","","","","","","","","","","6","absorption","",""
"html-button-response","53","993462","0.0-6.0-0.0-5.0-0.11","9b32d2edeb9fe1b1d23d0dd9f8b3ffca02591e22406e930099b42ef979442973","arctic","swim","1957","","EE4","4","","","","arctic-engagement","","","","","","","","","","","","","","5","emo-engage","",""
"html-button-response","54","995272","0.0-6.0-0.0-5.0-0.12","9b32d2edeb9fe1b1d23d0dd9f8b3ffca02591e22406e930099b42ef979442973","arctic","swim","1556","","E10","6","","","","arctic-engagement","","","","","","","","","","","","","","7","enjoyment","",""
"html-button-response","55","997404","0.0-6.0-0.0-5.0-0.13","9b32d2edeb9fe1b1d23d0dd9f8b3ffca02591e22406e930099b42ef979442973","arctic","swim","1880","","A2","6","","","","arctic-engagement","","","","","","","","","","","","","","7","absorption","",""
"html-button-response","56","999319","0.0-6.0-0.0-5.0-0.14","9b32d2edeb9fe1b1d23d0dd9f8b3ffca02591e22406e930099b42ef979442973","arctic","swim","1662","","A3","5","","","","arctic-engagement","","","","","","","","","","","","","","6","absorption","",""
"html-button-response","57","1000937","0.0-6.0-0.0-5.0-0.15","9b32d2edeb9fe1b1d23d0dd9f8b3ffca02591e22406e930099b42ef979442973","arctic","swim","1365","","E8","5","","","","arctic-engagement","","","","","","","","","","","","","","6","enjoyment","",""
"html-button-response","58","1002578","0.0-6.0-0.0-5.0-0.16","9b32d2edeb9fe1b1d23d0dd9f8b3ffca02591e22406e930099b42ef979442973","arctic","swim","1389","","E6","6","","","","arctic-engagement","","","","","","","","","","","","","","7","enjoyment","",""
"html-button-response","59","1005298","0.0-6.0-0.0-5.0-0.17","9b32d2edeb9fe1b1d23d0dd9f8b3ffca02591e22406e930099b42ef979442973","arctic","swim","2468","","MS1","5","","","","arctic-engagement","","","","","","","","","","","","","","6","mental-sim","",""
"html-keyboard-response","60","1012166","0.0-6.0-1.0","9b32d2edeb9fe1b1d23d0dd9f8b3ffca02591e22406e930099b42ef979442973","arctic","swim","6617","","<p>Thank you for your responses. You will now listen to the second story.</p><p>Remember, as you listen to the story you will see letters appear on the screen.</br>As quickly as possible, press <b>&lt;x&gt;</b> if the letter is lowercase and <b>&lt;m&gt;</b> if the letter is uppercase.</p><p>Press <b>&lt;x&gt;</b> or <b>&lt;m&gt;</b> to begin listening!</p>","","77","","","","","","","","","","","","","","","","","","","",""
"html-keyboard-response","61","1012668","0.0-6.0-2.0-0.0","9b32d2edeb9fe1b1d23d0dd9f8b3ffca02591e22406e930099b42ef979442973","arctic","swim","null","","<div style=""font-size:60px;"" tabindex=""0"">+</div>","","null","","","","","","","","","","","","","","","","","","","",""
"dual-task","null","null","null","","arctic","swim","765.9000000059605","","F","null","77","77","1","swim-dual-task","","F","uppercase","10000","0","1","9b32d2edeb9fe1b1d23d0dd9f8b3ffca02591e22406e930099b42ef979442973","10006","765.9000000059605","77","1","swim","","","","",""
"dual-task","null","null","null","","arctic","swim","486.8999999910593","","e","null","88","88","1","swim-dual-task","","e","lowercase","18000","0","1","9b32d2edeb9fe1b1d23d0dd9f8b3ffca02591e22406e930099b42ef979442973","18004.5","486.8999999910593","88","1","swim","","","","",""
"dual-task","null","null","null","","arctic","swim","434.29999999701977","","n","null","88","88","1","swim-dual-task","","n","lowercase","28000","0","1","9b32d2edeb9fe1b1d23d0dd9f8b3ffca02591e22406e930099b42ef979442973","28004.39999999106","434.29999999701977","88","1","swim","","","","",""
"dual-task","null","null","null","","arctic","swim","355.8999999910593","","A","null","77","77","1","swim-dual-task","","A","uppercase","40000","0","1","9b32d2edeb9fe1b1d23d0dd9f8b3ffca02591e22406e930099b42ef979442973","40003.5","355.8999999910593","77","1","swim","","","","",""
"dual-task","null","null","null","","arctic","swim","353.69999998807907","","e","null","88","88","1","swim-dual-task","","e","lowercase","54000","0","1","9b32d2edeb9fe1b1d23d0dd9f8b3ffca02591e22406e930099b42ef979442973","54013.59999999404","353.69999998807907","88","1","swim","","","","",""
"dual-task","null","null","null","","arctic","swim","480.8999999910593","","N","null","77","77","1","swim-dual-task","","N","uppercase","62000","0","1","9b32d2edeb9fe1b1d23d0dd9f8b3ffca02591e22406e930099b42ef979442973","62015.29999999702","480.8999999910593","77","1","swim","","","","",""
"dual-task","null","null","null","","arctic","swim","374.5","","a","null","88","88","1","swim-dual-task","","a","lowercase","72000","0","1","9b32d2edeb9fe1b1d23d0dd9f8b3ffca02591e22406e930099b42ef979442973","72006.39999999106","374.5","88","1","swim","","","","",""
"dual-task","null","null","null","","arctic","swim","349.20000000298023","","E","null","77","77","1","swim-dual-task","","E","uppercase","82000","0","1","9b32d2edeb9fe1b1d23d0dd9f8b3ffca02591e22406e930099b42ef979442973","82009.70000000298","349.20000000298023","77","1","swim","","","","",""
"dual-task","null","null","null","","arctic","swim","415.70000000298023","","H","null","77","77","1","swim-dual-task","","H","uppercase","94000","0","1","9b32d2edeb9fe1b1d23d0dd9f8b3ffca02591e22406e930099b42ef979442973","94014.5","415.70000000298023","77","1","swim","","","","",""
"dual-task","null","null","null","","arctic","swim","459.5","","r","null","88","88","1","swim-dual-task","","r","lowercase","108000","0","1","9b32d2edeb9fe1b1d23d0dd9f8b3ffca02591e22406e930099b42ef979442973","108009.09999999404","459.5","88","1","swim","","","","",""
"dual-task","null","null","null","","arctic","swim","463.1000000089407","","E","null","77","77","1","swim-dual-task","","E","uppercase","116000","0","1","9b32d2edeb9fe1b1d23d0dd9f8b3ffca02591e22406e930099b42ef979442973","116008.70000000298","463.1000000089407","77","1","swim","","","","",""
"dual-task","null","null","null","","arctic","swim","1529.7999999970198","","t","null","88","88","1","swim-dual-task","","t","lowercase","124000","0","1","9b32d2edeb9fe1b1d23d0dd9f8b3ffca02591e22406e930099b42ef979442973","124007.79999999702","1529.7999999970198","88","1","swim","","","","",""
"dual-task","null","null","null","","arctic","swim","394.1000000089407","","t","null","77","88","0","swim-dual-task","","t","lowercase","136000","0","1","9b32d2edeb9fe1b1d23d0dd9f8b3ffca02591e22406e930099b42ef979442973","136001.29999999702","394.1000000089407","77","0","swim","","","","",""
"dual-task","null","null","null","","arctic","swim","460","","g","null","88","88","1","swim-dual-task","","g","lowercase","150000","0","1","9b32d2edeb9fe1b1d23d0dd9f8b3ffca02591e22406e930099b42ef979442973","150010.79999999702","460","88","1","swim","","","","",""
"dual-task","null","null","null","","arctic","swim","591.2000000029802","","h","null","88","88","1","swim-dual-task","","h","lowercase","162000","0","1","9b32d2edeb9fe1b1d23d0dd9f8b3ffca02591e22406e930099b42ef979442973","162009","591.2000000029802","88","1","swim","","","","",""
"dual-task","null","null","null","","arctic","swim","424.90000000596046","","a","null","88","88","1","swim-dual-task","","a","lowercase","174000","0","1","9b32d2edeb9fe1b1d23d0dd9f8b3ffca02591e22406e930099b42ef979442973","174004.70000000298","424.90000000596046","88","1","swim","","","","",""
"dual-task","null","null","null","","arctic","swim","437.40000000596046","","A","null","77","77","1","swim-dual-task","","A","uppercase","184000","0","1","9b32d2edeb9fe1b1d23d0dd9f8b3ffca02591e22406e930099b42ef979442973","184008.20000000298","437.40000000596046","77","1","swim","","","","",""
"dual-task","null","null","null","","arctic","swim","440.69999998807907","","n","null","88","88","1","swim-dual-task","","n","lowercase","196000","0","1","9b32d2edeb9fe1b1d23d0dd9f8b3ffca02591e22406e930099b42ef979442973","196015.5","440.69999998807907","88","1","swim","","","","",""
"dual-task","null","null","null","","arctic","swim","515.5","","G","null","77","77","1","swim-dual-task","","G","uppercase","210000","0","1","9b32d2edeb9fe1b1d23d0dd9f8b3ffca02591e22406e930099b42ef979442973","210004.20000000298","515.5","77","1","swim","","","","",""
"dual-task","null","null","null","","arctic","swim","286.09999999403954","","h","null","88","88","1","swim-dual-task","","h","lowercase","220000","0","1","9b32d2edeb9fe1b1d23d0dd9f8b3ffca02591e22406e930099b42ef979442973","220009","286.09999999403954","88","1","swim","","","","",""
"dual-task","null","null","null","","arctic","swim","379.59999999403954","","H","null","77","77","1","swim-dual-task","","H","uppercase","230000","0","1","9b32d2edeb9fe1b1d23d0dd9f8b3ffca02591e22406e930099b42ef979442973","230000.5","379.59999999403954","77","1","swim","","","","",""
"dual-task","null","null","null","","arctic","swim","438.40000000596046","","f","null","88","88","1","swim-dual-task","","f","lowercase","238000","0","1","9b32d2edeb9fe1b1d23d0dd9f8b3ffca02591e22406e930099b42ef979442973","238014.5","438.40000000596046","88","1","swim","","","","",""
"dual-task","null","null","null","","arctic","swim","319.29999999701977","","q","null","88","88","1","swim-dual-task","","q","lowercase","246000","0","1","9b32d2edeb9fe1b1d23d0dd9f8b3ffca02591e22406e930099b42ef979442973","246015.79999999702","319.29999999701977","88","1","swim","","","","",""
"dual-task","null","null","null","","arctic","swim","391.3999999910593","","N","null","77","77","1","swim-dual-task","","N","uppercase","258000","0","1","9b32d2edeb9fe1b1d23d0dd9f8b3ffca02591e22406e930099b42ef979442973","258006.29999999702","391.3999999910593","77","1","swim","","","","",""
"dual-task","null","null","null","","arctic","swim","373.8999999910593","","d","null","88","88","1","swim-dual-task","","d","lowercase","268000","0","1","9b32d2edeb9fe1b1d23d0dd9f8b3ffca02591e22406e930099b42ef979442973","268009.39999999106","373.8999999910593","88","1","swim","","","","",""
"dual-task","null","null","null","","arctic","swim","376","","Q","null","77","77","1","swim-dual-task","","Q","uppercase","282000","0","1","9b32d2edeb9fe1b1d23d0dd9f8b3ffca02591e22406e930099b42ef979442973","282002.09999999404","376","77","1","swim","","","","",""
"dual-task","null","null","null","","arctic","swim","428.5","","B","null","77","77","1","swim-dual-task","","B","uppercase","288000","0","1","9b32d2edeb9fe1b1d23d0dd9f8b3ffca02591e22406e930099b42ef979442973","288006.700000003","428.5","77","1","swim","","","","",""
"dual-task","null","null","null","","arctic","swim","510.79999999701977","","b","null","88","88","1","swim-dual-task","","b","lowercase","302000","0","1","9b32d2edeb9fe1b1d23d0dd9f8b3ffca02591e22406e930099b42ef979442973","302015.09999999404","510.79999999701977","88","1","swim","","","","",""
"dual-task","null","null","null","","arctic","swim","405.5","","b","null","88","88","1","swim-dual-task","","b","lowercase","312000","0","1","9b32d2edeb9fe1b1d23d0dd9f8b3ffca02591e22406e930099b42ef979442973","312003.200000003","405.5","88","1","swim","","","","",""
"dual-task","null","null","null","","arctic","swim","433.20000000298023","","B","null","77","77","1","swim-dual-task","","B","uppercase","322000","0","1","9b32d2edeb9fe1b1d23d0dd9f8b3ffca02591e22406e930099b42ef979442973","322006.59999999404","433.20000000298023","77","1","swim","","","","",""
"dual-task","null","null","null","","arctic","swim","316.5","","Q","null","77","77","1","swim-dual-task","","Q","uppercase","330000","0","1","9b32d2edeb9fe1b1d23d0dd9f8b3ffca02591e22406e930099b42ef979442973","330014.799999997","316.5","77","1","swim","","","","",""
"dual-task","null","null","null","","arctic","swim","395.5","","T","null","77","77","1","swim-dual-task","","T","uppercase","340000","0","1","9b32d2edeb9fe1b1d23d0dd9f8b3ffca02591e22406e930099b42ef979442973","340007","395.5","77","1","swim","","","","",""
"dual-task","null","null","null","","arctic","swim","432.40000000596046","","a","null","88","88","1","swim-dual-task","","a","lowercase","350000","0","1","9b32d2edeb9fe1b1d23d0dd9f8b3ffca02591e22406e930099b42ef979442973","350010.700000003","432.40000000596046","88","1","swim","","","","",""
"dual-task","null","null","null","","arctic","swim","398.29999999701977","","G","null","77","77","1","swim-dual-task","","G","uppercase","362000","0","1","9b32d2edeb9fe1b1d23d0dd9f8b3ffca02591e22406e930099b42ef979442973","362015.39999999106","398.29999999701977","77","1","swim","","","","",""
"dual-task","null","null","null","","arctic","swim","391.5","","d","null","77","88","0","swim-dual-task","","d","lowercase","372000","0","1","9b32d2edeb9fe1b1d23d0dd9f8b3ffca02591e22406e930099b42ef979442973","372005.799999997","391.5","77","0","swim","","","","",""
"dual-task","null","null","null","","arctic","swim","513","","r","null","88","88","1","swim-dual-task","","r","lowercase","380000","0","1","9b32d2edeb9fe1b1d23d0dd9f8b3ffca02591e22406e930099b42ef979442973","380001.89999999106","513","88","1","swim","","","","",""
"dual-task","null","null","null","","arctic","swim","380.3999999910593","","n","null","88","88","1","swim-dual-task","","n","lowercase","390000","0","1","9b32d2edeb9fe1b1d23d0dd9f8b3ffca02591e22406e930099b42ef979442973","390013.09999999404","380.3999999910593","88","1","swim","","","","",""
"dual-task","null","null","null","","arctic","swim","964.0999999940395","","D","null","77","77","1","swim-dual-task","","D","uppercase","396000","0","1","9b32d2edeb9fe1b1d23d0dd9f8b3ffca02591e22406e930099b42ef979442973","396005.89999999106","964.0999999940395","77","1","swim","","","","",""
"dual-task","null","null","null","","arctic","swim","403","","D","null","88","77","0","swim-dual-task","","D","uppercase","406000","0","1","9b32d2edeb9fe1b1d23d0dd9f8b3ffca02591e22406e930099b42ef979442973","406006","403","88","0","swim","","","","",""
"dual-task","null","null","null","","arctic","swim","526.5","","f","null","88","88","1","swim-dual-task","","f","lowercase","416000","0","1","9b32d2edeb9fe1b1d23d0dd9f8b3ffca02591e22406e930099b42ef979442973","416014.89999999106","526.5","88","1","swim","","","","",""
"dual-task","null","null","null","","arctic","swim","442.79999999701977","","g","null","88","88","1","swim-dual-task","","g","lowercase","422000","0","1","9b32d2edeb9fe1b1d23d0dd9f8b3ffca02591e22406e930099b42ef979442973","422009.89999999106","442.79999999701977","88","1","swim","","","","",""
"dual-task","null","null","null","","arctic","swim","634.2999999970198","","R","null","77","77","1","swim-dual-task","","R","uppercase","428000","0","1","9b32d2edeb9fe1b1d23d0dd9f8b3ffca02591e22406e930099b42ef979442973","428005.700000003","634.2999999970198","77","1","swim","","","","",""
"dual-task","null","null","null","","arctic","swim","422.8999999910593","","q","null","88","88","1","swim-dual-task","","q","lowercase","438000","0","1","9b32d2edeb9fe1b1d23d0dd9f8b3ffca02591e22406e930099b42ef979442973","438009.5","422.8999999910593","88","1","swim","","","","",""
"dual-task","null","null","null","","arctic","swim","591.6999999880791","","f","null","88","88","1","swim-dual-task","","f","lowercase","444000","0","1","9b32d2edeb9fe1b1d23d0dd9f8b3ffca02591e22406e930099b42ef979442973","444011","591.6999999880791","88","1","swim","","","","",""
"dual-task","null","null","null","","arctic","swim","513","","A","null","77","77","1","swim-dual-task","","A","uppercase","452000","0","1","9b32d2edeb9fe1b1d23d0dd9f8b3ffca02591e22406e930099b42ef979442973","452005","513","77","1","swim","","","","",""
"dual-task","null","null","null","","arctic","swim","482","","R","null","77","77","1","swim-dual-task","","R","uppercase","460000","0","1","9b32d2edeb9fe1b1d23d0dd9f8b3ffca02591e22406e930099b42ef979442973","460015.700000003","482","77","1","swim","","","","",""
"dual-task","null","null","null","","arctic","swim","441.29999999701977","","t","null","88","88","1","swim-dual-task","","t","lowercase","474000","0","1","9b32d2edeb9fe1b1d23d0dd9f8b3ffca02591e22406e930099b42ef979442973","474011.299999997","441.29999999701977","88","1","swim","","","","",""
"dual-task","null","null","null","","arctic","swim","445","","b","null","88","88","1","swim-dual-task","","b","lowercase","486000","0","1","9b32d2edeb9fe1b1d23d0dd9f8b3ffca02591e22406e930099b42ef979442973","486008.700000003","445","88","1","swim","","","","",""
"dual-task","null","null","null","","arctic","swim","544.5999999940395","","T","null","77","77","1","swim-dual-task","","T","uppercase","494000","0","1","9b32d2edeb9fe1b1d23d0dd9f8b3ffca02591e22406e930099b42ef979442973","494008.700000003","544.5999999940395","77","1","swim","","","","",""
"dual-task","null","null","null","","arctic","swim","786.8999999910593","","A","null","77","77","1","swim-dual-task","","A","uppercase","508000","0","1","9b32d2edeb9fe1b1d23d0dd9f8b3ffca02591e22406e930099b42ef979442973","508008.5","786.8999999910593","77","1","swim","","","","",""
"dual-task","null","null","null","","arctic","swim","447.20000000298023","","T","null","77","77","1","swim-dual-task","","T","uppercase","522000","0","1","9b32d2edeb9fe1b1d23d0dd9f8b3ffca02591e22406e930099b42ef979442973","522003.39999999106","447.20000000298023","77","1","swim","","","","",""
"dual-task","null","null","null","","arctic","swim","560.3000000119209","","d","null","88","88","1","swim-dual-task","","d","lowercase","532000","0","1","9b32d2edeb9fe1b1d23d0dd9f8b3ffca02591e22406e930099b42ef979442973","532012.700000003","560.3000000119209","88","1","swim","","","","",""
"dual-task","null","null","null","","arctic","swim","422.70000000298023","","h","null","88","88","1","swim-dual-task","","h","lowercase","544000","0","1","9b32d2edeb9fe1b1d23d0dd9f8b3ffca02591e22406e930099b42ef979442973","544009.599999994","422.70000000298023","88","1","swim","","","","",""
"dual-task","null","null","null","","arctic","swim","657.3999999910593","","N","null","77","77","1","swim-dual-task","","N","uppercase","558000","0","1","9b32d2edeb9fe1b1d23d0dd9f8b3ffca02591e22406e930099b42ef979442973","558001.099999994","657.3999999910593","77","1","swim","","","","",""
"dual-task","null","null","null","","arctic","swim","476.3999999910593","","N","null","77","77","1","swim-dual-task","","N","uppercase","564000","0","1","9b32d2edeb9fe1b1d23d0dd9f8b3ffca02591e22406e930099b42ef979442973","564004.8999999911","476.3999999910593","77","1","swim","","","","",""
"dual-task","null","null","null","","arctic","swim","500.19999998807907","","t","null","88","88","1","swim-dual-task","","t","lowercase","574000","0","1","9b32d2edeb9fe1b1d23d0dd9f8b3ffca02591e22406e930099b42ef979442973","574015.099999994","500.19999998807907","88","1","swim","","","","",""
"dual-task","null","null","null","","arctic","swim","418.6000000089407","","h","null","88","88","1","swim-dual-task","","h","lowercase","582000","0","1","9b32d2edeb9fe1b1d23d0dd9f8b3ffca02591e22406e930099b42ef979442973","582008.8999999911","418.6000000089407","88","1","swim","","","","",""
"dual-task","null","null","null","","arctic","swim","413.5","","e","null","88","88","1","swim-dual-task","","e","lowercase","592000","0","1","9b32d2edeb9fe1b1d23d0dd9f8b3ffca02591e22406e930099b42ef979442973","592014.700000003","413.5","88","1","swim","","","","",""
"dual-task","null","null","null","","arctic","swim","503.70000000298023","","f","null","88","88","1","swim-dual-task","","f","lowercase","606000","0","1","9b32d2edeb9fe1b1d23d0dd9f8b3ffca02591e22406e930099b42ef979442973","606000.8999999911","503.70000000298023","88","1","swim","","","","",""
"dual-task","null","null","null","","arctic","swim","905.4000000059605","","q","null","88","88","1","swim-dual-task","","q","lowercase","612000","0","1","9b32d2edeb9fe1b1d23d0dd9f8b3ffca02591e22406e930099b42ef979442973","612013.599999994","905.4000000059605","88","1","swim","","","","",""
"dual-task","null","null","null","","arctic","swim","680.2000000029802","","Q","null","77","77","1","swim-dual-task","","Q","uppercase","620000","0","1","9b32d2edeb9fe1b1d23d0dd9f8b3ffca02591e22406e930099b42ef979442973","620014.5","680.2000000029802","77","1","swim","","","","",""
"dual-task","null","null","null","","arctic","swim","1010.7000000029802","","d","null","88","88","1","swim-dual-task","","d","lowercase","628000","0","1","9b32d2edeb9fe1b1d23d0dd9f8b3ffca02591e22406e930099b42ef979442973","628012.799999997","1010.7000000029802","88","1","swim","","","","",""
"dual-task","null","null","null","","arctic","swim","456.40000000596046","","B","null","77","77","1","swim-dual-task","","B","uppercase","636000","0","1","9b32d2edeb9fe1b1d23d0dd9f8b3ffca02591e22406e930099b42ef979442973","636007.700000003","456.40000000596046","77","1","swim","","","","",""
"dual-task","null","null","null","","arctic","swim","484.79999999701977","","E","null","77","77","1","swim-dual-task","","E","uppercase","646000","0","1","9b32d2edeb9fe1b1d23d0dd9f8b3ffca02591e22406e930099b42ef979442973","646012.3999999911","484.79999999701977","77","1","swim","","","","",""
"dual-task","null","null","null","","arctic","swim","616.3000000119209","","a","null","88","88","1","swim-dual-task","","a","lowercase","656000","0","1","9b32d2edeb9fe1b1d23d0dd9f8b3ffca02591e22406e930099b42ef979442973","656013.799999997","616.3000000119209","88","1","swim","","","","",""
"dual-task","null","null","null","","arctic","swim","419.80000001192093","","B","null","77","77","1","swim-dual-task","","B","uppercase","664000","0","1","9b32d2edeb9fe1b1d23d0dd9f8b3ffca02591e22406e930099b42ef979442973","664002.3999999911","419.80000001192093","77","1","swim","","","","",""
"dual-task","null","null","null","","arctic","swim","445.70000000298023","","H","null","77","77","1","swim-dual-task","","H","uppercase","676000","0","1","9b32d2edeb9fe1b1d23d0dd9f8b3ffca02591e22406e930099b42ef979442973","676008.700000003","445.70000000298023","77","1","swim","","","","",""
"dual-task","null","null","null","","arctic","swim","634.2999999970198","","r","null","88","88","1","swim-dual-task","","r","lowercase","688000","0","1","9b32d2edeb9fe1b1d23d0dd9f8b3ffca02591e22406e930099b42ef979442973","688008.299999997","634.2999999970198","88","1","swim","","","","",""
"dual-task","null","null","null","","arctic","swim","574.2000000029802","","b","null","88","88","1","swim-dual-task","","b","lowercase","694000","0","1","9b32d2edeb9fe1b1d23d0dd9f8b3ffca02591e22406e930099b42ef979442973","694010.200000003","574.2000000029802","88","1","swim","","","","",""
"dual-task","null","null","null","","arctic","swim","397.70000000298023","","R","null","77","77","1","swim-dual-task","","R","uppercase","704000","0","1","9b32d2edeb9fe1b1d23d0dd9f8b3ffca02591e22406e930099b42ef979442973","704016","397.70000000298023","77","1","swim","","","","",""
"dual-task","null","null","null","","arctic","swim","775.7999999970198","","q","null","88","88","1","swim-dual-task","","q","lowercase","712000","0","1","9b32d2edeb9fe1b1d23d0dd9f8b3ffca02591e22406e930099b42ef979442973","712014.5","775.7999999970198","88","1","swim","","","","",""
"dual-task","null","null","null","","arctic","swim","1426.1000000089407","","D","null","77","77","1","swim-dual-task","","D","uppercase","722000","0","1","9b32d2edeb9fe1b1d23d0dd9f8b3ffca02591e22406e930099b42ef979442973","722012.5","1426.1000000089407","77","1","swim","","","","",""
"dual-task","null","null","null","","arctic","swim","564.9000000059605","","H","null","77","77","1","swim-dual-task","","H","uppercase","734000","0","1","9b32d2edeb9fe1b1d23d0dd9f8b3ffca02591e22406e930099b42ef979442973","734008.3999999911","564.9000000059605","77","1","swim","","","","",""
"dual-task","null","null","null","","arctic","swim","363","","R","null","77","77","1","swim-dual-task","","R","uppercase","746000","0","1","9b32d2edeb9fe1b1d23d0dd9f8b3ffca02591e22406e930099b42ef979442973","746001.099999994","363","77","1","swim","","","","",""
"dual-task","null","null","null","","arctic","swim","426.1000000089407","","G","null","77","77","1","swim-dual-task","","G","uppercase","760000","0","1","9b32d2edeb9fe1b1d23d0dd9f8b3ffca02591e22406e930099b42ef979442973","760006.5","426.1000000089407","77","1","swim","","","","",""
"dual-task","null","null","null","","arctic","swim","NA","","F","null","NA","77","0","swim-dual-task","","F","uppercase","766000","1","1","9b32d2edeb9fe1b1d23d0dd9f8b3ffca02591e22406e930099b42ef979442973","766007.299999997","NA","NA","0","swim","","","","",""
"dual-task","null","null","null","","arctic","swim","425.29999999701977","","T","null","77","77","1","swim-dual-task","","T","uppercase","778000","0","1","9b32d2edeb9fe1b1d23d0dd9f8b3ffca02591e22406e930099b42ef979442973","778004.099999994","425.29999999701977","77","1","swim","","","","",""
"dual-task","null","null","null","","arctic","swim","439.79999999701977","","F","null","77","77","1","swim-dual-task","","F","uppercase","788000","0","1","9b32d2edeb9fe1b1d23d0dd9f8b3ffca02591e22406e930099b42ef979442973","788014.799999997","439.79999999701977","77","1","swim","","","","",""
"dual-task","null","null","null","","arctic","swim","449.8999999910593","","g","null","77","88","0","swim-dual-task","","g","lowercase","794000","0","1","9b32d2edeb9fe1b1d23d0dd9f8b3ffca02591e22406e930099b42ef979442973","794002.099999994","449.8999999910593","77","0","swim","","","","",""
"audio-keyboard-response","62","1822692","0.0-6.0-2.0-1.0","9b32d2edeb9fe1b1d23d0dd9f8b3ffca02591e22406e930099b42ef979442973","arctic","swim","null","","audio/story_swim_scrambled.mp3","","null","","","","","","","","","","","","","","","","","","","",""
"html-button-response","63","1825733","0.0-6.0-2.0-2.0","9b32d2edeb9fe1b1d23d0dd9f8b3ffca02591e22406e930099b42ef979442973","arctic","swim","3041","","<p>This concludes the story. Thank you for listening.</p><p>You will now answer some questions about the content of the story.</p>","0","","","","","","","","","","","","","","","","","","","","",""
"survey-multi-choice","64","1829307","0.0-6.0-2.0-3.0-0.0","9b32d2edeb9fe1b1d23d0dd9f8b3ffca02591e22406e930099b42ef979442973","arctic","swim","3572","","<b>How many astronaut candidates passed the first swim test?</b>","","","","1","swim-comprehension","","","","","","","","","","","","","{""Q0"":""All of them""}","","","",""
"survey-multi-choice","65","1835950","0.0-6.0-2.0-3.0-0.1","9b32d2edeb9fe1b1d23d0dd9f8b3ffca02591e22406e930099b42ef979442973","arctic","swim","6385","","<b>What were the astronaut candidates trained to do at the naval air station?</b>","","","","1","swim-comprehension","","","","","","","","","","","","","{""Q0"":""Eject out of aircraft and survive in water long enough to be rescued""}","","","",""
"survey-multi-choice","66","1842886","0.0-6.0-2.0-3.0-0.2","9b32d2edeb9fe1b1d23d0dd9f8b3ffca02591e22406e930099b42ef979442973","arctic","swim","6669","","<b>How did the narrator train for his swim test?</b>","","","","1","swim-comprehension","","","","","","","","","","","","","{""Q0"":""Took his kids to the pool every day""}","","","",""
"survey-multi-choice","67","1847508","0.0-6.0-2.0-3.0-0.3","9b32d2edeb9fe1b1d23d0dd9f8b3ffca02591e22406e930099b42ef979442973","arctic","swim","4365","","<b>How many astronaut candidates reported for duty at the Johnson Space Center?</b>","","","","1","swim-comprehension","","","","","","","","","","","","","{""Q0"":""Forty-four""}","","","",""
"survey-multi-choice","68","1853551","0.0-6.0-2.0-3.0-0.4","9b32d2edeb9fe1b1d23d0dd9f8b3ffca02591e22406e930099b42ef979442973","arctic","swim","5782","","<b>How often does the narrator swim, now that he is a good swimmer?</b>","","","","1","swim-comprehension","","","","","","","","","","","","","{""Q0"":""Never swam again in his life""}","","","",""
"survey-multi-choice","69","1857347","0.0-6.0-2.0-3.0-0.5","9b32d2edeb9fe1b1d23d0dd9f8b3ffca02591e22406e930099b42ef979442973","arctic","swim","3542","","<b>What is the narrator afraid of, aside from the water?</b>","","","","1","swim-comprehension","","","","","","","","","","","","","{""Q0"":""Heights""}","","","",""
"survey-multi-choice","70","1862388","0.0-6.0-2.0-3.0-0.6","9b32d2edeb9fe1b1d23d0dd9f8b3ffca02591e22406e930099b42ef979442973","arctic","swim","4787","","<b>How many times did the astronaut candidates have to complete the final exercise to pass?</b>","","","","1","swim-comprehension","","","","","","","","","","","","","{""Q0"":""Two""}","","","",""
"survey-multi-choice","71","1869366","0.0-6.0-2.0-3.0-0.7","9b32d2edeb9fe1b1d23d0dd9f8b3ffca02591e22406e930099b42ef979442973","arctic","swim","6724","","<b>What gave the narrator his greatest feeling of accomplishment?</b>","","","","1","swim-comprehension","","","","","","","","","","","","","{""Q0"":""Passing the water survival course""}","","","",""
"survey-multi-choice","72","1877432","0.0-6.0-2.0-3.0-0.8","9b32d2edeb9fe1b1d23d0dd9f8b3ffca02591e22406e930099b42ef979442973","arctic","swim","7807","","<b>What was the final step of the first swim test in the pool?</b>","","","","1","swim-comprehension","","","","","","","","","","","","","{""Q0"":""Tread water with hands above the water""}","","","",""
"survey-multi-choice","73","1884952","0.0-6.0-2.0-3.0-0.9","9b32d2edeb9fe1b1d23d0dd9f8b3ffca02591e22406e930099b42ef979442973","arctic","swim","7264","","<b>Where is the home of naval aviation?</b>","","","","1","swim-comprehension","","","","","","","","","","","","","{""Q0"":""Pensacola""}","","","",""
"html-button-response","74","1886353","0.0-6.0-2.0-4.0","9b32d2edeb9fe1b1d23d0dd9f8b3ffca02591e22406e930099b42ef979442973","arctic","swim","1149","","<p>Thank you for your responses.</p><p>You will now answer some questions about your impressions of the story.</p>","0","","","","","","","","","","","","","","","","","","","","",""
"html-button-response","75","1888284","0.0-6.0-2.0-5.0-0.0","9b32d2edeb9fe1b1d23d0dd9f8b3ffca02591e22406e930099b42ef979442973","arctic","swim","1929","","EE2","3","","","","swim-engagement","","","","","","","","","","","","","","4","emo-engage","",""
"html-button-response","76","1890160","0.0-6.0-2.0-5.0-0.1","9b32d2edeb9fe1b1d23d0dd9f8b3ffca02591e22406e930099b42ef979442973","arctic","swim","1622","","E7","3","","","","swim-engagement","","","","","","","","","","","","","","4","enjoyment","",""
"html-button-response","77","1891978","0.0-6.0-2.0-5.0-0.2","9b32d2edeb9fe1b1d23d0dd9f8b3ffca02591e22406e930099b42ef979442973","arctic","swim","1566","","EE3","2","","","","swim-engagement","","","","","","","","","","","","","","3","emo-engage","",""
"html-button-response","78","1894622","0.0-6.0-2.0-5.0-0.3","9b32d2edeb9fe1b1d23d0dd9f8b3ffca02591e22406e930099b42ef979442973","arctic","swim","2392","","A5","1","","","","swim-engagement","","","","","","","","","","","","","","2","absorption","",""
"html-button-response","79","1898534","0.0-6.0-2.0-5.0-0.4","9b32d2edeb9fe1b1d23d0dd9f8b3ffca02591e22406e930099b42ef979442973","arctic","swim","3660","","EE1","2","","","","swim-engagement","","","","","","","","","","","","","","3","emo-engage","",""
"html-button-response","80","1901442","0.0-6.0-2.0-5.0-0.5","9b32d2edeb9fe1b1d23d0dd9f8b3ffca02591e22406e930099b42ef979442973","arctic","swim","2656","","MS1","3","","","","swim-engagement","","","","","","","","","","","","","","4","mental-sim","",""
"html-button-response","81","1904790","0.0-6.0-2.0-5.0-0.6","9b32d2edeb9fe1b1d23d0dd9f8b3ffca02591e22406e930099b42ef979442973","arctic","swim","3095","","E10","2","","","","swim-engagement","","","","","","","","","","","","","","3","enjoyment","",""
"html-button-response","82","1907852","0.0-6.0-2.0-5.0-0.7","9b32d2edeb9fe1b1d23d0dd9f8b3ffca02591e22406e930099b42ef979442973","arctic","swim","2809","","A4","1","","","","swim-engagement","","","","","","","","","","","","","","2","absorption","",""
"html-button-response","83","1910424","0.0-6.0-2.0-5.0-0.8","9b32d2edeb9fe1b1d23d0dd9f8b3ffca02591e22406e930099b42ef979442973","arctic","swim","2320","","E8","1","","","","swim-engagement","","","","","","","","","","","","","","2","enjoyment","",""
"html-button-response","84","1914688","0.0-6.0-2.0-5.0-0.9","9b32d2edeb9fe1b1d23d0dd9f8b3ffca02591e22406e930099b42ef979442973","arctic","swim","4013","","A1","0","","","","swim-engagement","","","","","","","","","","","","","","1","absorption","",""
"html-button-response","85","1918302","0.0-6.0-2.0-5.0-0.10","9b32d2edeb9fe1b1d23d0dd9f8b3ffca02591e22406e930099b42ef979442973","arctic","swim","3361","","MS2","2","","","","swim-engagement","","","","","","","","","","","","","","3","mental-sim","",""
"html-button-response","86","1920882","0.0-6.0-2.0-5.0-0.11","9b32d2edeb9fe1b1d23d0dd9f8b3ffca02591e22406e930099b42ef979442973","arctic","swim","2328","","A2","2","","","","swim-engagement","","","","","","","","","","","","","","3","absorption","",""
"html-button-response","87","1922782","0.0-6.0-2.0-5.0-0.12","9b32d2edeb9fe1b1d23d0dd9f8b3ffca02591e22406e930099b42ef979442973","arctic","swim","1647","","EE4","1","","","","swim-engagement","","","","","","","","","","","","","","2","emo-engage","",""
"html-button-response","88","1924887","0.0-6.0-2.0-5.0-0.13","9b32d2edeb9fe1b1d23d0dd9f8b3ffca02591e22406e930099b42ef979442973","arctic","swim","1854","","EE5","1","","","","swim-engagement","","","","","","","","","","","","","","2","emo-engage","",""
"html-button-response","89","1927045","0.0-6.0-2.0-5.0-0.14","9b32d2edeb9fe1b1d23d0dd9f8b3ffca02591e22406e930099b42ef979442973","arctic","swim","1904","","E6","2","","","","swim-engagement","","","","","","","","","","","","","","3","enjoyment","",""
"html-button-response","90","1928518","0.0-6.0-2.0-5.0-0.15","9b32d2edeb9fe1b1d23d0dd9f8b3ffca02591e22406e930099b42ef979442973","arctic","swim","1220","","A3","2","","","","swim-engagement","","","","","","","","","","","","","","3","absorption","",""
"html-button-response","91","1930874","0.0-6.0-2.0-5.0-0.16","9b32d2edeb9fe1b1d23d0dd9f8b3ffca02591e22406e930099b42ef979442973","arctic","swim","2104","","MS3","2","","","","swim-engagement","","","","","","","","","","","","","","3","mental-sim","",""
"html-button-response","92","1932804","0.0-6.0-2.0-5.0-0.17","9b32d2edeb9fe1b1d23d0dd9f8b3ffca02591e22406e930099b42ef979442973","arctic","swim","1677","","E1","2","","","","swim-engagement","","","","","","","","","","","","","","3","enjoyment","",""
"html-button-response","93","1935192","0.0-8.0","9b32d2edeb9fe1b1d23d0dd9f8b3ffca02591e22406e930099b42ef979442973","arctic","swim","2136","","<p>Thank you for your responses.</p><p>You will now answer some demographic, hearing, and general health questions.</p>","0","","","","","","","","","","","","","","","","","","","","",""
"survey-multi-choice","94","1938812","0.0-9.0-0.0","9b32d2edeb9fe1b1d23d0dd9f8b3ffca02591e22406e930099b42ef979442973","arctic","swim","3612","","","","","","","survey","","","","","","","","","","","","","{""Q0"":""Chrome""}","","","browser",""
"survey-text","95","1941257","0.0-9.0-1.0","9b32d2edeb9fe1b1d23d0dd9f8b3ffca02591e22406e930099b42ef979442973","arctic","swim","2135.5","","","","","","","survey","","","","","","","","","","","","","{""AGE"":""35""}","","","age","35"
"survey-multi-choice","96","1943353","0.0-9.0-2.0","9b32d2edeb9fe1b1d23d0dd9f8b3ffca02591e22406e930099b42ef979442973","arctic","swim","1834","","","","","","","survey","","","","","","","","","","","","","{""Q0"":""Female""}","","","gender","Female"
"survey-multi-choice","97","1945307","0.0-9.0-4.0","9b32d2edeb9fe1b1d23d0dd9f8b3ffca02591e22406e930099b42ef979442973","arctic","swim","1701","","","","","","","survey","","","","","","","","","","","","","{""Q0"":""Right""}","","","handedness","Right"
"survey-multi-choice","98","1947920","0.0-9.0-5.0","9b32d2edeb9fe1b1d23d0dd9f8b3ffca02591e22406e930099b42ef979442973","arctic","swim","2360","","","","","","","survey","","","","","","","","","","","","","{""Q0"":""Bachelor's Degree""}","","","education","Bachelor's Degree"
"survey-text","99","1951152","0.0-10.0-0.0","9b32d2edeb9fe1b1d23d0dd9f8b3ffca02591e22406e930099b42ef979442973","arctic","swim","2979.2999999970198","","","","","","","survey","","","","","","","","","","","","","{""L1"":""english""}","","","first-language","english"
"survey-text","100","1956727","0.0-10.0-1.0","9b32d2edeb9fe1b1d23d0dd9f8b3ffca02591e22406e930099b42ef979442973","arctic","swim","5314.800000011921","","","","","","","survey","","","","","","","","","","","","","{""L2name"":"""",""L2fluency"":"""",""L3name"":"""",""L3fluency"":"""",""L4name"":"""",""L4fluency"":""""}","","","additional-languages","{""L2name"":"""",""L2fluency"":"""",""L3name"":"""",""L3fluency"":"""",""L4name"":"""",""L4fluency"":""""}"
"survey-multi-choice","101","1959257","0.0-10.0-2.0","9b32d2edeb9fe1b1d23d0dd9f8b3ffca02591e22406e930099b42ef979442973","arctic","swim","2277","","","","","","","survey","","","","","","","","","","","","","{""Q0"":""No""}","","","hearing-aid","No"
"survey-multi-choice","102","1961989","0.0-10.0-3.0","9b32d2edeb9fe1b1d23d0dd9f8b3ffca02591e22406e930099b42ef979442973","arctic","swim","2477","","","","","","","survey","","","","","","","","","","","","","{""Q0"":""Never""}","","","ringing-ears","Never"
"survey-multi-choice","103","1964851","0.0-10.0-5.0","9b32d2edeb9fe1b1d23d0dd9f8b3ffca02591e22406e930099b42ef979442973","arctic","swim","2609","","","","","","","survey","","","","","","","","","","","","","{""Q0"":""No""}","","","neuro-disease","No"
"survey-multi-choice","104","1968375","0.0-10.0-7.0","9b32d2edeb9fe1b1d23d0dd9f8b3ffca02591e22406e930099b42ef979442973","arctic","swim","3271","","","","","","","survey","","","","","","","","","","","","","{""Q0"":""Yes""}","","","take-meds","Yes"
"survey-text","105","1971941","0.0-10.0-8.0-0.0","9b32d2edeb9fe1b1d23d0dd9f8b3ffca02591e22406e930099b42ef979442973","arctic","swim","3310.8999999910593","","","","","","","survey","","","","","","","","","","","","","{""MED"":""citalopram""}","","","take-meds-clarify","citalopram"
"survey-text","106","1975517","0.0-10.0-9.0","9b32d2edeb9fe1b1d23d0dd9f8b3ffca02591e22406e930099b42ef979442973","arctic","swim","3203.9000000059605","","","","","","","survey","","","","","","","","","","","","","{""HC"":""""}","","","health-concerns",""
"html-button-response","107","1978249","0.0-11.0-0.0","9b32d2edeb9fe1b1d23d0dd9f8b3ffca02591e22406e930099b42ef979442973","arctic","swim","2480","","<p>How would you describe your musical skills/experiences?</p>","3","","","","survey","","","","","","","","","","","","","","","","music-skill","4"
"survey-multi-choice","108","1980717","0.0-11.0-1.0","9b32d2edeb9fe1b1d23d0dd9f8b3ffca02591e22406e930099b42ef979442973","arctic","swim","2214","","","","","","","survey","","","","","","","","","","","","","{""Q0"":""Yes""}","","","music-instrument","Yes"
"survey-text","109","1985879","0.0-11.0-2.0-0.0","9b32d2edeb9fe1b1d23d0dd9f8b3ffca02591e22406e930099b42ef979442973","arctic","swim","4909.4000000059605","","","","","","","survey","","","","","","","","","","","","","{""MEXP"":""11""}","","","music-training-yrs","11"
"html-button-response","110","1988225","0.0-12.0-0.0","9b32d2edeb9fe1b1d23d0dd9f8b3ffca02591e22406e930099b42ef979442973","arctic","swim","2094","","<p>How would you describe your general hearing abilities?</p>","3","","","","survey","","","","","","","","","","","","","","","","ssq-01","4"
"html-button-response","111","1992625","0.0-12.0-1.0","9b32d2edeb9fe1b1d23d0dd9f8b3ffca02591e22406e930099b42ef979442973","arctic","swim","4147","","<p>When you talk with someone at a place that strongly reverberates/echoes (e.g., in a church or train station),</br>can you understand what the person says?</p>","8","","","","survey","","","","","","","","","","","","","","","","ssq-02","8"
"html-button-response","112","1995693","0.0-12.0-2.0","9b32d2edeb9fe1b1d23d0dd9f8b3ffca02591e22406e930099b42ef979442973","arctic","swim","2816","","<p>When you are with a group (~5 people) in a lively restaurant, can you follow the group's conversation?</p>","6","","","","survey","","","","","","","","","","","","","","","","ssq-03","6"
"html-button-response","113","2000971","0.0-12.0-3.0","9b32d2edeb9fe1b1d23d0dd9f8b3ffca02591e22406e930099b42ef979442973","arctic","swim","5025","","<p>Based on the sound of a bus or truck, can you tell whether it is moving towards or away from you?</p>","7","","","","survey","","","","","","","","","","","","","","","","ssq-04","7"
"html-button-response","114","2004940","0.0-12.0-4.0","9b32d2edeb9fe1b1d23d0dd9f8b3ffca02591e22406e930099b42ef979442973","arctic","swim","3715","","<p>When you are in an unknown environment, can you tell from which direction a brief sound originates?</p>","7","","","","survey","","","","","","","","","","","","","","","","ssq-05","7"
"html-button-response","115","2008535","0.0-12.0-5.0","9b32d2edeb9fe1b1d23d0dd9f8b3ffca02591e22406e930099b42ef979442973","arctic","swim","3343","","<p>Are you able to ignore distracting sounds when you concentrate on a specific aspect of your acoustic surrounding?</p>","9","","","","survey","","","","","","","","","","","","","","","","ssq-06","9"
"fullscreen","116","2009787","0.0-13.0","9b32d2edeb9fe1b1d23d0dd9f8b3ffca02591e22406e930099b42ef979442973","arctic","swim","","","","","","","","","true","","","","","","","","","","","","","","","",""
