"trial_type","trial_index","time_elapsed","internal_node_id","ParticipantID","firstStory","scramStory","rt","url","stimulus","button_pressed","key_press","correctRESP","correct","designation","success","letterStim","letterType","ONSET","TIMEOUT","CONDITION","Participant","ONSET_ACTUAL","RT","RESP","ACC","STORY","responses","response","type","surveyQuestion","QRESP"
"pavlovia","0","3","0.0-0.0","b80af7ccd7456d4f15c180b7a552f6cc8df6888cc6c38ce2f4167c0167fc97b8","swim","arctic","","","","","","","","","","","","","","","","","","","","","","","","",""
"external-html","1","10227","0.0-1.0","b80af7ccd7456d4f15c180b7a552f6cc8df6888cc6c38ce2f4167c0167fc97b8","swim","arctic","10098","consent/consent_updated.html","","","","","","","","","","","","","","","","","","","","","","",""
"html-button-response","2","14025","0.0-2.0-0.0","b80af7ccd7456d4f15c180b7a552f6cc8df6888cc6c38ce2f4167c0167fc97b8","swim","arctic","3797","","<p>Before we begin the main task, you will complete a short volume calibration and headphone check.</p><p>Please make sure you are in a quiet listening environment, that you are wearing headphones, and that your computer's volume is turned on.<p></p>","0","","","","","","","","","","","","","","","","","","","","",""
"html-button-response","3","17512","0.0-2.0-1.0","b80af7ccd7456d4f15c180b7a552f6cc8df6888cc6c38ce2f4167c0167fc97b8","swim","arctic","3234","","<p>The volume calibration will be first.</p><p>You will hear a thirty-second noise. Please adjust your computer's volume so that this noise is being presented at a comfortable level.<p></p>","0","","","","","","","","","","","","","","","","","","","","",""
"audio-button-response","4","29152","0.0-2.0-2.0","b80af7ccd7456d4f15c180b7a552f6cc8df6888cc6c38ce2f4167c0167fc97b8","swim","arctic","11387","","audio/volumetest.mp3","0","","","","","","","","","","","","","","","","","","","","",""
"html-keyboard-response","5","42133","0.0-3.0-0.0","b80af7ccd7456d4f15c180b7a552f6cc8df6888cc6c38ce2f4167c0167fc97b8","swim","arctic","12979","","<p>You will now complete a short headphone check.</p><p>On each trial, you will hear three tones. One of these tones will be quieter than the others. Your task is to identify whether the quiet tone occurred first, second, or third.</p><p>There are six trials in total.<p></p><p></p>(Press SPACEBAR to begin)","","32","","","","","","","","","","","","","","","","","","","",""
"html-keyboard-response","6","42885","0.0-3.0-1.0-0.0","b80af7ccd7456d4f15c180b7a552f6cc8df6888cc6c38ce2f4167c0167fc97b8","swim","arctic","null","","<div style=""font-size:60px;"">+</div>","","null","","","","","","","","","","","","","","","","","","","",""
"audio-button-response","7","47702","0.0-3.0-1.0-1.0","b80af7ccd7456d4f15c180b7a552f6cc8df6888cc6c38ce2f4167c0167fc97b8","swim","arctic","4815","","audio/t2_2.mp3","2","","1","0","headphone-test","","","","","","","","","","","","","","","","",""
"html-keyboard-response","8","48204","0.0-3.0-1.0-2.0","b80af7ccd7456d4f15c180b7a552f6cc8df6888cc6c38ce2f4167c0167fc97b8","swim","arctic","null","","<p>Incorrect</p>","","null","","","","","","","","","","","","","","","","","","","",""
"html-keyboard-response","9","48705","0.0-3.0-1.0-0.1","b80af7ccd7456d4f15c180b7a552f6cc8df6888cc6c38ce2f4167c0167fc97b8","swim","arctic","null","","<div style=""font-size:60px;"">+</div>","","null","","","","","","","","","","","","","","","","","","","",""
"audio-button-response","10","53479","0.0-3.0-1.0-1.1","b80af7ccd7456d4f15c180b7a552f6cc8df6888cc6c38ce2f4167c0167fc97b8","swim","arctic","4772","","audio/t3_1.mp3","0","","2","0","headphone-test","","","","","","","","","","","","","","","","",""
"html-keyboard-response","11","53980","0.0-3.0-1.0-2.1","b80af7ccd7456d4f15c180b7a552f6cc8df6888cc6c38ce2f4167c0167fc97b8","swim","arctic","null","","<p>Incorrect</p>","","null","","","","","","","","","","","","","","","","","","","",""
"html-keyboard-response","12","54481","0.0-3.0-1.0-0.2","b80af7ccd7456d4f15c180b7a552f6cc8df6888cc6c38ce2f4167c0167fc97b8","swim","arctic","null","","<div style=""font-size:60px;"">+</div>","","null","","","","","","","","","","","","","","","","","","","",""
"audio-button-response","13","58943","0.0-3.0-1.0-1.2","b80af7ccd7456d4f15c180b7a552f6cc8df6888cc6c38ce2f4167c0167fc97b8","swim","arctic","4460","","audio/t3_2.mp3","1","","2","0","headphone-test","","","","","","","","","","","","","","","","",""
"html-keyboard-response","14","59444","0.0-3.0-1.0-2.2","b80af7ccd7456d4f15c180b7a552f6cc8df6888cc6c38ce2f4167c0167fc97b8","swim","arctic","null","","<p>Incorrect</p>","","null","","","","","","","","","","","","","","","","","","","",""
"html-keyboard-response","15","59945","0.0-3.0-1.0-0.3","b80af7ccd7456d4f15c180b7a552f6cc8df6888cc6c38ce2f4167c0167fc97b8","swim","arctic","null","","<div style=""font-size:60px;"">+</div>","","null","","","","","","","","","","","","","","","","","","","",""
"audio-button-response","16","64406","0.0-3.0-1.0-1.3","b80af7ccd7456d4f15c180b7a552f6cc8df6888cc6c38ce2f4167c0167fc97b8","swim","arctic","4460","","audio/t2_1.mp3","0","","1","0","headphone-test","","","","","","","","","","","","","","","","",""
"html-keyboard-response","17","64908","0.0-3.0-1.0-2.3","b80af7ccd7456d4f15c180b7a552f6cc8df6888cc6c38ce2f4167c0167fc97b8","swim","arctic","null","","<p>Incorrect</p>","","null","","","","","","","","","","","","","","","","","","","",""
"html-keyboard-response","18","65409","0.0-3.0-1.0-0.4","b80af7ccd7456d4f15c180b7a552f6cc8df6888cc6c38ce2f4167c0167fc97b8","swim","arctic","null","","<div style=""font-size:60px;"">+</div>","","null","","","","","","","","","","","","","","","","","","","",""
"audio-button-response","19","70554","0.0-3.0-1.0-1.4","b80af7ccd7456d4f15c180b7a552f6cc8df6888cc6c38ce2f4167c0167fc97b8","swim","arctic","5144","","audio/t1_1.mp3","0","","0","1","headphone-test","","","","","","","","","","","","","","","","",""
"html-keyboard-response","20","71055","0.0-3.0-1.0-2.4","b80af7ccd7456d4f15c180b7a552f6cc8df6888cc6c38ce2f4167c0167fc97b8","swim","arctic","null","","<p>Correct</p>","","null","","","","","","","","","","","","","","","","","","","",""
"html-keyboard-response","21","71556","0.0-3.0-1.0-0.5","b80af7ccd7456d4f15c180b7a552f6cc8df6888cc6c38ce2f4167c0167fc97b8","swim","arctic","null","","<div style=""font-size:60px;"">+</div>","","null","","","","","","","","","","","","","","","","","","","",""
"audio-button-response","22","76227","0.0-3.0-1.0-1.5","b80af7ccd7456d4f15c180b7a552f6cc8df6888cc6c38ce2f4167c0167fc97b8","swim","arctic","4669","","audio/t1_2.mp3","2","","0","0","headphone-test","","","","","","","","","","","","","","","","",""
"html-keyboard-response","23","76728","0.0-3.0-1.0-2.5","b80af7ccd7456d4f15c180b7a552f6cc8df6888cc6c38ce2f4167c0167fc97b8","swim","arctic","null","","<p>Incorrect</p>","","null","","","","","","","","","","","","","","","","","","","",""
"fullscreen","24","80538","0.0-4.0","b80af7ccd7456d4f15c180b7a552f6cc8df6888cc6c38ce2f4167c0167fc97b8","swim","arctic","","","","","","","","","true","","","","","","","","","","","","","","","",""
"html-button-response","25","92073","0.0-5.0-0.0","b80af7ccd7456d4f15c180b7a552f6cc8df6888cc6c38ce2f4167c0167fc97b8","swim","arctic","11534","","<p>There are two blocks to this experiment.</p><p>In each block, you will hear a ~13.5 minute story. One of the stories will be scrambled. Please listen carefully to both stories and understand them as best you can.</p><p>After each story, you will be asked some questions to assess your comprehension.</p>","0","","","","","","","","","","","","","","","","","","","","",""
"html-button-response","26","121056","0.0-5.0-1.0","b80af7ccd7456d4f15c180b7a552f6cc8df6888cc6c38ce2f4167c0167fc97b8","swim","arctic","28982","","<p>During each story, there will be an additional task.</p><p>A letter will occasionally appear on the screen.</br>Your job is to - as quickly as you can - decide whether the letter is lowercase or uppercase and press one of two keys on the keyboard:</p><p>If the letter is <b>lowercase</b>, press key &lt;<b>x</b>&gt;.</p><p>If the letter is <b>uppercase</b>, press key &lt;<b>m</b>&gt;.</p>","0","","","","","","","","","","","","","","","","","","","","",""
"html-keyboard-response","27","127396","0.0-5.0-2.0","b80af7ccd7456d4f15c180b7a552f6cc8df6888cc6c38ce2f4167c0167fc97b8","swim","arctic","6339","","<p>Because we want your responses to be as quick as possible, please keep your index fingers over the keys while listening.</p><p>Each block lasts about 20 minutes.</p><p><b>Press &lt;x&gt; or &lt;m&gt; to start the first block!</b></p>","","88","","","","","","","","","","","","","","","","","","","",""
"html-keyboard-response","28","127897","0.0-7.0-0.0-0.0","b80af7ccd7456d4f15c180b7a552f6cc8df6888cc6c38ce2f4167c0167fc97b8","swim","arctic","null","","<div style=""font-size:60px;"" tabindex=""0"">+</div>","","null","","","","","","","","","","","","","","","","","","","",""
"dual-task","null","null","null","","swim","arctic","NA","","h","null","NA","88","0","swim-dual-task","","h","lowercase","16000","1","5","b80af7ccd7456d4f15c180b7a552f6cc8df6888cc6c38ce2f4167c0167fc97b8","15999","NA","NA","0","swim","","","","",""
"dual-task","null","null","null","","swim","arctic","1000.2999999523163","","G","null","77","77","1","swim-dual-task","","G","uppercase","26000","0","5","b80af7ccd7456d4f15c180b7a552f6cc8df6888cc6c38ce2f4167c0167fc97b8","25999.099999904633","1000.2999999523163","77","1","swim","","","","",""
"dual-task","null","null","null","","swim","arctic","1161.2000000476837","","T","null","77","77","1","swim-dual-task","","T","uppercase","38000","0","5","b80af7ccd7456d4f15c180b7a552f6cc8df6888cc6c38ce2f4167c0167fc97b8","37998.39999985695","1161.2000000476837","77","1","swim","","","","",""
"dual-task","null","null","null","","swim","arctic","951.8999998569489","","n","null","88","88","1","swim-dual-task","","n","lowercase","48000","0","5","b80af7ccd7456d4f15c180b7a552f6cc8df6888cc6c38ce2f4167c0167fc97b8","47998.59999990463","951.8999998569489","88","1","swim","","","","",""
"dual-task","null","null","null","","swim","arctic","633","","T","null","77","77","1","swim-dual-task","","T","uppercase","54000","0","5","b80af7ccd7456d4f15c180b7a552f6cc8df6888cc6c38ce2f4167c0167fc97b8","53998.799999952316","633","77","1","swim","","","","",""
"dual-task","null","null","null","","swim","arctic","1528.4000000953674","","e","null","88","88","1","swim-dual-task","","e","lowercase","64000","0","5","b80af7ccd7456d4f15c180b7a552f6cc8df6888cc6c38ce2f4167c0167fc97b8","63999.09999990463","1528.4000000953674","88","1","swim","","","","",""
"dual-task","null","null","null","","swim","arctic","741.9000000953674","","a","null","88","88","1","swim-dual-task","","a","lowercase","74000","0","5","b80af7ccd7456d4f15c180b7a552f6cc8df6888cc6c38ce2f4167c0167fc97b8","73999.29999995232","741.9000000953674","88","1","swim","","","","",""
"dual-task","null","null","null","","swim","arctic","855.6000001430511","","E","null","77","77","1","swim-dual-task","","E","uppercase","80000","0","5","b80af7ccd7456d4f15c180b7a552f6cc8df6888cc6c38ce2f4167c0167fc97b8","79999.39999985695","855.6000001430511","77","1","swim","","","","",""
"dual-task","null","null","null","","swim","arctic","775.7000000476837","","F","null","77","77","1","swim-dual-task","","F","uppercase","92000","0","5","b80af7ccd7456d4f15c180b7a552f6cc8df6888cc6c38ce2f4167c0167fc97b8","91998.70000004768","775.7000000476837","77","1","swim","","","","",""
"dual-task","null","null","null","","swim","arctic","614.4000000953674","","r","null","88","88","1","swim-dual-task","","r","lowercase","104000","0","5","b80af7ccd7456d4f15c180b7a552f6cc8df6888cc6c38ce2f4167c0167fc97b8","103999.09999990463","614.4000000953674","88","1","swim","","","","",""
"dual-task","null","null","null","","swim","arctic","708.9000000953674","","G","null","77","77","1","swim-dual-task","","G","uppercase","112000","0","5","b80af7ccd7456d4f15c180b7a552f6cc8df6888cc6c38ce2f4167c0167fc97b8","111999.29999995232","708.9000000953674","77","1","swim","","","","",""
"dual-task","null","null","null","","swim","arctic","1060.8999998569489","","h","null","88","88","1","swim-dual-task","","h","lowercase","126000","0","5","b80af7ccd7456d4f15c180b7a552f6cc8df6888cc6c38ce2f4167c0167fc97b8","125999.70000004768","1060.8999998569489","88","1","swim","","","","",""
"dual-task","null","null","null","","swim","arctic","1013.7000000476837","","E","null","77","77","1","swim-dual-task","","E","uppercase","138000","0","5","b80af7ccd7456d4f15c180b7a552f6cc8df6888cc6c38ce2f4167c0167fc97b8","137998.89999985695","1013.7000000476837","77","1","swim","","","","",""
"dual-task","null","null","null","","swim","arctic","883.6999998092651","","e","null","88","88","1","swim-dual-task","","e","lowercase","144000","0","5","b80af7ccd7456d4f15c180b7a552f6cc8df6888cc6c38ce2f4167c0167fc97b8","143999.09999990463","883.6999998092651","88","1","swim","","","","",""
"dual-task","null","null","null","","swim","arctic","852.5","","D","null","77","77","1","swim-dual-task","","D","uppercase","156000","0","5","b80af7ccd7456d4f15c180b7a552f6cc8df6888cc6c38ce2f4167c0167fc97b8","155999.39999985695","852.5","77","1","swim","","","","",""
"dual-task","null","null","null","","swim","arctic","804.3000001907349","","d","null","88","88","1","swim-dual-task","","d","lowercase","168000","0","5","b80af7ccd7456d4f15c180b7a552f6cc8df6888cc6c38ce2f4167c0167fc97b8","167998.89999985695","804.3000001907349","88","1","swim","","","","",""
"dual-task","null","null","null","","swim","arctic","754.8000001907349","","t","null","77","88","0","swim-dual-task","","t","lowercase","178000","0","5","b80af7ccd7456d4f15c180b7a552f6cc8df6888cc6c38ce2f4167c0167fc97b8","177998.89999985695","754.8000001907349","77","0","swim","","","","",""
"dual-task","null","null","null","","swim","arctic","819.5999999046326","","H","null","77","77","1","swim-dual-task","","H","uppercase","186000","0","5","b80af7ccd7456d4f15c180b7a552f6cc8df6888cc6c38ce2f4167c0167fc97b8","185999.20000004768","819.5999999046326","77","1","swim","","","","",""
"dual-task","null","null","null","","swim","arctic","657.6000001430511","","N","null","77","77","1","swim-dual-task","","N","uppercase","194000","0","5","b80af7ccd7456d4f15c180b7a552f6cc8df6888cc6c38ce2f4167c0167fc97b8","193999.39999985695","657.6000001430511","77","1","swim","","","","",""
"dual-task","null","null","null","","swim","arctic","626","","A","null","88","77","0","swim-dual-task","","A","uppercase","204000","0","5","b80af7ccd7456d4f15c180b7a552f6cc8df6888cc6c38ce2f4167c0167fc97b8","203999.59999990463","626","88","0","swim","","","","",""
"dual-task","null","null","null","","swim","arctic","800.4000000953674","","h","null","77","88","0","swim-dual-task","","h","lowercase","212000","0","5","b80af7ccd7456d4f15c180b7a552f6cc8df6888cc6c38ce2f4167c0167fc97b8","211999.79999995232","800.4000000953674","77","0","swim","","","","",""
"dual-task","null","null","null","","swim","arctic","946.0999999046326","","G","null","77","77","1","swim-dual-task","","G","uppercase","224000","0","5","b80af7ccd7456d4f15c180b7a552f6cc8df6888cc6c38ce2f4167c0167fc97b8","223999.09999990463","946.0999999046326","77","1","swim","","","","",""
"dual-task","null","null","null","","swim","arctic","897.5","","g","null","88","88","1","swim-dual-task","","g","lowercase","236000","0","5","b80af7ccd7456d4f15c180b7a552f6cc8df6888cc6c38ce2f4167c0167fc97b8","235999.29999995232","897.5","88","1","swim","","","","",""
"dual-task","null","null","null","","swim","arctic","896.6999998092651","","H","null","77","77","1","swim-dual-task","","H","uppercase","248000","0","5","b80af7ccd7456d4f15c180b7a552f6cc8df6888cc6c38ce2f4167c0167fc97b8","247999.70000004768","896.6999998092651","77","1","swim","","","","",""
"dual-task","null","null","null","","swim","arctic","974.6000001430511","","F","null","77","77","1","swim-dual-task","","F","uppercase","254000","0","5","b80af7ccd7456d4f15c180b7a552f6cc8df6888cc6c38ce2f4167c0167fc97b8","253999.89999985695","974.6000001430511","77","1","swim","","","","",""
"dual-task","null","null","null","","swim","arctic","687.5999999046326","","H","null","77","77","1","swim-dual-task","","H","uppercase","266000","0","5","b80af7ccd7456d4f15c180b7a552f6cc8df6888cc6c38ce2f4167c0167fc97b8","265999.2000000477","687.5999999046326","77","1","swim","","","","",""
"dual-task","null","null","null","","swim","arctic","799.5","","Q","null","77","77","1","swim-dual-task","","Q","uppercase","276000","0","5","b80af7ccd7456d4f15c180b7a552f6cc8df6888cc6c38ce2f4167c0167fc97b8","275999.39999985695","799.5","77","1","swim","","","","",""
"dual-task","null","null","null","","swim","arctic","830.4000000953674","","r","null","88","88","1","swim-dual-task","","r","lowercase","290000","0","5","b80af7ccd7456d4f15c180b7a552f6cc8df6888cc6c38ce2f4167c0167fc97b8","289999.7999999523","830.4000000953674","88","1","swim","","","","",""
"dual-task","null","null","null","","swim","arctic","733.8999998569489","","b","null","88","88","1","swim-dual-task","","b","lowercase","298000","0","5","b80af7ccd7456d4f15c180b7a552f6cc8df6888cc6c38ce2f4167c0167fc97b8","297999","733.8999998569489","88","1","swim","","","","",""
"dual-task","null","null","null","","swim","arctic","750.6999998092651","","R","null","77","77","1","swim-dual-task","","R","uppercase","308000","0","5","b80af7ccd7456d4f15c180b7a552f6cc8df6888cc6c38ce2f4167c0167fc97b8","307999.2000000477","750.6999998092651","77","1","swim","","","","",""
"dual-task","null","null","null","","swim","arctic","766","","t","null","88","88","1","swim-dual-task","","t","lowercase","320000","0","5","b80af7ccd7456d4f15c180b7a552f6cc8df6888cc6c38ce2f4167c0167fc97b8","319999.5","766","88","1","swim","","","","",""
"dual-task","null","null","null","","swim","arctic","765.2999999523163","","F","null","77","77","1","swim-dual-task","","F","uppercase","332000","0","5","b80af7ccd7456d4f15c180b7a552f6cc8df6888cc6c38ce2f4167c0167fc97b8","331999.7999999523","765.2999999523163","77","1","swim","","","","",""
"dual-task","null","null","null","","swim","arctic","748.1000001430511","","A","null","88","77","0","swim-dual-task","","A","uppercase","342000","0","5","b80af7ccd7456d4f15c180b7a552f6cc8df6888cc6c38ce2f4167c0167fc97b8","341999.09999990463","748.1000001430511","88","0","swim","","","","",""
"dual-task","null","null","null","","swim","arctic","1116.5999999046326","","D","null","77","77","1","swim-dual-task","","D","uppercase","354000","0","5","b80af7ccd7456d4f15c180b7a552f6cc8df6888cc6c38ce2f4167c0167fc97b8","353999.39999985695","1116.5999999046326","77","1","swim","","","","",""
"dual-task","null","null","null","","swim","arctic","842.9000000953674","","T","null","77","77","1","swim-dual-task","","T","uppercase","362000","0","5","b80af7ccd7456d4f15c180b7a552f6cc8df6888cc6c38ce2f4167c0167fc97b8","361999.59999990463","842.9000000953674","77","1","swim","","","","",""
"dual-task","null","null","null","","swim","arctic","955","","Q","null","77","77","1","swim-dual-task","","Q","uppercase","370000","0","5","b80af7ccd7456d4f15c180b7a552f6cc8df6888cc6c38ce2f4167c0167fc97b8","369999.7000000477","955","77","1","swim","","","","",""
"dual-task","null","null","null","","swim","arctic","921.7000000476837","","R","null","77","77","1","swim-dual-task","","R","uppercase","380000","0","5","b80af7ccd7456d4f15c180b7a552f6cc8df6888cc6c38ce2f4167c0167fc97b8","380000","921.7000000476837","77","1","swim","","","","",""
"dual-task","null","null","null","","swim","arctic","827.5","","n","null","88","88","1","swim-dual-task","","n","lowercase","388000","0","5","b80af7ccd7456d4f15c180b7a552f6cc8df6888cc6c38ce2f4167c0167fc97b8","387999.2999999523","827.5","88","1","swim","","","","",""
"dual-task","null","null","null","","swim","arctic","1098.5999999046326","","N","null","77","77","1","swim-dual-task","","N","uppercase","402000","0","5","b80af7ccd7456d4f15c180b7a552f6cc8df6888cc6c38ce2f4167c0167fc97b8","401999.59999990463","1098.5999999046326","77","1","swim","","","","",""
"dual-task","null","null","null","","swim","arctic","776.5","","b","null","88","88","1","swim-dual-task","","b","lowercase","412000","0","5","b80af7ccd7456d4f15c180b7a552f6cc8df6888cc6c38ce2f4167c0167fc97b8","411999.89999985695","776.5","88","1","swim","","","","",""
"dual-task","null","null","null","","swim","arctic","728.7000000476837","","d","null","88","88","1","swim-dual-task","","d","lowercase","422000","0","5","b80af7ccd7456d4f15c180b7a552f6cc8df6888cc6c38ce2f4167c0167fc97b8","422000.09999990463","728.7000000476837","88","1","swim","","","","",""
"dual-task","null","null","null","","swim","arctic","728.2000000476837","","a","null","88","88","1","swim-dual-task","","a","lowercase","432000","0","5","b80af7ccd7456d4f15c180b7a552f6cc8df6888cc6c38ce2f4167c0167fc97b8","431999.2999999523","728.2000000476837","88","1","swim","","","","",""
"dual-task","null","null","null","","swim","arctic","888.5","","B","null","77","77","1","swim-dual-task","","B","uppercase","444000","0","5","b80af7ccd7456d4f15c180b7a552f6cc8df6888cc6c38ce2f4167c0167fc97b8","443999.7000000477","888.5","77","1","swim","","","","",""
"dual-task","null","null","null","","swim","arctic","727.0999999046326","","D","null","77","77","1","swim-dual-task","","D","uppercase","450000","0","5","b80af7ccd7456d4f15c180b7a552f6cc8df6888cc6c38ce2f4167c0167fc97b8","449999.7000000477","727.0999999046326","77","1","swim","","","","",""
"dual-task","null","null","null","","swim","arctic","759.6999998092651","","f","null","88","88","1","swim-dual-task","","f","lowercase","464000","0","5","b80af7ccd7456d4f15c180b7a552f6cc8df6888cc6c38ce2f4167c0167fc97b8","464000.09999990463","759.6999998092651","88","1","swim","","","","",""
"dual-task","null","null","null","","swim","arctic","726.9000000953674","","D","null","77","77","1","swim-dual-task","","D","uppercase","470000","0","5","b80af7ccd7456d4f15c180b7a552f6cc8df6888cc6c38ce2f4167c0167fc97b8","469999.39999985695","726.9000000953674","77","1","swim","","","","",""
"dual-task","null","null","null","","swim","arctic","1159.7999999523163","","t","null","88","88","1","swim-dual-task","","t","lowercase","482000","0","5","b80af7ccd7456d4f15c180b7a552f6cc8df6888cc6c38ce2f4167c0167fc97b8","481999.59999990463","1159.7999999523163","88","1","swim","","","","",""
"dual-task","null","null","null","","swim","arctic","1205.4000000953674","","F","null","77","77","1","swim-dual-task","","F","uppercase","490000","0","5","b80af7ccd7456d4f15c180b7a552f6cc8df6888cc6c38ce2f4167c0167fc97b8","489999.7999999523","1205.4000000953674","77","1","swim","","","","",""
"dual-task","null","null","null","","swim","arctic","NA","","H","null","NA","77","0","swim-dual-task","","H","uppercase","500000","1","5","b80af7ccd7456d4f15c180b7a552f6cc8df6888cc6c38ce2f4167c0167fc97b8","500000","NA","NA","0","swim","","","","",""
"dual-task","null","null","null","","swim","arctic","NA","","a","null","NA","88","0","swim-dual-task","","a","lowercase","506000","1","5","b80af7ccd7456d4f15c180b7a552f6cc8df6888cc6c38ce2f4167c0167fc97b8","506000.2999999523","NA","NA","0","swim","","","","",""
"dual-task","null","null","null","","swim","arctic","NA","","n","null","NA","88","0","swim-dual-task","","n","lowercase","516000","1","5","b80af7ccd7456d4f15c180b7a552f6cc8df6888cc6c38ce2f4167c0167fc97b8","515999.39999985695","NA","NA","0","swim","","","","",""
"dual-task","null","null","null","","swim","arctic","757","","A","null","77","77","1","swim-dual-task","","A","uppercase","530000","0","5","b80af7ccd7456d4f15c180b7a552f6cc8df6888cc6c38ce2f4167c0167fc97b8","529999.899999857","757","77","1","swim","","","","",""
"dual-task","null","null","null","","swim","arctic","708.5999999046326","","n","null","88","88","1","swim-dual-task","","n","lowercase","542000","0","5","b80af7ccd7456d4f15c180b7a552f6cc8df6888cc6c38ce2f4167c0167fc97b8","542000.0999999046","708.5999999046326","88","1","swim","","","","",""
"dual-task","null","null","null","","swim","arctic","1444.2000000476837","","E","null","77","77","1","swim-dual-task","","E","uppercase","552000","0","5","b80af7ccd7456d4f15c180b7a552f6cc8df6888cc6c38ce2f4167c0167fc97b8","551999.399999857","1444.2000000476837","77","1","swim","","","","",""
"dual-task","null","null","null","","swim","arctic","NA","","e","null","NA","88","0","swim-dual-task","","e","lowercase","564000","1","5","b80af7ccd7456d4f15c180b7a552f6cc8df6888cc6c38ce2f4167c0167fc97b8","564000.7000000477","NA","NA","0","swim","","","","",""
"dual-task","null","null","null","","swim","arctic","898.4000000953674","","r","null","88","88","1","swim-dual-task","","r","lowercase","572000","0","5","b80af7ccd7456d4f15c180b7a552f6cc8df6888cc6c38ce2f4167c0167fc97b8","571999.899999857","898.4000000953674","88","1","swim","","","","",""
"dual-task","null","null","null","","swim","arctic","818.8999998569489","","b","null","88","88","1","swim-dual-task","","b","lowercase","586000","0","5","b80af7ccd7456d4f15c180b7a552f6cc8df6888cc6c38ce2f4167c0167fc97b8","586000.2000000477","818.8999998569489","88","1","swim","","","","",""
"dual-task","null","null","null","","swim","arctic","785.5999999046326","","E","null","77","77","1","swim-dual-task","","E","uppercase","598000","0","5","b80af7ccd7456d4f15c180b7a552f6cc8df6888cc6c38ce2f4167c0167fc97b8","598000.5","785.5999999046326","77","1","swim","","","","",""
"dual-task","null","null","null","","swim","arctic","849.4000000953674","","b","null","88","88","1","swim-dual-task","","b","lowercase","610000","0","5","b80af7ccd7456d4f15c180b7a552f6cc8df6888cc6c38ce2f4167c0167fc97b8","609999.7999999523","849.4000000953674","88","1","swim","","","","",""
"dual-task","null","null","null","","swim","arctic","784.5","","R","null","77","77","1","swim-dual-task","","R","uppercase","616000","0","5","b80af7ccd7456d4f15c180b7a552f6cc8df6888cc6c38ce2f4167c0167fc97b8","616000","784.5","77","1","swim","","","","",""
"dual-task","null","null","null","","swim","arctic","833.2000000476837","","d","null","88","88","1","swim-dual-task","","d","lowercase","630000","0","5","b80af7ccd7456d4f15c180b7a552f6cc8df6888cc6c38ce2f4167c0167fc97b8","630000.2999999523","833.2000000476837","88","1","swim","","","","",""
"dual-task","null","null","null","","swim","arctic","895.1999998092651","","B","null","77","77","1","swim-dual-task","","B","uppercase","642000","0","5","b80af7ccd7456d4f15c180b7a552f6cc8df6888cc6c38ce2f4167c0167fc97b8","642000.5999999046","895.1999998092651","77","1","swim","","","","",""
"dual-task","null","null","null","","swim","arctic","1375.3999998569489","","T","null","77","77","1","swim-dual-task","","T","uppercase","650000","0","5","b80af7ccd7456d4f15c180b7a552f6cc8df6888cc6c38ce2f4167c0167fc97b8","649999.899999857","1375.3999998569489","77","1","swim","","","","",""
"dual-task","null","null","null","","swim","arctic","735.2999999523163","","B","null","77","77","1","swim-dual-task","","B","uppercase","658000","0","5","b80af7ccd7456d4f15c180b7a552f6cc8df6888cc6c38ce2f4167c0167fc97b8","658000.0999999046","735.2999999523163","77","1","swim","","","","",""
"dual-task","null","null","null","","swim","arctic","1246.2999999523163","","e","null","88","88","1","swim-dual-task","","e","lowercase","666000","0","5","b80af7ccd7456d4f15c180b7a552f6cc8df6888cc6c38ce2f4167c0167fc97b8","666000.2999999523","1246.2999999523163","88","1","swim","","","","",""
"dual-task","null","null","null","","swim","arctic","1599.4000000953674","","f","null","88","88","1","swim-dual-task","","f","lowercase","674000","0","5","b80af7ccd7456d4f15c180b7a552f6cc8df6888cc6c38ce2f4167c0167fc97b8","674000.399999857","1599.4000000953674","88","1","swim","","","","",""
"dual-task","null","null","null","","swim","arctic","813.0999999046326","","r","null","88","88","1","swim-dual-task","","r","lowercase","684000","0","5","b80af7ccd7456d4f15c180b7a552f6cc8df6888cc6c38ce2f4167c0167fc97b8","684000.7999999523","813.0999999046326","88","1","swim","","","","",""
"dual-task","null","null","null","","swim","arctic","1342.6000001430511","","R","null","77","77","1","swim-dual-task","","R","uppercase","696000","0","5","b80af7ccd7456d4f15c180b7a552f6cc8df6888cc6c38ce2f4167c0167fc97b8","696000.0999999046","1342.6000001430511","77","1","swim","","","","",""
"dual-task","null","null","null","","swim","arctic","1580.9000000953674","","f","null","88","88","1","swim-dual-task","","f","lowercase","702000","0","5","b80af7ccd7456d4f15c180b7a552f6cc8df6888cc6c38ce2f4167c0167fc97b8","702000.2000000477","1580.9000000953674","88","1","swim","","","","",""
"dual-task","null","null","null","","swim","arctic","797","","d","null","88","88","1","swim-dual-task","","d","lowercase","716000","0","5","b80af7ccd7456d4f15c180b7a552f6cc8df6888cc6c38ce2f4167c0167fc97b8","716000.5","797","88","1","swim","","","","",""
"dual-task","null","null","null","","swim","arctic","1180.7000000476837","","q","null","88","88","1","swim-dual-task","","q","lowercase","726000","0","5","b80af7ccd7456d4f15c180b7a552f6cc8df6888cc6c38ce2f4167c0167fc97b8","726000.7999999523","1180.7000000476837","88","1","swim","","","","",""
"dual-task","null","null","null","","swim","arctic","1212.0999999046326","","g","null","88","88","1","swim-dual-task","","g","lowercase","732000","0","5","b80af7ccd7456d4f15c180b7a552f6cc8df6888cc6c38ce2f4167c0167fc97b8","731999.899999857","1212.0999999046326","88","1","swim","","","","",""
"dual-task","null","null","null","","swim","arctic","861.2000000476837","","q","null","88","88","1","swim-dual-task","","q","lowercase","740000","0","5","b80af7ccd7456d4f15c180b7a552f6cc8df6888cc6c38ce2f4167c0167fc97b8","740000.0999999046","861.2000000476837","88","1","swim","","","","",""
"dual-task","null","null","null","","swim","arctic","972.3999998569489","","Q","null","77","77","1","swim-dual-task","","Q","uppercase","752000","0","5","b80af7ccd7456d4f15c180b7a552f6cc8df6888cc6c38ce2f4167c0167fc97b8","752000.5","972.3999998569489","77","1","swim","","","","",""
"dual-task","null","null","null","","swim","arctic","1083.4000000953674","","a","null","88","88","1","swim-dual-task","","a","lowercase","764000","0","5","b80af7ccd7456d4f15c180b7a552f6cc8df6888cc6c38ce2f4167c0167fc97b8","764000.7999999523","1083.4000000953674","88","1","swim","","","","",""
"dual-task","null","null","null","","swim","arctic","955.1000001430511","","B","null","77","77","1","swim-dual-task","","B","uppercase","776000","0","5","b80af7ccd7456d4f15c180b7a552f6cc8df6888cc6c38ce2f4167c0167fc97b8","776000","955.1000001430511","77","1","swim","","","","",""
"dual-task","null","null","null","","swim","arctic","937.4000000953674","","q","null","88","88","1","swim-dual-task","","q","lowercase","786000","0","5","b80af7ccd7456d4f15c180b7a552f6cc8df6888cc6c38ce2f4167c0167fc97b8","786000.2999999523","937.4000000953674","88","1","swim","","","","",""
"dual-task","null","null","null","","swim","arctic","1082.1999998092651","","g","null","88","88","1","swim-dual-task","","g","lowercase","798000","0","5","b80af7ccd7456d4f15c180b7a552f6cc8df6888cc6c38ce2f4167c0167fc97b8","798000.7000000477","1082.1999998092651","88","1","swim","","","","",""
"audio-keyboard-response","29","938027","0.0-7.0-0.0-1.0","b80af7ccd7456d4f15c180b7a552f6cc8df6888cc6c38ce2f4167c0167fc97b8","swim","arctic","null","","audio/story_swim.mp3","","null","","","","","","","","","","","","","","","","","","","",""
"html-button-response","30","942504","0.0-7.0-0.0-2.0","b80af7ccd7456d4f15c180b7a552f6cc8df6888cc6c38ce2f4167c0167fc97b8","swim","arctic","4476","","<p>This concludes the story. Thank you for listening.</p><p>You will now answer some questions about the content of the story.</p>","0","","","","","","","","","","","","","","","","","","","","",""
"survey-multi-choice","31","950728","0.0-7.0-0.0-3.0-0.0","b80af7ccd7456d4f15c180b7a552f6cc8df6888cc6c38ce2f4167c0167fc97b8","swim","arctic","8220","","<b>What gave the narrator his greatest feeling of accomplishment?</b>","","","","1","swim-comprehension","","","","","","","","","","","","","{""Q0"":""Passing the water survival course""}","","","",""
"survey-multi-choice","32","955647","0.0-7.0-0.0-3.0-0.1","b80af7ccd7456d4f15c180b7a552f6cc8df6888cc6c38ce2f4167c0167fc97b8","swim","arctic","4665","","<b>How many astronaut candidates passed the first swim test?</b>","","","","1","swim-comprehension","","","","","","","","","","","","","{""Q0"":""All of them""}","","","",""
"survey-multi-choice","33","967456","0.0-7.0-0.0-3.0-0.2","b80af7ccd7456d4f15c180b7a552f6cc8df6888cc6c38ce2f4167c0167fc97b8","swim","arctic","11555","","<b>What was the final step of the first swim test in the pool?</b>","","","","1","swim-comprehension","","","","","","","","","","","","","{""Q0"":""Tread water with hands above the water""}","","","",""
"survey-multi-choice","34","979271","0.0-7.0-0.0-3.0-0.3","b80af7ccd7456d4f15c180b7a552f6cc8df6888cc6c38ce2f4167c0167fc97b8","swim","arctic","11560","","<b>What were the astronaut candidates trained to do at the naval air station?</b>","","","","1","swim-comprehension","","","","","","","","","","","","","{""Q0"":""Eject out of aircraft and survive in water long enough to be rescued""}","","","",""
"survey-multi-choice","35","984079","0.0-7.0-0.0-3.0-0.4","b80af7ccd7456d4f15c180b7a552f6cc8df6888cc6c38ce2f4167c0167fc97b8","swim","arctic","4552","","<b>What is the narrator afraid of, aside from the water?</b>","","","","1","swim-comprehension","","","","","","","","","","","","","{""Q0"":""Heights""}","","","",""
"survey-multi-choice","36","997451","0.0-7.0-0.0-3.0-0.5","b80af7ccd7456d4f15c180b7a552f6cc8df6888cc6c38ce2f4167c0167fc97b8","swim","arctic","13116","","<b>How many astronaut candidates reported for duty at the Johnson Space Center?</b>","","","","1","swim-comprehension","","","","","","","","","","","","","{""Q0"":""Forty-four""}","","","",""
"survey-multi-choice","37","1004506","0.0-7.0-0.0-3.0-0.6","b80af7ccd7456d4f15c180b7a552f6cc8df6888cc6c38ce2f4167c0167fc97b8","swim","arctic","6799","","<b>Where is the home of naval aviation?</b>","","","","1","swim-comprehension","","","","","","","","","","","","","{""Q0"":""Pensacola""}","","","",""
"survey-multi-choice","38","1015466","0.0-7.0-0.0-3.0-0.7","b80af7ccd7456d4f15c180b7a552f6cc8df6888cc6c38ce2f4167c0167fc97b8","swim","arctic","10703","","<b>How did the narrator train for his swim test?</b>","","","","0","swim-comprehension","","","","","","","","","","","","","{""Q0"":""Swam at the lake every day""}","","","",""
"survey-multi-choice","39","1022986","0.0-7.0-0.0-3.0-0.8","b80af7ccd7456d4f15c180b7a552f6cc8df6888cc6c38ce2f4167c0167fc97b8","swim","arctic","7264","","<b>How often does the narrator swim, now that he is a good swimmer?</b>","","","","1","swim-comprehension","","","","","","","","","","","","","{""Q0"":""Never swam again in his life""}","","","",""
"survey-multi-choice","40","1028458","0.0-7.0-0.0-3.0-0.9","b80af7ccd7456d4f15c180b7a552f6cc8df6888cc6c38ce2f4167c0167fc97b8","swim","arctic","5213","","<b>How many times did the astronaut candidates have to complete the final exercise to pass?</b>","","","","1","swim-comprehension","","","","","","","","","","","","","{""Q0"":""Two""}","","","",""
"html-button-response","41","1032313","0.0-7.0-0.0-4.0","b80af7ccd7456d4f15c180b7a552f6cc8df6888cc6c38ce2f4167c0167fc97b8","swim","arctic","3604","","<p>Thank you for your responses.</p><p>You will now answer some questions about your impressions of the story.</p>","0","","","","","","","","","","","","","","","","","","","","",""
"html-button-response","42","1041418","0.0-7.0-0.0-5.0-0.0","b80af7ccd7456d4f15c180b7a552f6cc8df6888cc6c38ce2f4167c0167fc97b8","swim","arctic","9101","","EE5","5","","","","swim-engagement","","","","","","","","","","","","","","6","emo-engage","",""
"html-button-response","43","1044145","0.0-7.0-0.0-5.0-0.1","b80af7ccd7456d4f15c180b7a552f6cc8df6888cc6c38ce2f4167c0167fc97b8","swim","arctic","2474","","A4","5","","","","swim-engagement","","","","","","","","","","","","","","6","absorption","",""
"html-button-response","44","1046537","0.0-7.0-0.0-5.0-0.2","b80af7ccd7456d4f15c180b7a552f6cc8df6888cc6c38ce2f4167c0167fc97b8","swim","arctic","2140","","E8","5","","","","swim-engagement","","","","","","","","","","","","","","6","enjoyment","",""
"html-button-response","45","1048309","0.0-7.0-0.0-5.0-0.3","b80af7ccd7456d4f15c180b7a552f6cc8df6888cc6c38ce2f4167c0167fc97b8","swim","arctic","1521","","E7","5","","","","swim-engagement","","","","","","","","","","","","","","6","enjoyment","",""
"html-button-response","46","1049734","0.0-7.0-0.0-5.0-0.4","b80af7ccd7456d4f15c180b7a552f6cc8df6888cc6c38ce2f4167c0167fc97b8","swim","arctic","1173","","A2","5","","","","swim-engagement","","","","","","","","","","","","","","6","absorption","",""
"html-button-response","47","1053358","0.0-7.0-0.0-5.0-0.5","b80af7ccd7456d4f15c180b7a552f6cc8df6888cc6c38ce2f4167c0167fc97b8","swim","arctic","3369","","A1","5","","","","swim-engagement","","","","","","","","","","","","","","6","absorption","",""
"html-button-response","48","1057973","0.0-7.0-0.0-5.0-0.6","b80af7ccd7456d4f15c180b7a552f6cc8df6888cc6c38ce2f4167c0167fc97b8","swim","arctic","4364","","MS2","5","","","","swim-engagement","","","","","","","","","","","","","","6","mental-sim","",""
"html-button-response","49","1059493","0.0-7.0-0.0-5.0-0.7","b80af7ccd7456d4f15c180b7a552f6cc8df6888cc6c38ce2f4167c0167fc97b8","swim","arctic","1268","","A3","5","","","","swim-engagement","","","","","","","","","","","","","","6","absorption","",""
"html-button-response","50","1061109","0.0-7.0-0.0-5.0-0.8","b80af7ccd7456d4f15c180b7a552f6cc8df6888cc6c38ce2f4167c0167fc97b8","swim","arctic","1363","","E6","5","","","","swim-engagement","","","","","","","","","","","","","","6","enjoyment","",""
"html-button-response","51","1062773","0.0-7.0-0.0-5.0-0.9","b80af7ccd7456d4f15c180b7a552f6cc8df6888cc6c38ce2f4167c0167fc97b8","swim","arctic","1411","","E10","5","","","","swim-engagement","","","","","","","","","","","","","","6","enjoyment","",""
"html-button-response","52","1066317","0.0-7.0-0.0-5.0-0.10","b80af7ccd7456d4f15c180b7a552f6cc8df6888cc6c38ce2f4167c0167fc97b8","swim","arctic","3292","","MS3","5","","","","swim-engagement","","","","","","","","","","","","","","6","mental-sim","",""
"html-button-response","53","1072669","0.0-7.0-0.0-5.0-0.11","b80af7ccd7456d4f15c180b7a552f6cc8df6888cc6c38ce2f4167c0167fc97b8","swim","arctic","6100","","A5","4","","","","swim-engagement","","","","","","","","","","","","","","5","absorption","",""
"html-button-response","54","1075389","0.0-7.0-0.0-5.0-0.12","b80af7ccd7456d4f15c180b7a552f6cc8df6888cc6c38ce2f4167c0167fc97b8","swim","arctic","2468","","E1","5","","","","swim-engagement","","","","","","","","","","","","","","6","enjoyment","",""
"html-button-response","55","1081196","0.0-7.0-0.0-5.0-0.13","b80af7ccd7456d4f15c180b7a552f6cc8df6888cc6c38ce2f4167c0167fc97b8","swim","arctic","5555","","EE2","5","","","","swim-engagement","","","","","","","","","","","","","","6","emo-engage","",""
"html-button-response","56","1084132","0.0-7.0-0.0-5.0-0.14","b80af7ccd7456d4f15c180b7a552f6cc8df6888cc6c38ce2f4167c0167fc97b8","swim","arctic","2684","","EE4","5","","","","swim-engagement","","","","","","","","","","","","","","6","emo-engage","",""
"html-button-response","57","1089172","0.0-7.0-0.0-5.0-0.15","b80af7ccd7456d4f15c180b7a552f6cc8df6888cc6c38ce2f4167c0167fc97b8","swim","arctic","4788","","MS1","5","","","","swim-engagement","","","","","","","","","","","","","","6","mental-sim","",""
"html-button-response","58","1099876","0.0-7.0-0.0-5.0-0.16","b80af7ccd7456d4f15c180b7a552f6cc8df6888cc6c38ce2f4167c0167fc97b8","swim","arctic","10452","","EE1","5","","","","swim-engagement","","","","","","","","","","","","","","6","emo-engage","",""
"html-button-response","59","1101316","0.0-7.0-0.0-5.0-0.17","b80af7ccd7456d4f15c180b7a552f6cc8df6888cc6c38ce2f4167c0167fc97b8","swim","arctic","1188","","EE3","5","","","","swim-engagement","","","","","","","","","","","","","","6","emo-engage","",""
"html-keyboard-response","60","1114029","0.0-7.0-1.0","b80af7ccd7456d4f15c180b7a552f6cc8df6888cc6c38ce2f4167c0167fc97b8","swim","arctic","12463","","<p>Thank you for your responses. You will now listen to the second story.</p><p>Remember, as you listen to the story you will see letters appear on the screen.</br>As quickly as possible, press <b>&lt;x&gt;</b> if the letter is lowercase and <b>&lt;m&gt;</b> if the letter is uppercase.</p><p>Press <b>&lt;x&gt;</b> or <b>&lt;m&gt;</b> to begin listening!</p>","","88","","","","","","","","","","","","","","","","","","","",""
"html-keyboard-response","61","1114530","0.0-7.0-2.0-0.0","b80af7ccd7456d4f15c180b7a552f6cc8df6888cc6c38ce2f4167c0167fc97b8","swim","arctic","null","","<div style=""font-size:60px;"" tabindex=""0"">+</div>","","null","","","","","","","","","","","","","","","","","","","",""
"dual-task","null","null","null","","swim","arctic","806.0999999046326","","D","null","77","77","1","arctic-dual-task","","D","uppercase","18000","0","5","b80af7ccd7456d4f15c180b7a552f6cc8df6888cc6c38ce2f4167c0167fc97b8","18000.599999904633","806.0999999046326","77","1","arctic","","","","",""
"dual-task","null","null","null","","swim","arctic","NA","","e","null","NA","88","0","arctic-dual-task","","e","lowercase","32000","1","5","b80af7ccd7456d4f15c180b7a552f6cc8df6888cc6c38ce2f4167c0167fc97b8","31999.5","NA","NA","0","arctic","","","","",""
"dual-task","null","null","null","","swim","arctic","1078.4000000953674","","N","null","77","77","1","arctic-dual-task","","N","uppercase","42000","0","5","b80af7ccd7456d4f15c180b7a552f6cc8df6888cc6c38ce2f4167c0167fc97b8","41999.799999952316","1078.4000000953674","77","1","arctic","","","","",""
"dual-task","null","null","null","","swim","arctic","741.9000000953674","","N","null","77","77","1","arctic-dual-task","","N","uppercase","56000","0","5","b80af7ccd7456d4f15c180b7a552f6cc8df6888cc6c38ce2f4167c0167fc97b8","55999.09999990463","741.9000000953674","77","1","arctic","","","","",""
"dual-task","null","null","null","","swim","arctic","630.0999999046326","","a","null","88","88","1","arctic-dual-task","","a","lowercase","68000","0","5","b80af7ccd7456d4f15c180b7a552f6cc8df6888cc6c38ce2f4167c0167fc97b8","67999.40000009537","630.0999999046326","88","1","arctic","","","","",""
"dual-task","null","null","null","","swim","arctic","1060.5999999046326","","D","null","77","77","1","arctic-dual-task","","D","uppercase","82000","0","5","b80af7ccd7456d4f15c180b7a552f6cc8df6888cc6c38ce2f4167c0167fc97b8","81999.70000004768","1060.5999999046326","77","1","arctic","","","","",""
"dual-task","null","null","null","","swim","arctic","1714.7999999523163","","d","null","88","88","1","arctic-dual-task","","d","lowercase","88000","0","5","b80af7ccd7456d4f15c180b7a552f6cc8df6888cc6c38ce2f4167c0167fc97b8","87999.90000009537","1714.7999999523163","88","1","arctic","","","","",""
"dual-task","null","null","null","","swim","arctic","756.4000000953674","","d","null","77","88","0","arctic-dual-task","","d","lowercase","100000","0","5","b80af7ccd7456d4f15c180b7a552f6cc8df6888cc6c38ce2f4167c0167fc97b8","99999.20000004768","756.4000000953674","77","0","arctic","","","","",""
"dual-task","null","null","null","","swim","arctic","610.4000000953674","","q","null","88","88","1","arctic-dual-task","","q","lowercase","108000","0","5","b80af7ccd7456d4f15c180b7a552f6cc8df6888cc6c38ce2f4167c0167fc97b8","107999.40000009537","610.4000000953674","88","1","arctic","","","","",""
"dual-task","null","null","null","","swim","arctic","739.5","","A","null","77","77","1","arctic-dual-task","","A","uppercase","116000","0","5","b80af7ccd7456d4f15c180b7a552f6cc8df6888cc6c38ce2f4167c0167fc97b8","115999.59999990463","739.5","77","1","arctic","","","","",""
"dual-task","null","null","null","","swim","arctic","545.6000001430511","","e","null","88","88","1","arctic-dual-task","","e","lowercase","124000","0","5","b80af7ccd7456d4f15c180b7a552f6cc8df6888cc6c38ce2f4167c0167fc97b8","123999.79999995232","545.6000001430511","88","1","arctic","","","","",""
"dual-task","null","null","null","","swim","arctic","562.4000000953674","","R","null","77","77","1","arctic-dual-task","","R","uppercase","134000","0","5","b80af7ccd7456d4f15c180b7a552f6cc8df6888cc6c38ce2f4167c0167fc97b8","134000","562.4000000953674","77","1","arctic","","","","",""
"dual-task","null","null","null","","swim","arctic","689.1999998092651","","f","null","88","88","1","arctic-dual-task","","f","lowercase","144000","0","5","b80af7ccd7456d4f15c180b7a552f6cc8df6888cc6c38ce2f4167c0167fc97b8","144000.29999995232","689.1999998092651","88","1","arctic","","","","",""
"dual-task","null","null","null","","swim","arctic","689","","D","null","77","77","1","arctic-dual-task","","D","uppercase","150000","0","5","b80af7ccd7456d4f15c180b7a552f6cc8df6888cc6c38ce2f4167c0167fc97b8","149999.40000009537","689","77","1","arctic","","","","",""
"dual-task","null","null","null","","swim","arctic","545.5","","d","null","88","88","1","arctic-dual-task","","d","lowercase","160000","0","5","b80af7ccd7456d4f15c180b7a552f6cc8df6888cc6c38ce2f4167c0167fc97b8","159999.70000004768","545.5","88","1","arctic","","","","",""
"dual-task","null","null","null","","swim","arctic","769.2000000476837","","h","null","88","88","1","arctic-dual-task","","h","lowercase","170000","0","5","b80af7ccd7456d4f15c180b7a552f6cc8df6888cc6c38ce2f4167c0167fc97b8","169999.90000009537","769.2000000476837","88","1","arctic","","","","",""
"dual-task","null","null","null","","swim","arctic","783.4000000953674","","f","null","88","88","1","arctic-dual-task","","f","lowercase","176000","0","5","b80af7ccd7456d4f15c180b7a552f6cc8df6888cc6c38ce2f4167c0167fc97b8","176000.09999990463","783.4000000953674","88","1","arctic","","","","",""
"dual-task","null","null","null","","swim","arctic","751.3999998569489","","h","null","88","88","1","arctic-dual-task","","h","lowercase","188000","0","5","b80af7ccd7456d4f15c180b7a552f6cc8df6888cc6c38ce2f4167c0167fc97b8","188000.40000009537","751.3999998569489","88","1","arctic","","","","",""
"dual-task","null","null","null","","swim","arctic","734.7999999523163","","H","null","77","77","1","arctic-dual-task","","H","uppercase","194000","0","5","b80af7ccd7456d4f15c180b7a552f6cc8df6888cc6c38ce2f4167c0167fc97b8","193999.40000009537","734.7999999523163","77","1","arctic","","","","",""
"dual-task","null","null","null","","swim","arctic","592.0999999046326","","a","null","88","88","1","arctic-dual-task","","a","lowercase","204000","0","5","b80af7ccd7456d4f15c180b7a552f6cc8df6888cc6c38ce2f4167c0167fc97b8","203999.79999995232","592.0999999046326","88","1","arctic","","","","",""
"dual-task","null","null","null","","swim","arctic","703.4000000953674","","T","null","77","77","1","arctic-dual-task","","T","uppercase","214000","0","5","b80af7ccd7456d4f15c180b7a552f6cc8df6888cc6c38ce2f4167c0167fc97b8","214000.09999990463","703.4000000953674","77","1","arctic","","","","",""
"dual-task","null","null","null","","swim","arctic","856.4000000953674","","G","null","88","77","0","arctic-dual-task","","G","uppercase","224000","0","5","b80af7ccd7456d4f15c180b7a552f6cc8df6888cc6c38ce2f4167c0167fc97b8","224006.5","856.4000000953674","88","0","arctic","","","","",""
"dual-task","null","null","null","","swim","arctic","764.7000000476837","","H","null","77","77","1","arctic-dual-task","","H","uppercase","230000","0","5","b80af7ccd7456d4f15c180b7a552f6cc8df6888cc6c38ce2f4167c0167fc97b8","230000.5","764.7000000476837","77","1","arctic","","","","",""
"dual-task","null","null","null","","swim","arctic","782.1000001430511","","E","null","77","77","1","arctic-dual-task","","E","uppercase","244000","0","5","b80af7ccd7456d4f15c180b7a552f6cc8df6888cc6c38ce2f4167c0167fc97b8","243999.90000009537","782.1000001430511","77","1","arctic","","","","",""
"dual-task","null","null","null","","swim","arctic","717.3999998569489","","F","null","77","77","1","arctic-dual-task","","F","uppercase","258000","0","5","b80af7ccd7456d4f15c180b7a552f6cc8df6888cc6c38ce2f4167c0167fc97b8","258000.20000004768","717.3999998569489","77","1","arctic","","","","",""
"dual-task","null","null","null","","swim","arctic","715.4000000953674","","b","null","88","88","1","arctic-dual-task","","b","lowercase","266000","0","5","b80af7ccd7456d4f15c180b7a552f6cc8df6888cc6c38ce2f4167c0167fc97b8","266000.5","715.4000000953674","88","1","arctic","","","","",""
"dual-task","null","null","null","","swim","arctic","829.3999998569489","","g","null","88","88","1","arctic-dual-task","","g","lowercase","276000","0","5","b80af7ccd7456d4f15c180b7a552f6cc8df6888cc6c38ce2f4167c0167fc97b8","275999.59999990463","829.3999998569489","88","1","arctic","","","","",""
"dual-task","null","null","null","","swim","arctic","795.6000001430511","","f","null","88","88","1","arctic-dual-task","","f","lowercase","290000","0","5","b80af7ccd7456d4f15c180b7a552f6cc8df6888cc6c38ce2f4167c0167fc97b8","290000","795.6000001430511","88","1","arctic","","","","",""
"dual-task","null","null","null","","swim","arctic","1626.5","","R","null","77","77","1","arctic-dual-task","","R","uppercase","298000","0","5","b80af7ccd7456d4f15c180b7a552f6cc8df6888cc6c38ce2f4167c0167fc97b8","298000.2000000477","1626.5","77","1","arctic","","","","",""
"dual-task","null","null","null","","swim","arctic","827.5","","B","null","77","77","1","arctic-dual-task","","B","uppercase","306000","0","5","b80af7ccd7456d4f15c180b7a552f6cc8df6888cc6c38ce2f4167c0167fc97b8","306000.40000009537","827.5","77","1","arctic","","","","",""
"dual-task","null","null","null","","swim","arctic","698.2000000476837","","d","null","88","88","1","arctic-dual-task","","d","lowercase","316000","0","5","b80af7ccd7456d4f15c180b7a552f6cc8df6888cc6c38ce2f4167c0167fc97b8","315999.7000000477","698.2000000476837","88","1","arctic","","","","",""
"dual-task","null","null","null","","swim","arctic","859","","n","null","88","88","1","arctic-dual-task","","n","lowercase","328000","0","5","b80af7ccd7456d4f15c180b7a552f6cc8df6888cc6c38ce2f4167c0167fc97b8","328000","859","88","1","arctic","","","","",""
"dual-task","null","null","null","","swim","arctic","809.2000000476837","","G","null","77","77","1","arctic-dual-task","","G","uppercase","342000","0","5","b80af7ccd7456d4f15c180b7a552f6cc8df6888cc6c38ce2f4167c0167fc97b8","342000.2999999523","809.2000000476837","77","1","arctic","","","","",""
"dual-task","null","null","null","","swim","arctic","745.4000000953674","","D","null","77","77","1","arctic-dual-task","","D","uppercase","354000","0","5","b80af7ccd7456d4f15c180b7a552f6cc8df6888cc6c38ce2f4167c0167fc97b8","354000.5","745.4000000953674","77","1","arctic","","","","",""
"dual-task","null","null","null","","swim","arctic","857.2000000476837","","T","null","77","77","1","arctic-dual-task","","T","uppercase","364000","0","5","b80af7ccd7456d4f15c180b7a552f6cc8df6888cc6c38ce2f4167c0167fc97b8","363999.7999999523","857.2000000476837","77","1","arctic","","","","",""
"dual-task","null","null","null","","swim","arctic","775.5999999046326","","T","null","77","77","1","arctic-dual-task","","T","uppercase","372000","0","5","b80af7ccd7456d4f15c180b7a552f6cc8df6888cc6c38ce2f4167c0167fc97b8","372000.09999990463","775.5999999046326","77","1","arctic","","","","",""
"dual-task","null","null","null","","swim","arctic","728.5","","T","null","77","77","1","arctic-dual-task","","T","uppercase","378000","0","5","b80af7ccd7456d4f15c180b7a552f6cc8df6888cc6c38ce2f4167c0167fc97b8","378000.2000000477","728.5","77","1","arctic","","","","",""
"dual-task","null","null","null","","swim","arctic","710.6999998092651","","b","null","88","88","1","arctic-dual-task","","b","lowercase","388000","0","5","b80af7ccd7456d4f15c180b7a552f6cc8df6888cc6c38ce2f4167c0167fc97b8","388000.40000009537","710.6999998092651","88","1","arctic","","","","",""
"dual-task","null","null","null","","swim","arctic","1064.2999999523163","","h","null","88","88","1","arctic-dual-task","","h","lowercase","394000","0","5","b80af7ccd7456d4f15c180b7a552f6cc8df6888cc6c38ce2f4167c0167fc97b8","394000.7000000477","1064.2999999523163","88","1","arctic","","","","",""
"dual-task","null","null","null","","swim","arctic","871.7999999523163","","A","null","77","77","1","arctic-dual-task","","A","uppercase","406000","0","5","b80af7ccd7456d4f15c180b7a552f6cc8df6888cc6c38ce2f4167c0167fc97b8","406000","871.7999999523163","77","1","arctic","","","","",""
"dual-task","null","null","null","","swim","arctic","726","","a","null","88","88","1","arctic-dual-task","","a","lowercase","412000","0","5","b80af7ccd7456d4f15c180b7a552f6cc8df6888cc6c38ce2f4167c0167fc97b8","412000","726","88","1","arctic","","","","",""
"dual-task","null","null","null","","swim","arctic","902.4000000953674","","B","null","77","77","1","arctic-dual-task","","B","uppercase","426000","0","5","b80af7ccd7456d4f15c180b7a552f6cc8df6888cc6c38ce2f4167c0167fc97b8","426000.5","902.4000000953674","77","1","arctic","","","","",""
"dual-task","null","null","null","","swim","arctic","789.7999999523163","","B","null","77","77","1","arctic-dual-task","","B","uppercase","438000","0","5","b80af7ccd7456d4f15c180b7a552f6cc8df6888cc6c38ce2f4167c0167fc97b8","438000.7999999523","789.7999999523163","77","1","arctic","","","","",""
"dual-task","null","null","null","","swim","arctic","1013.2999999523163","","F","null","77","77","1","arctic-dual-task","","F","uppercase","450000","0","5","b80af7ccd7456d4f15c180b7a552f6cc8df6888cc6c38ce2f4167c0167fc97b8","450000","1013.2999999523163","77","1","arctic","","","","",""
"dual-task","null","null","null","","swim","arctic","773.3999998569489","","n","null","88","88","1","arctic-dual-task","","n","lowercase","462000","0","5","b80af7ccd7456d4f15c180b7a552f6cc8df6888cc6c38ce2f4167c0167fc97b8","462000.2999999523","773.3999998569489","88","1","arctic","","","","",""
"dual-task","null","null","null","","swim","arctic","915.7000000476837","","E","null","77","77","1","arctic-dual-task","","E","uppercase","474000","0","5","b80af7ccd7456d4f15c180b7a552f6cc8df6888cc6c38ce2f4167c0167fc97b8","474000.5","915.7000000476837","77","1","arctic","","","","",""
"dual-task","null","null","null","","swim","arctic","1010.5","","E","null","77","77","1","arctic-dual-task","","E","uppercase","482000","0","5","b80af7ccd7456d4f15c180b7a552f6cc8df6888cc6c38ce2f4167c0167fc97b8","482000.90000009537","1010.5","77","1","arctic","","","","",""
"dual-task","null","null","null","","swim","arctic","1172.2000000476837","","t","null","88","88","1","arctic-dual-task","","t","lowercase","488000","0","5","b80af7ccd7456d4f15c180b7a552f6cc8df6888cc6c38ce2f4167c0167fc97b8","488000","1172.2000000476837","88","1","arctic","","","","",""
"dual-task","null","null","null","","swim","arctic","786.8000001907349","","t","null","88","88","1","arctic-dual-task","","t","lowercase","494000","0","5","b80af7ccd7456d4f15c180b7a552f6cc8df6888cc6c38ce2f4167c0167fc97b8","494000","786.8000001907349","88","1","arctic","","","","",""
"dual-task","null","null","null","","swim","arctic","772.0999999046326","","n","null","88","88","1","arctic-dual-task","","n","lowercase","500000","0","5","b80af7ccd7456d4f15c180b7a552f6cc8df6888cc6c38ce2f4167c0167fc97b8","500000.40000009537","772.0999999046326","88","1","arctic","","","","",""
"dual-task","null","null","null","","swim","arctic","977.5999999046326","","Q","null","77","77","1","arctic-dual-task","","Q","uppercase","508000","0","5","b80af7ccd7456d4f15c180b7a552f6cc8df6888cc6c38ce2f4167c0167fc97b8","508000.5","977.5999999046326","77","1","arctic","","","","",""
"dual-task","null","null","null","","swim","arctic","834.5","","r","null","88","88","1","arctic-dual-task","","r","lowercase","522000","0","5","b80af7ccd7456d4f15c180b7a552f6cc8df6888cc6c38ce2f4167c0167fc97b8","522000.90000009537","834.5","88","1","arctic","","","","",""
"dual-task","null","null","null","","swim","arctic","1122.4000000953674","","A","null","77","77","1","arctic-dual-task","","A","uppercase","534000","0","5","b80af7ccd7456d4f15c180b7a552f6cc8df6888cc6c38ce2f4167c0167fc97b8","534000.2000000477","1122.4000000953674","77","1","arctic","","","","",""
"dual-task","null","null","null","","swim","arctic","1298","","R","null","77","77","1","arctic-dual-task","","R","uppercase","546000","0","5","b80af7ccd7456d4f15c180b7a552f6cc8df6888cc6c38ce2f4167c0167fc97b8","546000.4000000954","1298","77","1","arctic","","","","",""
"dual-task","null","null","null","","swim","arctic","881.0999999046326","","G","null","77","77","1","arctic-dual-task","","G","uppercase","560000","0","5","b80af7ccd7456d4f15c180b7a552f6cc8df6888cc6c38ce2f4167c0167fc97b8","560000.9000000954","881.0999999046326","77","1","arctic","","","","",""
"dual-task","null","null","null","","swim","arctic","880.4000000953674","","F","null","77","77","1","arctic-dual-task","","F","uppercase","574000","0","5","b80af7ccd7456d4f15c180b7a552f6cc8df6888cc6c38ce2f4167c0167fc97b8","574000","880.4000000953674","77","1","arctic","","","","",""
"dual-task","null","null","null","","swim","arctic","992.4000000953674","","q","null","88","88","1","arctic-dual-task","","q","lowercase","588000","0","5","b80af7ccd7456d4f15c180b7a552f6cc8df6888cc6c38ce2f4167c0167fc97b8","588000.5","992.4000000953674","88","1","arctic","","","","",""
"dual-task","null","null","null","","swim","arctic","911.3999998569489","","q","null","88","88","1","arctic-dual-task","","q","lowercase","602000","0","5","b80af7ccd7456d4f15c180b7a552f6cc8df6888cc6c38ce2f4167c0167fc97b8","602000.9000000954","911.3999998569489","88","1","arctic","","","","",""
"dual-task","null","null","null","","swim","arctic","910.4000000953674","","r","null","88","88","1","arctic-dual-task","","r","lowercase","610000","0","5","b80af7ccd7456d4f15c180b7a552f6cc8df6888cc6c38ce2f4167c0167fc97b8","610000.0999999046","910.4000000953674","88","1","arctic","","","","",""
"dual-task","null","null","null","","swim","arctic","783.1999998092651","","F","null","77","77","1","arctic-dual-task","","F","uppercase","620000","0","5","b80af7ccd7456d4f15c180b7a552f6cc8df6888cc6c38ce2f4167c0167fc97b8","620000.4000000954","783.1999998092651","77","1","arctic","","","","",""
"dual-task","null","null","null","","swim","arctic","1213.8999998569489","","Q","null","77","77","1","arctic-dual-task","","Q","uppercase","634000","0","5","b80af7ccd7456d4f15c180b7a552f6cc8df6888cc6c38ce2f4167c0167fc97b8","634000.5","1213.8999998569489","77","1","arctic","","","","",""
"dual-task","null","null","null","","swim","arctic","766.5999999046326","","r","null","88","88","1","arctic-dual-task","","r","lowercase","648000","0","5","b80af7ccd7456d4f15c180b7a552f6cc8df6888cc6c38ce2f4167c0167fc97b8","648000","766.5999999046326","88","1","arctic","","","","",""
"dual-task","null","null","null","","swim","arctic","1148.4000000953674","","e","null","88","88","1","arctic-dual-task","","e","lowercase","656000","0","5","b80af7ccd7456d4f15c180b7a552f6cc8df6888cc6c38ce2f4167c0167fc97b8","656000.2000000477","1148.4000000953674","88","1","arctic","","","","",""
"dual-task","null","null","null","","swim","arctic","834.0999999046326","","b","null","88","88","1","arctic-dual-task","","b","lowercase","668000","0","5","b80af7ccd7456d4f15c180b7a552f6cc8df6888cc6c38ce2f4167c0167fc97b8","668011.4000000954","834.0999999046326","88","1","arctic","","","","",""
"dual-task","null","null","null","","swim","arctic","NA","","g","null","NA","88","0","arctic-dual-task","","g","lowercase","676000","1","5","b80af7ccd7456d4f15c180b7a552f6cc8df6888cc6c38ce2f4167c0167fc97b8","676000.7000000477","NA","NA","0","arctic","","","","",""
"dual-task","null","null","null","","swim","arctic","827.5","","E","null","77","77","1","arctic-dual-task","","E","uppercase","690000","0","5","b80af7ccd7456d4f15c180b7a552f6cc8df6888cc6c38ce2f4167c0167fc97b8","690001.2000000477","827.5","77","1","arctic","","","","",""
"dual-task","null","null","null","","swim","arctic","924.2999999523163","","t","null","88","88","1","arctic-dual-task","","t","lowercase","700000","0","5","b80af7ccd7456d4f15c180b7a552f6cc8df6888cc6c38ce2f4167c0167fc97b8","700000.2999999523","924.2999999523163","88","1","arctic","","","","",""
"dual-task","null","null","null","","swim","arctic","714.2000000476837","","a","null","88","88","1","arctic-dual-task","","a","lowercase","708000","0","5","b80af7ccd7456d4f15c180b7a552f6cc8df6888cc6c38ce2f4167c0167fc97b8","708000.5","714.2000000476837","88","1","arctic","","","","",""
"dual-task","null","null","null","","swim","arctic","682.5","","e","null","88","88","1","arctic-dual-task","","e","lowercase","720000","0","5","b80af7ccd7456d4f15c180b7a552f6cc8df6888cc6c38ce2f4167c0167fc97b8","720000.9000000954","682.5","88","1","arctic","","","","",""
"dual-task","null","null","null","","swim","arctic","696.8000001907349","","g","null","88","88","1","arctic-dual-task","","g","lowercase","726000","0","5","b80af7ccd7456d4f15c180b7a552f6cc8df6888cc6c38ce2f4167c0167fc97b8","726001","696.8000001907349","88","1","arctic","","","","",""
"dual-task","null","null","null","","swim","arctic","873.2000000476837","","H","null","77","77","1","arctic-dual-task","","H","uppercase","736000","0","5","b80af7ccd7456d4f15c180b7a552f6cc8df6888cc6c38ce2f4167c0167fc97b8","736000.4000000954","873.2000000476837","77","1","arctic","","","","",""
"dual-task","null","null","null","","swim","arctic","840.6000001430511","","B","null","77","77","1","arctic-dual-task","","B","uppercase","746000","0","5","b80af7ccd7456d4f15c180b7a552f6cc8df6888cc6c38ce2f4167c0167fc97b8","746000.5","840.6000001430511","77","1","arctic","","","","",""
"dual-task","null","null","null","","swim","arctic","1609.3999998569489","","t","null","88","88","1","arctic-dual-task","","t","lowercase","758000","0","5","b80af7ccd7456d4f15c180b7a552f6cc8df6888cc6c38ce2f4167c0167fc97b8","758000.9000000954","1609.3999998569489","88","1","arctic","","","","",""
"dual-task","null","null","null","","swim","arctic","695.4000000953674","","h","null","77","88","0","arctic-dual-task","","h","lowercase","764000","0","5","b80af7ccd7456d4f15c180b7a552f6cc8df6888cc6c38ce2f4167c0167fc97b8","764001","695.4000000953674","77","0","arctic","","","","",""
"dual-task","null","null","null","","swim","arctic","728.5","","r","null","88","88","1","arctic-dual-task","","r","lowercase","774000","0","5","b80af7ccd7456d4f15c180b7a552f6cc8df6888cc6c38ce2f4167c0167fc97b8","774001.2000000477","728.5","88","1","arctic","","","","",""
"dual-task","null","null","null","","swim","arctic","1224.6000001430511","","Q","null","77","77","1","arctic-dual-task","","Q","uppercase","786000","0","5","b80af7ccd7456d4f15c180b7a552f6cc8df6888cc6c38ce2f4167c0167fc97b8","786000.5999999046","1224.6000001430511","77","1","arctic","","","","",""
"audio-keyboard-response","62","1912289","0.0-7.0-2.0-1.0","b80af7ccd7456d4f15c180b7a552f6cc8df6888cc6c38ce2f4167c0167fc97b8","swim","arctic","null","","audio/story_arctic_scrambled.mp3","","null","","","","","","","","","","","","","","","","","","","",""
"html-button-response","63","1916653","0.0-7.0-2.0-2.0","b80af7ccd7456d4f15c180b7a552f6cc8df6888cc6c38ce2f4167c0167fc97b8","swim","arctic","4363","","<p>This concludes the story. Thank you for listening.</p><p>You will now answer some questions about the content of the story.</p>","0","","","","","","","","","","","","","","","","","","","","",""
"survey-multi-choice","64","1926533","0.0-7.0-2.0-3.0-0.0","b80af7ccd7456d4f15c180b7a552f6cc8df6888cc6c38ce2f4167c0167fc97b8","swim","arctic","9877","","<b>How did the narrator&#39;s neighbour respond when she told him about her expedition?</b>","","","","1","arctic-comprehension","","","","","","","","","","","","","{""Q0"":""He said she was going to fail.""}","","","",""
"survey-multi-choice","65","1933050","0.0-7.0-2.0-3.0-0.1","b80af7ccd7456d4f15c180b7a552f6cc8df6888cc6c38ce2f4167c0167fc97b8","swim","arctic","6259","","<b>How many sponsorships did the narrator receive to support her expedition?</b>","","","","1","arctic-comprehension","","","","","","","","","","","","","{""Q0"":""None""}","","","",""
"survey-multi-choice","66","1941785","0.0-7.0-2.0-3.0-0.2","b80af7ccd7456d4f15c180b7a552f6cc8df6888cc6c38ce2f4167c0167fc97b8","swim","arctic","8480","","<b>How did the narrator&#39;s encounter with the polar bears end?</b>","","","","1","arctic-comprehension","","","","","","","","","","","","","{""Q0"":""The bears walked back to their den.""}","","","",""
"survey-multi-choice","67","1946601","0.0-7.0-2.0-3.0-0.3","b80af7ccd7456d4f15c180b7a552f6cc8df6888cc6c38ce2f4167c0167fc97b8","swim","arctic","4558","","<b>Which dog on the narrator&#39;s dog team never followed instructions?</b>","","","","1","arctic-comprehension","","","","","","","","","","","","","{""Q0"":""Robert""}","","","",""
"survey-multi-choice","68","1955465","0.0-7.0-2.0-3.0-0.4","b80af7ccd7456d4f15c180b7a552f6cc8df6888cc6c38ce2f4167c0167fc97b8","swim","arctic","8606","","<b>What was the objective of the narrator&#39;s expedition?</b>","","","","1","arctic-comprehension","","","","","","","","","","","","","{""Q0"":""Dogsled across Arctic America""}","","","",""
"survey-multi-choice","69","1961889","0.0-7.0-2.0-3.0-0.5","b80af7ccd7456d4f15c180b7a552f6cc8df6888cc6c38ce2f4167c0167fc97b8","swim","arctic","6165","","<b>What did the narrator do for leisure while in her tent?</b>","","","","1","arctic-comprehension","","","","","","","","","","","","","{""Q0"":""Read""}","","","",""
"survey-multi-choice","70","1965160","0.0-7.0-2.0-3.0-0.6","b80af7ccd7456d4f15c180b7a552f6cc8df6888cc6c38ce2f4167c0167fc97b8","swim","arctic","3012","","<b>What is the name of the narrator&#39;s neighbour?</b>","","","","1","arctic-comprehension","","","","","","","","","","","","","{""Q0"":""Dave""}","","","",""
"survey-multi-choice","71","1973776","0.0-7.0-2.0-3.0-0.7","b80af7ccd7456d4f15c180b7a552f6cc8df6888cc6c38ce2f4167c0167fc97b8","swim","arctic","8364","","<b>How did the narrator prepare for her expedition?</b>","","","","1","arctic-comprehension","","","","","","","","","","","","","{""Q0"":""Trained in Alaska learning how to dogsled""}","","","",""
"survey-multi-choice","72","1982760","0.0-7.0-2.0-3.0-0.8","b80af7ccd7456d4f15c180b7a552f6cc8df6888cc6c38ce2f4167c0167fc97b8","swim","arctic","8729","","<b>What were the weather conditions in the Arctic like the winter of the narrator&#39;s expedition?</b>","","","","1","arctic-comprehension","","","","","","","","","","","","","{""Q0"":""There were more storms than any other winter in recorded history.""}","","","",""
"survey-multi-choice","73","2004180","0.0-7.0-2.0-3.0-0.9","b80af7ccd7456d4f15c180b7a552f6cc8df6888cc6c38ce2f4167c0167fc97b8","swim","arctic","21166","","<b>How did the dogs respond when they saw the bears?</b>","","","","0","arctic-comprehension","","","","","","","","","","","","","{""Q0"":""Ran away in shock""}","","","",""
"html-button-response","74","2006332","0.0-7.0-2.0-4.0","b80af7ccd7456d4f15c180b7a552f6cc8df6888cc6c38ce2f4167c0167fc97b8","swim","arctic","1900","","<p>Thank you for your responses.</p><p>You will now answer some questions about your impressions of the story.</p>","0","","","","","","","","","","","","","","","","","","","","",""
"html-button-response","75","2009092","0.0-7.0-2.0-5.0-0.0","b80af7ccd7456d4f15c180b7a552f6cc8df6888cc6c38ce2f4167c0167fc97b8","swim","arctic","2758","","A5","3","","","","arctic-engagement","","","","","","","","","","","","","","4","absorption","",""
"html-button-response","76","2010884","0.0-7.0-2.0-5.0-0.1","b80af7ccd7456d4f15c180b7a552f6cc8df6888cc6c38ce2f4167c0167fc97b8","swim","arctic","1540","","E8","3","","","","arctic-engagement","","","","","","","","","","","","","","4","enjoyment","",""
"html-button-response","77","2012868","0.0-7.0-2.0-5.0-0.2","b80af7ccd7456d4f15c180b7a552f6cc8df6888cc6c38ce2f4167c0167fc97b8","swim","arctic","1731","","E1","4","","","","arctic-engagement","","","","","","","","","","","","","","5","enjoyment","",""
"html-button-response","78","2015156","0.0-7.0-2.0-5.0-0.3","b80af7ccd7456d4f15c180b7a552f6cc8df6888cc6c38ce2f4167c0167fc97b8","swim","arctic","2035","","A1","4","","","","arctic-engagement","","","","","","","","","","","","","","5","absorption","",""
"html-button-response","79","2016876","0.0-7.0-2.0-5.0-0.4","b80af7ccd7456d4f15c180b7a552f6cc8df6888cc6c38ce2f4167c0167fc97b8","swim","arctic","1467","","E7","4","","","","arctic-engagement","","","","","","","","","","","","","","5","enjoyment","",""
"html-button-response","80","2018484","0.0-7.0-2.0-5.0-0.5","b80af7ccd7456d4f15c180b7a552f6cc8df6888cc6c38ce2f4167c0167fc97b8","swim","arctic","1356","","E10","4","","","","arctic-engagement","","","","","","","","","","","","","","5","enjoyment","",""
"html-button-response","81","2023780","0.0-7.0-2.0-5.0-0.6","b80af7ccd7456d4f15c180b7a552f6cc8df6888cc6c38ce2f4167c0167fc97b8","swim","arctic","5044","","MS1","4","","","","arctic-engagement","","","","","","","","","","","","","","5","mental-sim","",""
"html-button-response","82","2026163","0.0-7.0-2.0-5.0-0.7","b80af7ccd7456d4f15c180b7a552f6cc8df6888cc6c38ce2f4167c0167fc97b8","swim","arctic","2132","","A4","3","","","","arctic-engagement","","","","","","","","","","","","","","4","absorption","",""
"html-button-response","83","2030315","0.0-7.0-2.0-5.0-0.8","b80af7ccd7456d4f15c180b7a552f6cc8df6888cc6c38ce2f4167c0167fc97b8","swim","arctic","3899","","EE1","3","","","","arctic-engagement","","","","","","","","","","","","","","4","emo-engage","",""
"html-button-response","84","2034555","0.0-7.0-2.0-5.0-0.9","b80af7ccd7456d4f15c180b7a552f6cc8df6888cc6c38ce2f4167c0167fc97b8","swim","arctic","3988","","MS2","3","","","","arctic-engagement","","","","","","","","","","","","","","4","mental-sim","",""
"html-button-response","85","2042699","0.0-7.0-2.0-5.0-0.10","b80af7ccd7456d4f15c180b7a552f6cc8df6888cc6c38ce2f4167c0167fc97b8","swim","arctic","7891","","MS3","2","","","","arctic-engagement","","","","","","","","","","","","","","3","mental-sim","",""
"html-button-response","86","2045171","0.0-7.0-2.0-5.0-0.11","b80af7ccd7456d4f15c180b7a552f6cc8df6888cc6c38ce2f4167c0167fc97b8","swim","arctic","2220","","A3","2","","","","arctic-engagement","","","","","","","","","","","","","","3","absorption","",""
"html-button-response","87","2050259","0.0-7.0-2.0-5.0-0.12","b80af7ccd7456d4f15c180b7a552f6cc8df6888cc6c38ce2f4167c0167fc97b8","swim","arctic","4836","","EE4","3","","","","arctic-engagement","","","","","","","","","","","","","","4","emo-engage","",""
"html-button-response","88","2052468","0.0-7.0-2.0-5.0-0.13","b80af7ccd7456d4f15c180b7a552f6cc8df6888cc6c38ce2f4167c0167fc97b8","swim","arctic","1957","","E6","3","","","","arctic-engagement","","","","","","","","","","","","","","4","enjoyment","",""
"html-button-response","89","2054596","0.0-7.0-2.0-5.0-0.14","b80af7ccd7456d4f15c180b7a552f6cc8df6888cc6c38ce2f4167c0167fc97b8","swim","arctic","1876","","EE3","3","","","","arctic-engagement","","","","","","","","","","","","","","4","emo-engage","",""
"html-button-response","90","2056556","0.0-7.0-2.0-5.0-0.15","b80af7ccd7456d4f15c180b7a552f6cc8df6888cc6c38ce2f4167c0167fc97b8","swim","arctic","1708","","EE2","3","","","","arctic-engagement","","","","","","","","","","","","","","4","emo-engage","",""
"html-button-response","91","2058652","0.0-7.0-2.0-5.0-0.16","b80af7ccd7456d4f15c180b7a552f6cc8df6888cc6c38ce2f4167c0167fc97b8","swim","arctic","1844","","EE5","3","","","","arctic-engagement","","","","","","","","","","","","","","4","emo-engage","",""
"html-button-response","92","2061292","0.0-7.0-2.0-5.0-0.17","b80af7ccd7456d4f15c180b7a552f6cc8df6888cc6c38ce2f4167c0167fc97b8","swim","arctic","2387","","A2","3","","","","arctic-engagement","","","","","","","","","","","","","","4","absorption","",""
"html-button-response","93","2065379","0.0-8.0","b80af7ccd7456d4f15c180b7a552f6cc8df6888cc6c38ce2f4167c0167fc97b8","swim","arctic","3835","","<p>Thank you for your responses.</p><p>You will now answer some demographic, hearing, and general health questions.</p>","0","","","","","","","","","","","","","","","","","","","","",""
"survey-multi-choice","94","2068843","0.0-9.0-0.0","b80af7ccd7456d4f15c180b7a552f6cc8df6888cc6c38ce2f4167c0167fc97b8","swim","arctic","3457","","","","","","","survey","","","","","","","","","","","","","{""Q0"":""Chrome""}","","","browser",""
"survey-text","95","2072099","0.0-9.0-1.0","b80af7ccd7456d4f15c180b7a552f6cc8df6888cc6c38ce2f4167c0167fc97b8","swim","arctic","3001.7999999523163","","","","","","","survey","","","","","","","","","","","","","{""AGE"":""39""}","","","age","39"
"survey-multi-choice","96","2074395","0.0-9.0-2.0","b80af7ccd7456d4f15c180b7a552f6cc8df6888cc6c38ce2f4167c0167fc97b8","swim","arctic","2042","","","","","","","survey","","","","","","","","","","","","","{""Q0"":""Female""}","","","gender","Female"
"survey-multi-choice","97","2078587","0.0-9.0-4.0","b80af7ccd7456d4f15c180b7a552f6cc8df6888cc6c38ce2f4167c0167fc97b8","swim","arctic","3937","","","","","","","survey","","","","","","","","","","","","","{""Q0"":""Right""}","","","handedness","Right"
"survey-multi-choice","98","2082243","0.0-9.0-5.0","b80af7ccd7456d4f15c180b7a552f6cc8df6888cc6c38ce2f4167c0167fc97b8","swim","arctic","3395","","","","","","","survey","","","","","","","","","","","","","{""Q0"":""High school""}","","","education","High school"
"survey-text","99","2087898","0.0-10.0-0.0","b80af7ccd7456d4f15c180b7a552f6cc8df6888cc6c38ce2f4167c0167fc97b8","swim","arctic","5401.600000143051","","","","","","","survey","","","","","","","","","","","","","{""L1"":""english""}","","","first-language","english"
"survey-text","100","2097442","0.0-10.0-1.0","b80af7ccd7456d4f15c180b7a552f6cc8df6888cc6c38ce2f4167c0167fc97b8","swim","arctic","9284.200000047684","","","","","","","survey","","","","","","","","","","","","","{""L2name"":"""",""L2fluency"":"""",""L3name"":"""",""L3fluency"":"""",""L4name"":"""",""L4fluency"":""""}","","","additional-languages","{""L2name"":"""",""L2fluency"":"""",""L3name"":"""",""L3fluency"":"""",""L4name"":"""",""L4fluency"":""""}"
"survey-multi-choice","101","2102418","0.0-10.0-2.0","b80af7ccd7456d4f15c180b7a552f6cc8df6888cc6c38ce2f4167c0167fc97b8","swim","arctic","4722","","","","","","","survey","","","","","","","","","","","","","{""Q0"":""No""}","","","hearing-aid","No"
"survey-multi-choice","102","2106793","0.0-10.0-3.0","b80af7ccd7456d4f15c180b7a552f6cc8df6888cc6c38ce2f4167c0167fc97b8","swim","arctic","4119","","","","","","","survey","","","","","","","","","","","","","{""Q0"":""Never""}","","","ringing-ears","Never"
"survey-multi-choice","103","2110233","0.0-10.0-5.0","b80af7ccd7456d4f15c180b7a552f6cc8df6888cc6c38ce2f4167c0167fc97b8","swim","arctic","3187","","","","","","","survey","","","","","","","","","","","","","{""Q0"":""No""}","","","neuro-disease","No"
"survey-multi-choice","104","2113544","0.0-10.0-7.0","b80af7ccd7456d4f15c180b7a552f6cc8df6888cc6c38ce2f4167c0167fc97b8","swim","arctic","3057","","","","","","","survey","","","","","","","","","","","","","{""Q0"":""No""}","","","take-meds","No"
"survey-text","105","2119055","0.0-10.0-9.0","b80af7ccd7456d4f15c180b7a552f6cc8df6888cc6c38ce2f4167c0167fc97b8","swim","arctic","5252","","","","","","","survey","","","","","","","","","","","","","{""HC"":""""}","","","health-concerns",""
"html-button-response","106","2123359","0.0-11.0-0.0","b80af7ccd7456d4f15c180b7a552f6cc8df6888cc6c38ce2f4167c0167fc97b8","swim","arctic","4052","","<p>How would you describe your musical skills/experiences?</p>","1","","","","survey","","","","","","","","","","","","","","","","music-skill","2"
"survey-multi-choice","107","2126479","0.0-11.0-1.0","b80af7ccd7456d4f15c180b7a552f6cc8df6888cc6c38ce2f4167c0167fc97b8","swim","arctic","2868","","","","","","","survey","","","","","","","","","","","","","{""Q0"":""No""}","","","music-instrument","No"
"html-button-response","108","2130127","0.0-12.0-0.0","b80af7ccd7456d4f15c180b7a552f6cc8df6888cc6c38ce2f4167c0167fc97b8","swim","arctic","3396","","<p>How would you describe your general hearing abilities?</p>","4","","","","survey","","","","","","","","","","","","","","","","ssq-01","5"
"html-button-response","109","2139598","0.0-12.0-1.0","b80af7ccd7456d4f15c180b7a552f6cc8df6888cc6c38ce2f4167c0167fc97b8","swim","arctic","9220","","<p>When you talk with someone at a place that strongly reverberates/echoes (e.g., in a church or train station),</br>can you understand what the person says?</p>","7","","","","survey","","","","","","","","","","","","","","","","ssq-02","7"
"html-button-response","110","2144118","0.0-12.0-2.0","b80af7ccd7456d4f15c180b7a552f6cc8df6888cc6c38ce2f4167c0167fc97b8","swim","arctic","4269","","<p>When you are with a group (~5 people) in a lively restaurant, can you follow the group's conversation?</p>","9","","","","survey","","","","","","","","","","","","","","","","ssq-03","9"
"html-button-response","111","2148878","0.0-12.0-3.0","b80af7ccd7456d4f15c180b7a552f6cc8df6888cc6c38ce2f4167c0167fc97b8","swim","arctic","4507","","<p>Based on the sound of a bus or truck, can you tell whether it is moving towards or away from you?</p>","7","","","","survey","","","","","","","","","","","","","","","","ssq-04","7"
"html-button-response","112","2153254","0.0-12.0-4.0","b80af7ccd7456d4f15c180b7a552f6cc8df6888cc6c38ce2f4167c0167fc97b8","swim","arctic","4123","","<p>When you are in an unknown environment, can you tell from which direction a brief sound originates?</p>","8","","","","survey","","","","","","","","","","","","","","","","ssq-05","8"
"html-button-response","113","2157094","0.0-12.0-5.0","b80af7ccd7456d4f15c180b7a552f6cc8df6888cc6c38ce2f4167c0167fc97b8","swim","arctic","3587","","<p>Are you able to ignore distracting sounds when you concentrate on a specific aspect of your acoustic surrounding?</p>","8","","","","survey","","","","","","","","","","","","","","","","ssq-06","8"
"fullscreen","114","2158346","0.0-13.0","b80af7ccd7456d4f15c180b7a552f6cc8df6888cc6c38ce2f4167c0167fc97b8","swim","arctic","","","","","","","","","true","","","","","","","","","","","","","","","",""
