"trial_type","trial_index","time_elapsed","internal_node_id","ParticipantID","firstStory","scramStory","rt","url","stimulus","button_pressed","key_press","correctRESP","correct","designation","success","letterStim","letterType","ONSET","TIMEOUT","CONDITION","Participant","ONSET_ACTUAL","RT","RESP","ACC","STORY","responses","response","type","surveyQuestion","QRESP"
"pavlovia","0","2","0.0-0.0","233ee5c6006aaef5fdac54983d51ed682b6c3c3f985974880085b3606cf35b05","swim","swim","","","","","","","","","","","","","","","","","","","","","","","","",""
"external-html","1","32540","0.0-1.0","233ee5c6006aaef5fdac54983d51ed682b6c3c3f985974880085b3606cf35b05","swim","swim","32429","consent/consent_updated.html","","","","","","","","","","","","","","","","","","","","","","",""
"html-button-response","2","78835","0.0-2.0-0.0","233ee5c6006aaef5fdac54983d51ed682b6c3c3f985974880085b3606cf35b05","swim","swim","46295","","<p>Before we begin the main task, you will complete a short volume calibration and headphone check.</p><p>Please make sure you are in a quiet listening environment, that you are wearing headphones, and that your computer's volume is turned on.<p></p>","0","","","","","","","","","","","","","","","","","","","","",""
"html-button-response","3","87632","0.0-2.0-1.0","233ee5c6006aaef5fdac54983d51ed682b6c3c3f985974880085b3606cf35b05","swim","swim","8546","","<p>The volume calibration will be first.</p><p>You will hear a thirty-second noise. Please adjust your computer's volume so that this noise is being presented at a comfortable level.<p></p>","0","","","","","","","","","","","","","","","","","","","","",""
"audio-button-response","4","95229","0.0-2.0-2.0","233ee5c6006aaef5fdac54983d51ed682b6c3c3f985974880085b3606cf35b05","swim","swim","7342","","audio/volumetest.mp3","0","","","","","","","","","","","","","","","","","","","","",""
"html-keyboard-response","5","109387","0.0-3.0-0.0","233ee5c6006aaef5fdac54983d51ed682b6c3c3f985974880085b3606cf35b05","swim","swim","14157","","<p>You will now complete a short headphone check.</p><p>On each trial, you will hear three tones. One of these tones will be quieter than the others. Your task is to identify whether the quiet tone occurred first, second, or third.</p><p>There are six trials in total.<p></p><p></p>(Press SPACEBAR to begin)","","32","","","","","","","","","","","","","","","","","","","",""
"html-keyboard-response","6","110161","0.0-3.0-1.0-0.0","233ee5c6006aaef5fdac54983d51ed682b6c3c3f985974880085b3606cf35b05","swim","swim","null","","<div style=""font-size:60px;"">+</div>","","null","","","","","","","","","","","","","","","","","","","",""
"audio-button-response","7","118242","0.0-3.0-1.0-1.0","233ee5c6006aaef5fdac54983d51ed682b6c3c3f985974880085b3606cf35b05","swim","swim","8078","","audio/t1_2.mp3","0","","0","1","headphone-test","","","","","","","","","","","","","","","","",""
"html-keyboard-response","8","118744","0.0-3.0-1.0-2.0","233ee5c6006aaef5fdac54983d51ed682b6c3c3f985974880085b3606cf35b05","swim","swim","null","","<p>Correct</p>","","null","","","","","","","","","","","","","","","","","","","",""
"html-keyboard-response","9","119245","0.0-3.0-1.0-0.1","233ee5c6006aaef5fdac54983d51ed682b6c3c3f985974880085b3606cf35b05","swim","swim","null","","<div style=""font-size:60px;"">+</div>","","null","","","","","","","","","","","","","","","","","","","",""
"audio-button-response","10","123951","0.0-3.0-1.0-1.1","233ee5c6006aaef5fdac54983d51ed682b6c3c3f985974880085b3606cf35b05","swim","swim","4704","","audio/t2_1.mp3","1","","1","1","headphone-test","","","","","","","","","","","","","","","","",""
"html-keyboard-response","11","124452","0.0-3.0-1.0-2.1","233ee5c6006aaef5fdac54983d51ed682b6c3c3f985974880085b3606cf35b05","swim","swim","null","","<p>Correct</p>","","null","","","","","","","","","","","","","","","","","","","",""
"html-keyboard-response","12","124953","0.0-3.0-1.0-0.2","233ee5c6006aaef5fdac54983d51ed682b6c3c3f985974880085b3606cf35b05","swim","swim","null","","<div style=""font-size:60px;"">+</div>","","null","","","","","","","","","","","","","","","","","","","",""
"audio-button-response","13","129235","0.0-3.0-1.0-1.2","233ee5c6006aaef5fdac54983d51ed682b6c3c3f985974880085b3606cf35b05","swim","swim","4282","","audio/t2_2.mp3","1","","1","1","headphone-test","","","","","","","","","","","","","","","","",""
"html-keyboard-response","14","129746","0.0-3.0-1.0-2.2","233ee5c6006aaef5fdac54983d51ed682b6c3c3f985974880085b3606cf35b05","swim","swim","null","","<p>Correct</p>","","null","","","","","","","","","","","","","","","","","","","",""
"html-keyboard-response","15","130252","0.0-3.0-1.0-0.3","233ee5c6006aaef5fdac54983d51ed682b6c3c3f985974880085b3606cf35b05","swim","swim","null","","<div style=""font-size:60px;"">+</div>","","null","","","","","","","","","","","","","","","","","","","",""
"audio-button-response","16","134600","0.0-3.0-1.0-1.3","233ee5c6006aaef5fdac54983d51ed682b6c3c3f985974880085b3606cf35b05","swim","swim","4345","","audio/t1_1.mp3","0","","0","1","headphone-test","","","","","","","","","","","","","","","","",""
"html-keyboard-response","17","135101","0.0-3.0-1.0-2.3","233ee5c6006aaef5fdac54983d51ed682b6c3c3f985974880085b3606cf35b05","swim","swim","null","","<p>Correct</p>","","null","","","","","","","","","","","","","","","","","","","",""
"html-keyboard-response","18","135604","0.0-3.0-1.0-0.4","233ee5c6006aaef5fdac54983d51ed682b6c3c3f985974880085b3606cf35b05","swim","swim","null","","<div style=""font-size:60px;"">+</div>","","null","","","","","","","","","","","","","","","","","","","",""
"audio-button-response","19","140030","0.0-3.0-1.0-1.4","233ee5c6006aaef5fdac54983d51ed682b6c3c3f985974880085b3606cf35b05","swim","swim","4425","","audio/t3_2.mp3","2","","2","1","headphone-test","","","","","","","","","","","","","","","","",""
"html-keyboard-response","20","140531","0.0-3.0-1.0-2.4","233ee5c6006aaef5fdac54983d51ed682b6c3c3f985974880085b3606cf35b05","swim","swim","null","","<p>Correct</p>","","null","","","","","","","","","","","","","","","","","","","",""
"html-keyboard-response","21","141046","0.0-3.0-1.0-0.5","233ee5c6006aaef5fdac54983d51ed682b6c3c3f985974880085b3606cf35b05","swim","swim","null","","<div style=""font-size:60px;"">+</div>","","null","","","","","","","","","","","","","","","","","","","",""
"audio-button-response","22","145481","0.0-3.0-1.0-1.5","233ee5c6006aaef5fdac54983d51ed682b6c3c3f985974880085b3606cf35b05","swim","swim","4434","","audio/t3_1.mp3","2","","2","1","headphone-test","","","","","","","","","","","","","","","","",""
"html-keyboard-response","23","145984","0.0-3.0-1.0-2.5","233ee5c6006aaef5fdac54983d51ed682b6c3c3f985974880085b3606cf35b05","swim","swim","null","","<p>Correct</p>","","null","","","","","","","","","","","","","","","","","","","",""
"fullscreen","24","163328","0.0-4.0","233ee5c6006aaef5fdac54983d51ed682b6c3c3f985974880085b3606cf35b05","swim","swim","","","","","","","","","true","","","","","","","","","","","","","","","",""
"html-button-response","25","178255","0.0-5.0-0.0","233ee5c6006aaef5fdac54983d51ed682b6c3c3f985974880085b3606cf35b05","swim","swim","14927","","<p>There are two blocks to this experiment.</p><p>In each block, you will hear a ~13.5 minute story. One of the stories will be scrambled. Please listen carefully to both stories and understand them as best you can.</p><p>After each story, you will be asked some questions to assess your comprehension.</p>","0","","","","","","","","","","","","","","","","","","","","",""
"html-button-response","26","312679","0.0-5.0-1.0","233ee5c6006aaef5fdac54983d51ed682b6c3c3f985974880085b3606cf35b05","swim","swim","134423","","<p>During each story, there will be an additional task.</p><p>A letter will occasionally appear on the screen.</br>Your job is to - as quickly as you can - decide whether the letter is lowercase or uppercase and press one of two keys on the keyboard:</p><p>If the letter is <b>lowercase</b>, press key &lt;<b>x</b>&gt;.</p><p>If the letter is <b>uppercase</b>, press key &lt;<b>m</b>&gt;.</p>","0","","","","","","","","","","","","","","","","","","","","",""
"html-keyboard-response","27","327278","0.0-5.0-2.0","233ee5c6006aaef5fdac54983d51ed682b6c3c3f985974880085b3606cf35b05","swim","swim","14598","","<p>Because we want your responses to be as quick as possible, please keep your index fingers over the keys while listening.</p><p>Each block lasts about 20 minutes.</p><p><b>Press &lt;x&gt; or &lt;m&gt; to start the first block!</b></p>","","77","","","","","","","","","","","","","","","","","","","",""
"html-keyboard-response","28","327779","0.0-7.0-0.0-0.0","233ee5c6006aaef5fdac54983d51ed682b6c3c3f985974880085b3606cf35b05","swim","swim","null","","<div style=""font-size:60px;"" tabindex=""0"">+</div>","","null","","","","","","","","","","","","","","","","","","","",""
"dual-task","null","null","null","","swim","swim","785.0999999046326","","b","null","88","88","1","swim-dual-task","","b","lowercase","14000","0","3","233ee5c6006aaef5fdac54983d51ed682b6c3c3f985974880085b3606cf35b05","14008.399999856949","785.0999999046326","88","1","swim","","","","",""
"dual-task","null","null","null","","swim","swim","770","","q","null","88","88","1","swim-dual-task","","q","lowercase","20000","0","3","233ee5c6006aaef5fdac54983d51ed682b6c3c3f985974880085b3606cf35b05","20000.299999952316","770","88","1","swim","","","","",""
"dual-task","null","null","null","","swim","swim","397.19999980926514","","f","null","88","88","1","swim-dual-task","","f","lowercase","32000","0","3","233ee5c6006aaef5fdac54983d51ed682b6c3c3f985974880085b3606cf35b05","32008.099999904633","397.19999980926514","88","1","swim","","","","",""
"dual-task","null","null","null","","swim","swim","600.0999999046326","","T","null","88","77","0","swim-dual-task","","T","uppercase","44000","0","3","233ee5c6006aaef5fdac54983d51ed682b6c3c3f985974880085b3606cf35b05","44002.5","600.0999999046326","88","0","swim","","","","",""
"dual-task","null","null","null","","swim","swim","572.2000000476837","","h","null","88","88","1","swim-dual-task","","h","lowercase","56000","0","3","233ee5c6006aaef5fdac54983d51ed682b6c3c3f985974880085b3606cf35b05","56001.39999985695","572.2000000476837","88","1","swim","","","","",""
"dual-task","null","null","null","","swim","swim","579.7000000476837","","f","null","88","88","1","swim-dual-task","","f","lowercase","66000","0","3","233ee5c6006aaef5fdac54983d51ed682b6c3c3f985974880085b3606cf35b05","65998.79999995232","579.7000000476837","88","1","swim","","","","",""
"dual-task","null","null","null","","swim","swim","642.3999998569489","","D","null","77","77","1","swim-dual-task","","D","uppercase","80000","0","3","233ee5c6006aaef5fdac54983d51ed682b6c3c3f985974880085b3606cf35b05","80000.5","642.3999998569489","77","1","swim","","","","",""
"dual-task","null","null","null","","swim","swim","644.5999999046326","","d","null","88","88","1","swim-dual-task","","d","lowercase","88000","0","3","233ee5c6006aaef5fdac54983d51ed682b6c3c3f985974880085b3606cf35b05","88012.5","644.5999999046326","88","1","swim","","","","",""
"dual-task","null","null","null","","swim","swim","765.7000000476837","","Q","null","77","77","1","swim-dual-task","","Q","uppercase","96000","0","3","233ee5c6006aaef5fdac54983d51ed682b6c3c3f985974880085b3606cf35b05","96012.29999995232","765.7000000476837","77","1","swim","","","","",""
"dual-task","null","null","null","","swim","swim","484.59999990463257","","H","null","77","77","1","swim-dual-task","","H","uppercase","106000","0","3","233ee5c6006aaef5fdac54983d51ed682b6c3c3f985974880085b3606cf35b05","106013.70000004768","484.59999990463257","77","1","swim","","","","",""
"dual-task","null","null","null","","swim","swim","659.7000000476837","","t","null","88","88","1","swim-dual-task","","t","lowercase","112000","0","3","233ee5c6006aaef5fdac54983d51ed682b6c3c3f985974880085b3606cf35b05","112011.79999995232","659.7000000476837","88","1","swim","","","","",""
"dual-task","null","null","null","","swim","swim","525.2999999523163","","Q","null","77","77","1","swim-dual-task","","Q","uppercase","120000","0","3","233ee5c6006aaef5fdac54983d51ed682b6c3c3f985974880085b3606cf35b05","120012","525.2999999523163","77","1","swim","","","","",""
"dual-task","null","null","null","","swim","swim","696.3999998569489","","h","null","88","88","1","swim-dual-task","","h","lowercase","134000","0","3","233ee5c6006aaef5fdac54983d51ed682b6c3c3f985974880085b3606cf35b05","133999.20000004768","696.3999998569489","88","1","swim","","","","",""
"dual-task","null","null","null","","swim","swim","616","","b","null","88","88","1","swim-dual-task","","b","lowercase","144000","0","3","233ee5c6006aaef5fdac54983d51ed682b6c3c3f985974880085b3606cf35b05","144003.70000004768","616","88","1","swim","","","","",""
"dual-task","null","null","null","","swim","swim","609.2999999523163","","N","null","77","77","1","swim-dual-task","","N","uppercase","152000","0","3","233ee5c6006aaef5fdac54983d51ed682b6c3c3f985974880085b3606cf35b05","152014.29999995232","609.2999999523163","77","1","swim","","","","",""
"dual-task","null","null","null","","swim","swim","659.6000001430511","","t","null","88","88","1","swim-dual-task","","t","lowercase","164000","0","3","233ee5c6006aaef5fdac54983d51ed682b6c3c3f985974880085b3606cf35b05","164013","659.6000001430511","88","1","swim","","","","",""
"dual-task","null","null","null","","swim","swim","533.0999999046326","","A","null","77","77","1","swim-dual-task","","A","uppercase","176000","0","3","233ee5c6006aaef5fdac54983d51ed682b6c3c3f985974880085b3606cf35b05","176004.39999985695","533.0999999046326","77","1","swim","","","","",""
"dual-task","null","null","null","","swim","swim","517.1999998092651","","H","null","77","77","1","swim-dual-task","","H","uppercase","188000","0","3","233ee5c6006aaef5fdac54983d51ed682b6c3c3f985974880085b3606cf35b05","188004.20000004768","517.1999998092651","77","1","swim","","","","",""
"dual-task","null","null","null","","swim","swim","514.9000000953674","","R","null","77","77","1","swim-dual-task","","R","uppercase","198000","0","3","233ee5c6006aaef5fdac54983d51ed682b6c3c3f985974880085b3606cf35b05","198007.5","514.9000000953674","77","1","swim","","","","",""
"dual-task","null","null","null","","swim","swim","503","","G","null","77","77","1","swim-dual-task","","G","uppercase","208000","0","3","233ee5c6006aaef5fdac54983d51ed682b6c3c3f985974880085b3606cf35b05","208004.09999990463","503","77","1","swim","","","","",""
"dual-task","null","null","null","","swim","swim","534","","F","null","77","77","1","swim-dual-task","","F","uppercase","218000","0","3","233ee5c6006aaef5fdac54983d51ed682b6c3c3f985974880085b3606cf35b05","218013.29999995232","534","77","1","swim","","","","",""
"dual-task","null","null","null","","swim","swim","444.59999990463257","","B","null","77","77","1","swim-dual-task","","B","uppercase","228000","0","3","233ee5c6006aaef5fdac54983d51ed682b6c3c3f985974880085b3606cf35b05","228011.20000004768","444.59999990463257","77","1","swim","","","","",""
"dual-task","null","null","null","","swim","swim","555.2999999523163","","t","null","88","88","1","swim-dual-task","","t","lowercase","240000","0","3","233ee5c6006aaef5fdac54983d51ed682b6c3c3f985974880085b3606cf35b05","240006.59999990463","555.2999999523163","88","1","swim","","","","",""
"dual-task","null","null","null","","swim","swim","607.0999999046326","","E","null","77","77","1","swim-dual-task","","E","uppercase","252000","0","3","233ee5c6006aaef5fdac54983d51ed682b6c3c3f985974880085b3606cf35b05","252003.20000004768","607.0999999046326","77","1","swim","","","","",""
"dual-task","null","null","null","","swim","swim","570.4000000953674","","a","null","88","88","1","swim-dual-task","","a","lowercase","260000","0","3","233ee5c6006aaef5fdac54983d51ed682b6c3c3f985974880085b3606cf35b05","260007.79999995232","570.4000000953674","88","1","swim","","","","",""
"dual-task","null","null","null","","swim","swim","576.5","","T","null","77","77","1","swim-dual-task","","T","uppercase","274000","0","3","233ee5c6006aaef5fdac54983d51ed682b6c3c3f985974880085b3606cf35b05","274002.5","576.5","77","1","swim","","","","",""
"dual-task","null","null","null","","swim","swim","704.8999998569489","","f","null","88","88","1","swim-dual-task","","f","lowercase","284000","0","3","233ee5c6006aaef5fdac54983d51ed682b6c3c3f985974880085b3606cf35b05","284002.09999990463","704.8999998569489","88","1","swim","","","","",""
"dual-task","null","null","null","","swim","swim","535.7999999523163","","f","null","88","88","1","swim-dual-task","","f","lowercase","296000","0","3","233ee5c6006aaef5fdac54983d51ed682b6c3c3f985974880085b3606cf35b05","296009.5","535.7999999523163","88","1","swim","","","","",""
"dual-task","null","null","null","","swim","swim","472.5","","q","null","77","88","0","swim-dual-task","","q","lowercase","310000","0","3","233ee5c6006aaef5fdac54983d51ed682b6c3c3f985974880085b3606cf35b05","310002.7000000477","472.5","77","0","swim","","","","",""
"dual-task","null","null","null","","swim","swim","588","","H","null","77","77","1","swim-dual-task","","H","uppercase","318000","0","3","233ee5c6006aaef5fdac54983d51ed682b6c3c3f985974880085b3606cf35b05","318006","588","77","1","swim","","","","",""
"dual-task","null","null","null","","swim","swim","673.4000000953674","","n","null","88","88","1","swim-dual-task","","n","lowercase","328000","0","3","233ee5c6006aaef5fdac54983d51ed682b6c3c3f985974880085b3606cf35b05","328009.89999985695","673.4000000953674","88","1","swim","","","","",""
"dual-task","null","null","null","","swim","swim","629.8999998569489","","e","null","88","88","1","swim-dual-task","","e","lowercase","334000","0","3","233ee5c6006aaef5fdac54983d51ed682b6c3c3f985974880085b3606cf35b05","334012.2000000477","629.8999998569489","88","1","swim","","","","",""
"dual-task","null","null","null","","swim","swim","649.2000000476837","","A","null","77","77","1","swim-dual-task","","A","uppercase","344000","0","3","233ee5c6006aaef5fdac54983d51ed682b6c3c3f985974880085b3606cf35b05","344002","649.2000000476837","77","1","swim","","","","",""
"dual-task","null","null","null","","swim","swim","685.9000000953674","","b","null","88","88","1","swim-dual-task","","b","lowercase","352000","0","3","233ee5c6006aaef5fdac54983d51ed682b6c3c3f985974880085b3606cf35b05","352002.39999985695","685.9000000953674","88","1","swim","","","","",""
"dual-task","null","null","null","","swim","swim","557.5","","e","null","88","88","1","swim-dual-task","","e","lowercase","366000","0","3","233ee5c6006aaef5fdac54983d51ed682b6c3c3f985974880085b3606cf35b05","366005.09999990463","557.5","88","1","swim","","","","",""
"dual-task","null","null","null","","swim","swim","636.5","","A","null","77","77","1","swim-dual-task","","A","uppercase","374000","0","3","233ee5c6006aaef5fdac54983d51ed682b6c3c3f985974880085b3606cf35b05","374001.59999990463","636.5","77","1","swim","","","","",""
"dual-task","null","null","null","","swim","swim","573.8000001907349","","r","null","88","88","1","swim-dual-task","","r","lowercase","382000","0","3","233ee5c6006aaef5fdac54983d51ed682b6c3c3f985974880085b3606cf35b05","382005.39999985695","573.8000001907349","88","1","swim","","","","",""
"dual-task","null","null","null","","swim","swim","572","","B","null","77","77","1","swim-dual-task","","B","uppercase","392000","0","3","233ee5c6006aaef5fdac54983d51ed682b6c3c3f985974880085b3606cf35b05","392003.7999999523","572","77","1","swim","","","","",""
"dual-task","null","null","null","","swim","swim","637.5999999046326","","d","null","88","88","1","swim-dual-task","","d","lowercase","400000","0","3","233ee5c6006aaef5fdac54983d51ed682b6c3c3f985974880085b3606cf35b05","400013.2999999523","637.5999999046326","88","1","swim","","","","",""
"dual-task","null","null","null","","swim","swim","544.2999999523163","","N","null","77","77","1","swim-dual-task","","N","uppercase","414000","0","3","233ee5c6006aaef5fdac54983d51ed682b6c3c3f985974880085b3606cf35b05","414009.7999999523","544.2999999523163","77","1","swim","","","","",""
"dual-task","null","null","null","","swim","swim","699.4000000953674","","e","null","88","88","1","swim-dual-task","","e","lowercase","424000","0","3","233ee5c6006aaef5fdac54983d51ed682b6c3c3f985974880085b3606cf35b05","424003.5","699.4000000953674","88","1","swim","","","","",""
"dual-task","null","null","null","","swim","swim","576.1000001430511","","e","null","88","88","1","swim-dual-task","","e","lowercase","434000","0","3","233ee5c6006aaef5fdac54983d51ed682b6c3c3f985974880085b3606cf35b05","434015","576.1000001430511","88","1","swim","","","","",""
"dual-task","null","null","null","","swim","swim","590.2000000476837","","R","null","77","77","1","swim-dual-task","","R","uppercase","446000","0","3","233ee5c6006aaef5fdac54983d51ed682b6c3c3f985974880085b3606cf35b05","446005.39999985695","590.2000000476837","77","1","swim","","","","",""
"dual-task","null","null","null","","swim","swim","606.5","","n","null","88","88","1","swim-dual-task","","n","lowercase","456000","0","3","233ee5c6006aaef5fdac54983d51ed682b6c3c3f985974880085b3606cf35b05","456004.7000000477","606.5","88","1","swim","","","","",""
"dual-task","null","null","null","","swim","swim","639","","G","null","77","77","1","swim-dual-task","","G","uppercase","466000","0","3","233ee5c6006aaef5fdac54983d51ed682b6c3c3f985974880085b3606cf35b05","466004","639","77","1","swim","","","","",""
"dual-task","null","null","null","","swim","swim","650.4000000953674","","g","null","88","88","1","swim-dual-task","","g","lowercase","478000","0","3","233ee5c6006aaef5fdac54983d51ed682b6c3c3f985974880085b3606cf35b05","477999.5","650.4000000953674","88","1","swim","","","","",""
"dual-task","null","null","null","","swim","swim","592.3000001907349","","r","null","88","88","1","swim-dual-task","","r","lowercase","488000","0","3","233ee5c6006aaef5fdac54983d51ed682b6c3c3f985974880085b3606cf35b05","488014.2999999523","592.3000001907349","88","1","swim","","","","",""
"dual-task","null","null","null","","swim","swim","639.5","","N","null","77","77","1","swim-dual-task","","N","uppercase","498000","0","3","233ee5c6006aaef5fdac54983d51ed682b6c3c3f985974880085b3606cf35b05","498004.7000000477","639.5","77","1","swim","","","","",""
"dual-task","null","null","null","","swim","swim","655.5","","D","null","77","77","1","swim-dual-task","","D","uppercase","512000","0","3","233ee5c6006aaef5fdac54983d51ed682b6c3c3f985974880085b3606cf35b05","512001.59999990463","655.5","77","1","swim","","","","",""
"dual-task","null","null","null","","swim","swim","529.5","","E","null","77","77","1","swim-dual-task","","E","uppercase","518000","0","3","233ee5c6006aaef5fdac54983d51ed682b6c3c3f985974880085b3606cf35b05","518008.09999990463","529.5","77","1","swim","","","","",""
"dual-task","null","null","null","","swim","swim","656.2999999523163","","g","null","88","88","1","swim-dual-task","","g","lowercase","524000","0","3","233ee5c6006aaef5fdac54983d51ed682b6c3c3f985974880085b3606cf35b05","524000.7000000477","656.2999999523163","88","1","swim","","","","",""
"dual-task","null","null","null","","swim","swim","638.5","","G","null","77","77","1","swim-dual-task","","G","uppercase","536000","0","3","233ee5c6006aaef5fdac54983d51ed682b6c3c3f985974880085b3606cf35b05","536003.399999857","638.5","77","1","swim","","","","",""
"dual-task","null","null","null","","swim","swim","638.5","","T","null","77","77","1","swim-dual-task","","T","uppercase","550000","0","3","233ee5c6006aaef5fdac54983d51ed682b6c3c3f985974880085b3606cf35b05","550009.7000000477","638.5","77","1","swim","","","","",""
"dual-task","null","null","null","","swim","swim","658.5999999046326","","R","null","77","77","1","swim-dual-task","","R","uppercase","556000","0","3","233ee5c6006aaef5fdac54983d51ed682b6c3c3f985974880085b3606cf35b05","556006.5","658.5999999046326","77","1","swim","","","","",""
"dual-task","null","null","null","","swim","swim","742","","a","null","88","88","1","swim-dual-task","","a","lowercase","562000","0","3","233ee5c6006aaef5fdac54983d51ed682b6c3c3f985974880085b3606cf35b05","562012.0999999046","742","88","1","swim","","","","",""
"dual-task","null","null","null","","swim","swim","581","","D","null","77","77","1","swim-dual-task","","D","uppercase","568000","0","3","233ee5c6006aaef5fdac54983d51ed682b6c3c3f985974880085b3606cf35b05","568005.7000000477","581","77","1","swim","","","","",""
"dual-task","null","null","null","","swim","swim","767","","g","null","88","88","1","swim-dual-task","","g","lowercase","580000","0","3","233ee5c6006aaef5fdac54983d51ed682b6c3c3f985974880085b3606cf35b05","580012.7999999523","767","88","1","swim","","","","",""
"dual-task","null","null","null","","swim","swim","840.4000000953674","","E","null","77","77","1","swim-dual-task","","E","uppercase","590000","0","3","233ee5c6006aaef5fdac54983d51ed682b6c3c3f985974880085b3606cf35b05","590010","840.4000000953674","77","1","swim","","","","",""
"dual-task","null","null","null","","swim","swim","1325.5","","d","null","88","88","1","swim-dual-task","","d","lowercase","604000","0","3","233ee5c6006aaef5fdac54983d51ed682b6c3c3f985974880085b3606cf35b05","604012.7000000477","1325.5","88","1","swim","","","","",""
"dual-task","null","null","null","","swim","swim","573.9000000953674","","E","null","77","77","1","swim-dual-task","","E","uppercase","614000","0","3","233ee5c6006aaef5fdac54983d51ed682b6c3c3f985974880085b3606cf35b05","614004.7000000477","573.9000000953674","77","1","swim","","","","",""
"dual-task","null","null","null","","swim","swim","724","","g","null","88","88","1","swim-dual-task","","g","lowercase","624000","0","3","233ee5c6006aaef5fdac54983d51ed682b6c3c3f985974880085b3606cf35b05","624014.7999999523","724","88","1","swim","","","","",""
"dual-task","null","null","null","","swim","swim","558.3999998569489","","q","null","88","88","1","swim-dual-task","","q","lowercase","632000","0","3","233ee5c6006aaef5fdac54983d51ed682b6c3c3f985974880085b3606cf35b05","632003.5","558.3999998569489","88","1","swim","","","","",""
"dual-task","null","null","null","","swim","swim","873.7000000476837","","T","null","77","77","1","swim-dual-task","","T","uppercase","642000","0","3","233ee5c6006aaef5fdac54983d51ed682b6c3c3f985974880085b3606cf35b05","642009.7000000477","873.7000000476837","77","1","swim","","","","",""
"dual-task","null","null","null","","swim","swim","777.5","","r","null","77","88","0","swim-dual-task","","r","lowercase","648000","0","3","233ee5c6006aaef5fdac54983d51ed682b6c3c3f985974880085b3606cf35b05","648000.2000000477","777.5","77","0","swim","","","","",""
"dual-task","null","null","null","","swim","swim","771.0999999046326","","H","null","77","77","1","swim-dual-task","","H","uppercase","660000","0","3","233ee5c6006aaef5fdac54983d51ed682b6c3c3f985974880085b3606cf35b05","660015.5","771.0999999046326","77","1","swim","","","","",""
"dual-task","null","null","null","","swim","swim","969.8000001907349","","N","null","77","77","1","swim-dual-task","","N","uppercase","670000","0","3","233ee5c6006aaef5fdac54983d51ed682b6c3c3f985974880085b3606cf35b05","670001.2999999523","969.8000001907349","77","1","swim","","","","",""
"dual-task","null","null","null","","swim","swim","640.3999998569489","","a","null","88","88","1","swim-dual-task","","a","lowercase","680000","0","3","233ee5c6006aaef5fdac54983d51ed682b6c3c3f985974880085b3606cf35b05","680011.5999999046","640.3999998569489","88","1","swim","","","","",""
"dual-task","null","null","null","","swim","swim","575.1000001430511","","F","null","77","77","1","swim-dual-task","","F","uppercase","692000","0","3","233ee5c6006aaef5fdac54983d51ed682b6c3c3f985974880085b3606cf35b05","692013.899999857","575.1000001430511","77","1","swim","","","","",""
"dual-task","null","null","null","","swim","swim","632.4000000953674","","d","null","88","88","1","swim-dual-task","","d","lowercase","702000","0","3","233ee5c6006aaef5fdac54983d51ed682b6c3c3f985974880085b3606cf35b05","702013.7999999523","632.4000000953674","88","1","swim","","","","",""
"dual-task","null","null","null","","swim","swim","660.2000000476837","","h","null","88","88","1","swim-dual-task","","h","lowercase","710000","0","3","233ee5c6006aaef5fdac54983d51ed682b6c3c3f985974880085b3606cf35b05","710012.5","660.2000000476837","88","1","swim","","","","",""
"dual-task","null","null","null","","swim","swim","868.5999999046326","","Q","null","77","77","1","swim-dual-task","","Q","uppercase","718000","0","3","233ee5c6006aaef5fdac54983d51ed682b6c3c3f985974880085b3606cf35b05","718006.2000000477","868.5999999046326","77","1","swim","","","","",""
"dual-task","null","null","null","","swim","swim","514.5","","R","null","77","77","1","swim-dual-task","","R","uppercase","730000","0","3","233ee5c6006aaef5fdac54983d51ed682b6c3c3f985974880085b3606cf35b05","730008.2000000477","514.5","77","1","swim","","","","",""
"dual-task","null","null","null","","swim","swim","552.6999998092651","","h","null","88","88","1","swim-dual-task","","h","lowercase","742000","0","3","233ee5c6006aaef5fdac54983d51ed682b6c3c3f985974880085b3606cf35b05","742008.899999857","552.6999998092651","88","1","swim","","","","",""
"dual-task","null","null","null","","swim","swim","483","","n","null","88","88","1","swim-dual-task","","n","lowercase","748000","0","3","233ee5c6006aaef5fdac54983d51ed682b6c3c3f985974880085b3606cf35b05","748006.5","483","88","1","swim","","","","",""
"dual-task","null","null","null","","swim","swim","558.5","","A","null","77","77","1","swim-dual-task","","A","uppercase","762000","0","3","233ee5c6006aaef5fdac54983d51ed682b6c3c3f985974880085b3606cf35b05","762012.5","558.5","77","1","swim","","","","",""
"dual-task","null","null","null","","swim","swim","825.2999999523163","","B","null","77","77","1","swim-dual-task","","B","uppercase","772000","0","3","233ee5c6006aaef5fdac54983d51ed682b6c3c3f985974880085b3606cf35b05","772010.0999999046","825.2999999523163","77","1","swim","","","","",""
"dual-task","null","null","null","","swim","swim","1045.7999999523163","","q","null","88","88","1","swim-dual-task","","q","lowercase","784000","0","3","233ee5c6006aaef5fdac54983d51ed682b6c3c3f985974880085b3606cf35b05","784008.5999999046","1045.7999999523163","88","1","swim","","","","",""
"dual-task","null","null","null","","swim","swim","605.5999999046326","","b","null","88","88","1","swim-dual-task","","b","lowercase","792000","0","3","233ee5c6006aaef5fdac54983d51ed682b6c3c3f985974880085b3606cf35b05","792014.2000000477","605.5999999046326","88","1","swim","","","","",""
"audio-keyboard-response","29","1137810","0.0-7.0-0.0-1.0","233ee5c6006aaef5fdac54983d51ed682b6c3c3f985974880085b3606cf35b05","swim","swim","null","","audio/story_swim_scrambled.mp3","","null","","","","","","","","","","","","","","","","","","","",""
"html-button-response","30","1512810","0.0-7.0-0.0-2.0","233ee5c6006aaef5fdac54983d51ed682b6c3c3f985974880085b3606cf35b05","swim","swim","374998","","<p>This concludes the story. Thank you for listening.</p><p>You will now answer some questions about the content of the story.</p>","0","","","","","","","","","","","","","","","","","","","","",""
"survey-multi-choice","31","1526389","0.0-7.0-0.0-3.0-0.0","233ee5c6006aaef5fdac54983d51ed682b6c3c3f985974880085b3606cf35b05","swim","swim","13576","","<b>How many times did the astronaut candidates have to complete the final exercise to pass?</b>","","","","1","swim-comprehension","","","","","","","","","","","","","{""Q0"":""Two""}","","","",""
"survey-multi-choice","32","1548589","0.0-7.0-0.0-3.0-0.1","233ee5c6006aaef5fdac54983d51ed682b6c3c3f985974880085b3606cf35b05","swim","swim","21945","","<b>How often does the narrator swim, now that he is a good swimmer?</b>","","","","0","swim-comprehension","","","","","","","","","","","","","{""Q0"":""Every weekend with his kids""}","","","",""
"survey-multi-choice","33","1565462","0.0-7.0-0.0-3.0-0.2","233ee5c6006aaef5fdac54983d51ed682b6c3c3f985974880085b3606cf35b05","swim","swim","16616","","<b>What were the astronaut candidates trained to do at the naval air station?</b>","","","","1","swim-comprehension","","","","","","","","","","","","","{""Q0"":""Eject out of aircraft and survive in water long enough to be rescued""}","","","",""
"survey-multi-choice","34","1580366","0.0-7.0-0.0-3.0-0.3","233ee5c6006aaef5fdac54983d51ed682b6c3c3f985974880085b3606cf35b05","swim","swim","14651","","<b>What gave the narrator his greatest feeling of accomplishment?</b>","","","","0","swim-comprehension","","","","","","","","","","","","","{""Q0"":""Completing his PhD at MIT""}","","","",""
"survey-multi-choice","35","1587790","0.0-7.0-0.0-3.0-0.4","233ee5c6006aaef5fdac54983d51ed682b6c3c3f985974880085b3606cf35b05","swim","swim","7167","","<b>What is the narrator afraid of, aside from the water?</b>","","","","1","swim-comprehension","","","","","","","","","","","","","{""Q0"":""Heights""}","","","",""
"survey-multi-choice","36","1599423","0.0-7.0-0.0-3.0-0.5","233ee5c6006aaef5fdac54983d51ed682b6c3c3f985974880085b3606cf35b05","swim","swim","11381","","<b>What was the final step of the first swim test in the pool?</b>","","","","1","swim-comprehension","","","","","","","","","","","","","{""Q0"":""Tread water with hands above the water""}","","","",""
"survey-multi-choice","37","1614829","0.0-7.0-0.0-3.0-0.6","233ee5c6006aaef5fdac54983d51ed682b6c3c3f985974880085b3606cf35b05","swim","swim","15149","","<b>Where is the home of naval aviation?</b>","","","","1","swim-comprehension","","","","","","","","","","","","","{""Q0"":""Pensacola""}","","","",""
"survey-multi-choice","38","1623129","0.0-7.0-0.0-3.0-0.7","233ee5c6006aaef5fdac54983d51ed682b6c3c3f985974880085b3606cf35b05","swim","swim","8045","","<b>How many astronaut candidates reported for duty at the Johnson Space Center?</b>","","","","1","swim-comprehension","","","","","","","","","","","","","{""Q0"":""Forty-four""}","","","",""
"survey-multi-choice","39","1635769","0.0-7.0-0.0-3.0-0.8","233ee5c6006aaef5fdac54983d51ed682b6c3c3f985974880085b3606cf35b05","swim","swim","12385","","<b>How did the narrator train for his swim test?</b>","","","","1","swim-comprehension","","","","","","","","","","","","","{""Q0"":""Took his kids to the pool every day""}","","","",""
"survey-multi-choice","40","1644475","0.0-7.0-0.0-3.0-0.9","233ee5c6006aaef5fdac54983d51ed682b6c3c3f985974880085b3606cf35b05","swim","swim","8452","","<b>How many astronaut candidates passed the first swim test?</b>","","","","1","swim-comprehension","","","","","","","","","","","","","{""Q0"":""All of them""}","","","",""
"html-button-response","41","1649890","0.0-7.0-0.0-4.0","233ee5c6006aaef5fdac54983d51ed682b6c3c3f985974880085b3606cf35b05","swim","swim","5162","","<p>Thank you for your responses.</p><p>You will now answer some questions about your impressions of the story.</p>","0","","","","","","","","","","","","","","","","","","","","",""
"html-button-response","42","1666333","0.0-7.0-0.0-5.0-0.0","233ee5c6006aaef5fdac54983d51ed682b6c3c3f985974880085b3606cf35b05","swim","swim","16443","","EE1","5","","","","swim-engagement","","","","","","","","","","","","","","6","emo-engage","",""
"html-button-response","43","1671244","0.0-7.0-0.0-5.0-0.1","233ee5c6006aaef5fdac54983d51ed682b6c3c3f985974880085b3606cf35b05","swim","swim","4657","","A1","6","","","","swim-engagement","","","","","","","","","","","","","","7","absorption","",""
"html-button-response","44","1674404","0.0-7.0-0.0-5.0-0.2","233ee5c6006aaef5fdac54983d51ed682b6c3c3f985974880085b3606cf35b05","swim","swim","2907","","EE3","5","","","","swim-engagement","","","","","","","","","","","","","","6","emo-engage","",""
"html-button-response","45","1677616","0.0-7.0-0.0-5.0-0.3","233ee5c6006aaef5fdac54983d51ed682b6c3c3f985974880085b3606cf35b05","swim","swim","2961","","EE2","6","","","","swim-engagement","","","","","","","","","","","","","","7","emo-engage","",""
"html-button-response","46","1682135","0.0-7.0-0.0-5.0-0.4","233ee5c6006aaef5fdac54983d51ed682b6c3c3f985974880085b3606cf35b05","swim","swim","4268","","E1","6","","","","swim-engagement","","","","","","","","","","","","","","7","enjoyment","",""
"html-button-response","47","1684110","0.0-7.0-0.0-5.0-0.5","233ee5c6006aaef5fdac54983d51ed682b6c3c3f985974880085b3606cf35b05","swim","swim","1722","","E8","5","","","","swim-engagement","","","","","","","","","","","","","","6","enjoyment","",""
"html-button-response","48","1687667","0.0-7.0-0.0-5.0-0.6","233ee5c6006aaef5fdac54983d51ed682b6c3c3f985974880085b3606cf35b05","swim","swim","3306","","E6","6","","","","swim-engagement","","","","","","","","","","","","","","7","enjoyment","",""
"html-button-response","49","1691010","0.0-7.0-0.0-5.0-0.7","233ee5c6006aaef5fdac54983d51ed682b6c3c3f985974880085b3606cf35b05","swim","swim","3090","","EE4","5","","","","swim-engagement","","","","","","","","","","","","","","6","emo-engage","",""
"html-button-response","50","1694356","0.0-7.0-0.0-5.0-0.8","233ee5c6006aaef5fdac54983d51ed682b6c3c3f985974880085b3606cf35b05","swim","swim","3094","","E7","6","","","","swim-engagement","","","","","","","","","","","","","","7","enjoyment","",""
"html-button-response","51","1698975","0.0-7.0-0.0-5.0-0.9","233ee5c6006aaef5fdac54983d51ed682b6c3c3f985974880085b3606cf35b05","swim","swim","4366","","MS1","5","","","","swim-engagement","","","","","","","","","","","","","","6","mental-sim","",""
"html-button-response","52","1702438","0.0-7.0-0.0-5.0-0.10","233ee5c6006aaef5fdac54983d51ed682b6c3c3f985974880085b3606cf35b05","swim","swim","3212","","E10","6","","","","swim-engagement","","","","","","","","","","","","","","7","enjoyment","",""
"html-button-response","53","1707200","0.0-7.0-0.0-5.0-0.11","233ee5c6006aaef5fdac54983d51ed682b6c3c3f985974880085b3606cf35b05","swim","swim","4509","","A4","5","","","","swim-engagement","","","","","","","","","","","","","","6","absorption","",""
"html-button-response","54","1712263","0.0-7.0-0.0-5.0-0.12","233ee5c6006aaef5fdac54983d51ed682b6c3c3f985974880085b3606cf35b05","swim","swim","4812","","MS2","5","","","","swim-engagement","","","","","","","","","","","","","","6","mental-sim","",""
"html-button-response","55","1716396","0.0-7.0-0.0-5.0-0.13","233ee5c6006aaef5fdac54983d51ed682b6c3c3f985974880085b3606cf35b05","swim","swim","3882","","A3","6","","","","swim-engagement","","","","","","","","","","","","","","7","absorption","",""
"html-button-response","56","1720657","0.0-7.0-0.0-5.0-0.14","233ee5c6006aaef5fdac54983d51ed682b6c3c3f985974880085b3606cf35b05","swim","swim","4008","","A2","5","","","","swim-engagement","","","","","","","","","","","","","","6","absorption","",""
"html-button-response","57","1725886","0.0-7.0-0.0-5.0-0.15","233ee5c6006aaef5fdac54983d51ed682b6c3c3f985974880085b3606cf35b05","swim","swim","4977","","MS3","6","","","","swim-engagement","","","","","","","","","","","","","","7","mental-sim","",""
"html-button-response","58","1731351","0.0-7.0-0.0-5.0-0.16","233ee5c6006aaef5fdac54983d51ed682b6c3c3f985974880085b3606cf35b05","swim","swim","5212","","A5","5","","","","swim-engagement","","","","","","","","","","","","","","6","absorption","",""
"html-button-response","59","1734593","0.0-7.0-0.0-5.0-0.17","233ee5c6006aaef5fdac54983d51ed682b6c3c3f985974880085b3606cf35b05","swim","swim","2990","","EE5","5","","","","swim-engagement","","","","","","","","","","","","","","6","emo-engage","",""
"html-keyboard-response","60","1757977","0.0-7.0-1.0","233ee5c6006aaef5fdac54983d51ed682b6c3c3f985974880085b3606cf35b05","swim","swim","23131","","<p>Thank you for your responses. You will now listen to the second story.</p><p>Remember, as you listen to the story you will see letters appear on the screen.</br>As quickly as possible, press <b>&lt;x&gt;</b> if the letter is lowercase and <b>&lt;m&gt;</b> if the letter is uppercase.</p><p>Press <b>&lt;x&gt;</b> or <b>&lt;m&gt;</b> to begin listening!</p>","","88","","","","","","","","","","","","","","","","","","","",""
"html-keyboard-response","61","1758478","0.0-7.0-2.0-0.0","233ee5c6006aaef5fdac54983d51ed682b6c3c3f985974880085b3606cf35b05","swim","swim","null","","<div style=""font-size:60px;"" tabindex=""0"">+</div>","","null","","","","","","","","","","","","","","","","","","","",""
"dual-task","null","null","null","","swim","swim","548.2999999523163","","d","null","88","88","1","arctic-dual-task","","d","lowercase","14000","0","3","233ee5c6006aaef5fdac54983d51ed682b6c3c3f985974880085b3606cf35b05","13999.900000095367","548.2999999523163","88","1","arctic","","","","",""
"dual-task","null","null","null","","swim","swim","765.3000001907349","","G","null","77","77","1","arctic-dual-task","","G","uppercase","28000","0","3","233ee5c6006aaef5fdac54983d51ed682b6c3c3f985974880085b3606cf35b05","28012.700000047684","765.3000001907349","77","1","arctic","","","","",""
"dual-task","null","null","null","","swim","swim","555.4000000953674","","N","null","77","77","1","arctic-dual-task","","N","uppercase","38000","0","3","233ee5c6006aaef5fdac54983d51ed682b6c3c3f985974880085b3606cf35b05","38003.90000009537","555.4000000953674","77","1","arctic","","","","",""
"dual-task","null","null","null","","swim","swim","642.2999999523163","","f","null","88","88","1","arctic-dual-task","","f","lowercase","50000","0","3","233ee5c6006aaef5fdac54983d51ed682b6c3c3f985974880085b3606cf35b05","50011.200000047684","642.2999999523163","88","1","arctic","","","","",""
"dual-task","null","null","null","","swim","swim","560.7000000476837","","D","null","77","77","1","arctic-dual-task","","D","uppercase","58000","0","3","233ee5c6006aaef5fdac54983d51ed682b6c3c3f985974880085b3606cf35b05","58012.10000014305","560.7000000476837","77","1","arctic","","","","",""
"dual-task","null","null","null","","swim","swim","787.2000000476837","","a","null","88","88","1","arctic-dual-task","","a","lowercase","70000","0","3","233ee5c6006aaef5fdac54983d51ed682b6c3c3f985974880085b3606cf35b05","70011","787.2000000476837","88","1","arctic","","","","",""
"dual-task","null","null","null","","swim","swim","570.5","","Q","null","77","77","1","arctic-dual-task","","Q","uppercase","84000","0","3","233ee5c6006aaef5fdac54983d51ed682b6c3c3f985974880085b3606cf35b05","84000.70000004768","570.5","77","1","arctic","","","","",""
"dual-task","null","null","null","","swim","swim","565.5","","R","null","77","77","1","arctic-dual-task","","R","uppercase","98000","0","3","233ee5c6006aaef5fdac54983d51ed682b6c3c3f985974880085b3606cf35b05","97999.70000004768","565.5","77","1","arctic","","","","",""
"dual-task","null","null","null","","swim","swim","558.5","","q","null","88","88","1","arctic-dual-task","","q","lowercase","112000","0","3","233ee5c6006aaef5fdac54983d51ed682b6c3c3f985974880085b3606cf35b05","111999.10000014305","558.5","88","1","arctic","","","","",""
"dual-task","null","null","null","","swim","swim","613.9000000953674","","a","null","88","88","1","arctic-dual-task","","a","lowercase","120000","0","3","233ee5c6006aaef5fdac54983d51ed682b6c3c3f985974880085b3606cf35b05","120006.90000009537","613.9000000953674","88","1","arctic","","","","",""
"dual-task","null","null","null","","swim","swim","566","","d","null","88","88","1","arctic-dual-task","","d","lowercase","132000","0","3","233ee5c6006aaef5fdac54983d51ed682b6c3c3f985974880085b3606cf35b05","132008.10000014305","566","88","1","arctic","","","","",""
"dual-task","null","null","null","","swim","swim","566.8999998569489","","N","null","77","77","1","arctic-dual-task","","N","uppercase","146000","0","3","233ee5c6006aaef5fdac54983d51ed682b6c3c3f985974880085b3606cf35b05","146006.79999995232","566.8999998569489","77","1","arctic","","","","",""
"dual-task","null","null","null","","swim","swim","627.4000000953674","","e","null","88","88","1","arctic-dual-task","","e","lowercase","154000","0","3","233ee5c6006aaef5fdac54983d51ed682b6c3c3f985974880085b3606cf35b05","154011.70000004768","627.4000000953674","88","1","arctic","","","","",""
"dual-task","null","null","null","","swim","swim","611.2999999523163","","f","null","88","88","1","arctic-dual-task","","f","lowercase","164000","0","3","233ee5c6006aaef5fdac54983d51ed682b6c3c3f985974880085b3606cf35b05","164011.79999995232","611.2999999523163","88","1","arctic","","","","",""
"dual-task","null","null","null","","swim","swim","528.5","","n","null","88","88","1","arctic-dual-task","","n","lowercase","178000","0","3","233ee5c6006aaef5fdac54983d51ed682b6c3c3f985974880085b3606cf35b05","178010","528.5","88","1","arctic","","","","",""
"dual-task","null","null","null","","swim","swim","498.10000014305115","","g","null","88","88","1","arctic-dual-task","","g","lowercase","186000","0","3","233ee5c6006aaef5fdac54983d51ed682b6c3c3f985974880085b3606cf35b05","186010.79999995232","498.10000014305115","88","1","arctic","","","","",""
"dual-task","null","null","null","","swim","swim","578.0999999046326","","T","null","77","77","1","arctic-dual-task","","T","uppercase","200000","0","3","233ee5c6006aaef5fdac54983d51ed682b6c3c3f985974880085b3606cf35b05","200011.10000014305","578.0999999046326","77","1","arctic","","","","",""
"dual-task","null","null","null","","swim","swim","610.7000000476837","","r","null","88","88","1","arctic-dual-task","","r","lowercase","212000","0","3","233ee5c6006aaef5fdac54983d51ed682b6c3c3f985974880085b3606cf35b05","212004.10000014305","610.7000000476837","88","1","arctic","","","","",""
"dual-task","null","null","null","","swim","swim","546.2999999523163","","E","null","77","77","1","arctic-dual-task","","E","uppercase","220000","0","3","233ee5c6006aaef5fdac54983d51ed682b6c3c3f985974880085b3606cf35b05","220003.90000009537","546.2999999523163","77","1","arctic","","","","",""
"dual-task","null","null","null","","swim","swim","594.3999998569489","","H","null","77","77","1","arctic-dual-task","","H","uppercase","234000","0","3","233ee5c6006aaef5fdac54983d51ed682b6c3c3f985974880085b3606cf35b05","234012.40000009537","594.3999998569489","77","1","arctic","","","","",""
"dual-task","null","null","null","","swim","swim","561.2999999523163","","R","null","77","77","1","arctic-dual-task","","R","uppercase","246000","0","3","233ee5c6006aaef5fdac54983d51ed682b6c3c3f985974880085b3606cf35b05","246007.60000014305","561.2999999523163","77","1","arctic","","","","",""
"dual-task","null","null","null","","swim","swim","625.7999999523163","","B","null","77","77","1","arctic-dual-task","","B","uppercase","256000","0","3","233ee5c6006aaef5fdac54983d51ed682b6c3c3f985974880085b3606cf35b05","256003.40000009537","625.7999999523163","77","1","arctic","","","","",""
"dual-task","null","null","null","","swim","swim","662.3999998569489","","q","null","88","88","1","arctic-dual-task","","q","lowercase","264000","0","3","233ee5c6006aaef5fdac54983d51ed682b6c3c3f985974880085b3606cf35b05","264007.5","662.3999998569489","88","1","arctic","","","","",""
"dual-task","null","null","null","","swim","swim","569.7000000476837","","g","null","88","88","1","arctic-dual-task","","g","lowercase","274000","0","3","233ee5c6006aaef5fdac54983d51ed682b6c3c3f985974880085b3606cf35b05","274004.7000000477","569.7000000476837","88","1","arctic","","","","",""
"dual-task","null","null","null","","swim","swim","544.9000000953674","","A","null","77","77","1","arctic-dual-task","","A","uppercase","286000","0","3","233ee5c6006aaef5fdac54983d51ed682b6c3c3f985974880085b3606cf35b05","286004.7000000477","544.9000000953674","77","1","arctic","","","","",""
"dual-task","null","null","null","","swim","swim","590.5","","E","null","77","77","1","arctic-dual-task","","E","uppercase","296000","0","3","233ee5c6006aaef5fdac54983d51ed682b6c3c3f985974880085b3606cf35b05","296000.2999999523","590.5","77","1","arctic","","","","",""
"dual-task","null","null","null","","swim","swim","585","","t","null","88","88","1","arctic-dual-task","","t","lowercase","306000","0","3","233ee5c6006aaef5fdac54983d51ed682b6c3c3f985974880085b3606cf35b05","306004.60000014305","585","88","1","arctic","","","","",""
"dual-task","null","null","null","","swim","swim","566.0999999046326","","A","null","77","77","1","arctic-dual-task","","A","uppercase","314000","0","3","233ee5c6006aaef5fdac54983d51ed682b6c3c3f985974880085b3606cf35b05","314008.7000000477","566.0999999046326","77","1","arctic","","","","",""
"dual-task","null","null","null","","swim","swim","633.7000000476837","","b","null","88","88","1","arctic-dual-task","","b","lowercase","326000","0","3","233ee5c6006aaef5fdac54983d51ed682b6c3c3f985974880085b3606cf35b05","326011.10000014305","633.7000000476837","88","1","arctic","","","","",""
"dual-task","null","null","null","","swim","swim","594.2999999523163","","B","null","77","77","1","arctic-dual-task","","B","uppercase","334000","0","3","233ee5c6006aaef5fdac54983d51ed682b6c3c3f985974880085b3606cf35b05","334002.5","594.2999999523163","77","1","arctic","","","","",""
"dual-task","null","null","null","","swim","swim","588.0999999046326","","r","null","88","88","1","arctic-dual-task","","r","lowercase","346000","0","3","233ee5c6006aaef5fdac54983d51ed682b6c3c3f985974880085b3606cf35b05","346010","588.0999999046326","88","1","arctic","","","","",""
"dual-task","null","null","null","","swim","swim","716.2999999523163","","H","null","77","77","1","arctic-dual-task","","H","uppercase","356000","0","3","233ee5c6006aaef5fdac54983d51ed682b6c3c3f985974880085b3606cf35b05","356008.5","716.2999999523163","77","1","arctic","","","","",""
"dual-task","null","null","null","","swim","swim","629.7000000476837","","t","null","88","88","1","arctic-dual-task","","t","lowercase","366000","0","3","233ee5c6006aaef5fdac54983d51ed682b6c3c3f985974880085b3606cf35b05","366000.10000014305","629.7000000476837","88","1","arctic","","","","",""
"dual-task","null","null","null","","swim","swim","654.7000000476837","","b","null","88","88","1","arctic-dual-task","","b","lowercase","376000","0","3","233ee5c6006aaef5fdac54983d51ed682b6c3c3f985974880085b3606cf35b05","376000.10000014305","654.7000000476837","88","1","arctic","","","","",""
"dual-task","null","null","null","","swim","swim","608.7999999523163","","R","null","77","77","1","arctic-dual-task","","R","uppercase","386000","0","3","233ee5c6006aaef5fdac54983d51ed682b6c3c3f985974880085b3606cf35b05","386012.40000009537","608.7999999523163","77","1","arctic","","","","",""
"dual-task","null","null","null","","swim","swim","593.8000001907349","","Q","null","77","77","1","arctic-dual-task","","Q","uppercase","398000","0","3","233ee5c6006aaef5fdac54983d51ed682b6c3c3f985974880085b3606cf35b05","398004.7000000477","593.8000001907349","77","1","arctic","","","","",""
"dual-task","null","null","null","","swim","swim","680.1999998092651","","f","null","88","88","1","arctic-dual-task","","f","lowercase","404000","0","3","233ee5c6006aaef5fdac54983d51ed682b6c3c3f985974880085b3606cf35b05","404005.5","680.1999998092651","88","1","arctic","","","","",""
"dual-task","null","null","null","","swim","swim","539.2999999523163","","e","null","88","88","1","arctic-dual-task","","e","lowercase","418000","0","3","233ee5c6006aaef5fdac54983d51ed682b6c3c3f985974880085b3606cf35b05","418010.40000009537","539.2999999523163","88","1","arctic","","","","",""
"dual-task","null","null","null","","swim","swim","585.2999999523163","","r","null","88","88","1","arctic-dual-task","","r","lowercase","424000","0","3","233ee5c6006aaef5fdac54983d51ed682b6c3c3f985974880085b3606cf35b05","424001.40000009537","585.2999999523163","88","1","arctic","","","","",""
"dual-task","null","null","null","","swim","swim","642.5","","Q","null","77","77","1","arctic-dual-task","","Q","uppercase","436000","0","3","233ee5c6006aaef5fdac54983d51ed682b6c3c3f985974880085b3606cf35b05","436010.2000000477","642.5","77","1","arctic","","","","",""
"dual-task","null","null","null","","swim","swim","541.0999999046326","","D","null","77","77","1","arctic-dual-task","","D","uppercase","446000","0","3","233ee5c6006aaef5fdac54983d51ed682b6c3c3f985974880085b3606cf35b05","446014.10000014305","541.0999999046326","77","1","arctic","","","","",""
"dual-task","null","null","null","","swim","swim","646.2999999523163","","g","null","88","88","1","arctic-dual-task","","g","lowercase","452000","0","3","233ee5c6006aaef5fdac54983d51ed682b6c3c3f985974880085b3606cf35b05","452006.5","646.2999999523163","88","1","arctic","","","","",""
"dual-task","null","null","null","","swim","swim","659.2000000476837","","N","null","77","77","1","arctic-dual-task","","N","uppercase","460000","0","3","233ee5c6006aaef5fdac54983d51ed682b6c3c3f985974880085b3606cf35b05","460002.2999999523","659.2000000476837","77","1","arctic","","","","",""
"dual-task","null","null","null","","swim","swim","698.9000000953674","","q","null","88","88","1","arctic-dual-task","","q","lowercase","468000","0","3","233ee5c6006aaef5fdac54983d51ed682b6c3c3f985974880085b3606cf35b05","468011.5","698.9000000953674","88","1","arctic","","","","",""
"dual-task","null","null","null","","swim","swim","652.2999999523163","","a","null","88","88","1","arctic-dual-task","","a","lowercase","474000","0","3","233ee5c6006aaef5fdac54983d51ed682b6c3c3f985974880085b3606cf35b05","474008.60000014305","652.2999999523163","88","1","arctic","","","","",""
"dual-task","null","null","null","","swim","swim","519.8999998569489","","h","null","88","88","1","arctic-dual-task","","h","lowercase","484000","0","3","233ee5c6006aaef5fdac54983d51ed682b6c3c3f985974880085b3606cf35b05","484004.7000000477","519.8999998569489","88","1","arctic","","","","",""
"dual-task","null","null","null","","swim","swim","768","","F","null","77","77","1","arctic-dual-task","","F","uppercase","498000","0","3","233ee5c6006aaef5fdac54983d51ed682b6c3c3f985974880085b3606cf35b05","498000.60000014305","768","77","1","arctic","","","","",""
"dual-task","null","null","null","","swim","swim","732.9000000953674","","e","null","88","88","1","arctic-dual-task","","e","lowercase","504000","0","3","233ee5c6006aaef5fdac54983d51ed682b6c3c3f985974880085b3606cf35b05","503999.90000009537","732.9000000953674","88","1","arctic","","","","",""
"dual-task","null","null","null","","swim","swim","808.8999998569489","","E","null","77","77","1","arctic-dual-task","","E","uppercase","512000","0","3","233ee5c6006aaef5fdac54983d51ed682b6c3c3f985974880085b3606cf35b05","512012.7999999523","808.8999998569489","77","1","arctic","","","","",""
"dual-task","null","null","null","","swim","swim","741.6999998092651","","G","null","77","77","1","arctic-dual-task","","G","uppercase","518000","0","3","233ee5c6006aaef5fdac54983d51ed682b6c3c3f985974880085b3606cf35b05","518007.5","741.6999998092651","77","1","arctic","","","","",""
"dual-task","null","null","null","","swim","swim","1181.5","","f","null","88","88","1","arctic-dual-task","","f","lowercase","528000","0","3","233ee5c6006aaef5fdac54983d51ed682b6c3c3f985974880085b3606cf35b05","528007.600000143","1181.5","88","1","arctic","","","","",""
"dual-task","null","null","null","","swim","swim","975.7000000476837","","A","null","77","77","1","arctic-dual-task","","A","uppercase","536000","0","3","233ee5c6006aaef5fdac54983d51ed682b6c3c3f985974880085b3606cf35b05","536008.4000000954","975.7000000476837","77","1","arctic","","","","",""
"dual-task","null","null","null","","swim","swim","499.40000009536743","","A","null","77","77","1","arctic-dual-task","","A","uppercase","548000","0","3","233ee5c6006aaef5fdac54983d51ed682b6c3c3f985974880085b3606cf35b05","548009.7000000477","499.40000009536743","77","1","arctic","","","","",""
"dual-task","null","null","null","","swim","swim","606.4000000953674","","n","null","88","88","1","arctic-dual-task","","n","lowercase","556000","0","3","233ee5c6006aaef5fdac54983d51ed682b6c3c3f985974880085b3606cf35b05","556006.4000000954","606.4000000953674","88","1","arctic","","","","",""
"dual-task","null","null","null","","swim","swim","620.4000000953674","","B","null","77","77","1","arctic-dual-task","","B","uppercase","568000","0","3","233ee5c6006aaef5fdac54983d51ed682b6c3c3f985974880085b3606cf35b05","568000.5","620.4000000953674","77","1","arctic","","","","",""
"dual-task","null","null","null","","swim","swim","746","","d","null","88","88","1","arctic-dual-task","","d","lowercase","576000","0","3","233ee5c6006aaef5fdac54983d51ed682b6c3c3f985974880085b3606cf35b05","576005.4000000954","746","88","1","arctic","","","","",""
"dual-task","null","null","null","","swim","swim","657.2999999523163","","H","null","77","77","1","arctic-dual-task","","H","uppercase","584000","0","3","233ee5c6006aaef5fdac54983d51ed682b6c3c3f985974880085b3606cf35b05","584013.5","657.2999999523163","77","1","arctic","","","","",""
"dual-task","null","null","null","","swim","swim","639.6000001430511","","a","null","88","88","1","arctic-dual-task","","a","lowercase","592000","0","3","233ee5c6006aaef5fdac54983d51ed682b6c3c3f985974880085b3606cf35b05","592006.600000143","639.6000001430511","88","1","arctic","","","","",""
"dual-task","null","null","null","","swim","swim","535.5999999046326","","T","null","77","77","1","arctic-dual-task","","T","uppercase","600000","0","3","233ee5c6006aaef5fdac54983d51ed682b6c3c3f985974880085b3606cf35b05","600014.7000000477","535.5999999046326","77","1","arctic","","","","",""
"dual-task","null","null","null","","swim","swim","565.2999999523163","","h","null","88","88","1","arctic-dual-task","","h","lowercase","614000","0","3","233ee5c6006aaef5fdac54983d51ed682b6c3c3f985974880085b3606cf35b05","614007.2000000477","565.2999999523163","88","1","arctic","","","","",""
"dual-task","null","null","null","","swim","swim","579.9000000953674","","h","null","88","88","1","arctic-dual-task","","h","lowercase","622000","0","3","233ee5c6006aaef5fdac54983d51ed682b6c3c3f985974880085b3606cf35b05","622008.5","579.9000000953674","88","1","arctic","","","","",""
"dual-task","null","null","null","","swim","swim","579.2000000476837","","e","null","88","88","1","arctic-dual-task","","e","lowercase","628000","0","3","233ee5c6006aaef5fdac54983d51ed682b6c3c3f985974880085b3606cf35b05","628002.7000000477","579.2000000476837","88","1","arctic","","","","",""
"dual-task","null","null","null","","swim","swim","697.5","","T","null","77","77","1","arctic-dual-task","","T","uppercase","636000","0","3","233ee5c6006aaef5fdac54983d51ed682b6c3c3f985974880085b3606cf35b05","636011.9000000954","697.5","77","1","arctic","","","","",""
"dual-task","null","null","null","","swim","swim","615.5","","D","null","77","77","1","arctic-dual-task","","D","uppercase","642000","0","3","233ee5c6006aaef5fdac54983d51ed682b6c3c3f985974880085b3606cf35b05","642006.5","615.5","77","1","arctic","","","","",""
"dual-task","null","null","null","","swim","swim","656.2999999523163","","r","null","88","88","1","arctic-dual-task","","r","lowercase","650000","0","3","233ee5c6006aaef5fdac54983d51ed682b6c3c3f985974880085b3606cf35b05","650005.100000143","656.2999999523163","88","1","arctic","","","","",""
"dual-task","null","null","null","","swim","swim","634.7999999523163","","b","null","88","88","1","arctic-dual-task","","b","lowercase","662000","0","3","233ee5c6006aaef5fdac54983d51ed682b6c3c3f985974880085b3606cf35b05","662011.100000143","634.7999999523163","88","1","arctic","","","","",""
"dual-task","null","null","null","","swim","swim","743.1000001430511","","n","null","88","88","1","arctic-dual-task","","n","lowercase","668000","0","3","233ee5c6006aaef5fdac54983d51ed682b6c3c3f985974880085b3606cf35b05","668014.5","743.1000001430511","88","1","arctic","","","","",""
"dual-task","null","null","null","","swim","swim","573.1999998092651","","d","null","88","88","1","arctic-dual-task","","d","lowercase","674000","0","3","233ee5c6006aaef5fdac54983d51ed682b6c3c3f985974880085b3606cf35b05","674007.5","573.1999998092651","88","1","arctic","","","","",""
"dual-task","null","null","null","","swim","swim","668.0999999046326","","T","null","77","77","1","arctic-dual-task","","T","uppercase","682000","0","3","233ee5c6006aaef5fdac54983d51ed682b6c3c3f985974880085b3606cf35b05","682000.5","668.0999999046326","77","1","arctic","","","","",""
"dual-task","null","null","null","","swim","swim","701.0999999046326","","D","null","77","77","1","arctic-dual-task","","D","uppercase","696000","0","3","233ee5c6006aaef5fdac54983d51ed682b6c3c3f985974880085b3606cf35b05","696009.2999999523","701.0999999046326","77","1","arctic","","","","",""
"dual-task","null","null","null","","swim","swim","655.2000000476837","","F","null","77","77","1","arctic-dual-task","","F","uppercase","704000","0","3","233ee5c6006aaef5fdac54983d51ed682b6c3c3f985974880085b3606cf35b05","704005.100000143","655.2000000476837","77","1","arctic","","","","",""
"dual-task","null","null","null","","swim","swim","552.7000000476837","","H","null","77","77","1","arctic-dual-task","","H","uppercase","710000","0","3","233ee5c6006aaef5fdac54983d51ed682b6c3c3f985974880085b3606cf35b05","710004.4000000954","552.7000000476837","77","1","arctic","","","","",""
"dual-task","null","null","null","","swim","swim","580.1000001430511","","E","null","77","77","1","arctic-dual-task","","E","uppercase","722000","0","3","233ee5c6006aaef5fdac54983d51ed682b6c3c3f985974880085b3606cf35b05","722010.5","580.1000001430511","77","1","arctic","","","","",""
"dual-task","null","null","null","","swim","swim","1390.1000001430511","","g","null","88","88","1","arctic-dual-task","","g","lowercase","730000","0","3","233ee5c6006aaef5fdac54983d51ed682b6c3c3f985974880085b3606cf35b05","730007.4000000954","1390.1000001430511","88","1","arctic","","","","",""
"dual-task","null","null","null","","swim","swim","727.9000000953674","","Q","null","77","77","1","arctic-dual-task","","Q","uppercase","740000","0","3","233ee5c6006aaef5fdac54983d51ed682b6c3c3f985974880085b3606cf35b05","740003.2999999523","727.9000000953674","77","1","arctic","","","","",""
"dual-task","null","null","null","","swim","swim","560.6999998092651","","G","null","77","77","1","arctic-dual-task","","G","uppercase","750000","0","3","233ee5c6006aaef5fdac54983d51ed682b6c3c3f985974880085b3606cf35b05","750014.5","560.6999998092651","77","1","arctic","","","","",""
"dual-task","null","null","null","","swim","swim","757.2999999523163","","B","null","77","77","1","arctic-dual-task","","B","uppercase","758000","0","3","233ee5c6006aaef5fdac54983d51ed682b6c3c3f985974880085b3606cf35b05","758008.7999999523","757.2999999523163","77","1","arctic","","","","",""
"dual-task","null","null","null","","swim","swim","677.5999999046326","","b","null","88","88","1","arctic-dual-task","","b","lowercase","772000","0","3","233ee5c6006aaef5fdac54983d51ed682b6c3c3f985974880085b3606cf35b05","772001","677.5999999046326","88","1","arctic","","","","",""
"dual-task","null","null","null","","swim","swim","547","","q","null","88","88","1","arctic-dual-task","","q","lowercase","782000","0","3","233ee5c6006aaef5fdac54983d51ed682b6c3c3f985974880085b3606cf35b05","782009.2000000477","547","88","1","arctic","","","","",""
"audio-keyboard-response","62","2556579","0.0-7.0-2.0-1.0","233ee5c6006aaef5fdac54983d51ed682b6c3c3f985974880085b3606cf35b05","swim","swim","null","","audio/story_arctic.mp3","","null","","","","","","","","","","","","","","","","","","","",""
"html-button-response","63","2605947","0.0-7.0-2.0-2.0","233ee5c6006aaef5fdac54983d51ed682b6c3c3f985974880085b3606cf35b05","swim","swim","49367","","<p>This concludes the story. Thank you for listening.</p><p>You will now answer some questions about the content of the story.</p>","0","","","","","","","","","","","","","","","","","","","","",""
"survey-multi-choice","64","2610841","0.0-7.0-2.0-3.0-0.0","233ee5c6006aaef5fdac54983d51ed682b6c3c3f985974880085b3606cf35b05","swim","swim","4891","","<b>What is the name of the narrator&#39;s neighbour?</b>","","","","1","arctic-comprehension","","","","","","","","","","","","","{""Q0"":""Dave""}","","","",""
"survey-multi-choice","65","2623797","0.0-7.0-2.0-3.0-0.1","233ee5c6006aaef5fdac54983d51ed682b6c3c3f985974880085b3606cf35b05","swim","swim","12704","","<b>Which dog on the narrator&#39;s dog team never followed instructions?</b>","","","","1","arctic-comprehension","","","","","","","","","","","","","{""Q0"":""Robert""}","","","",""
"survey-multi-choice","66","2635012","0.0-7.0-2.0-3.0-0.2","233ee5c6006aaef5fdac54983d51ed682b6c3c3f985974880085b3606cf35b05","swim","swim","10962","","<b>How did the narrator prepare for her expedition?</b>","","","","1","arctic-comprehension","","","","","","","","","","","","","{""Q0"":""Trained in Alaska learning how to dogsled""}","","","",""
"survey-multi-choice","67","2644442","0.0-7.0-2.0-3.0-0.3","233ee5c6006aaef5fdac54983d51ed682b6c3c3f985974880085b3606cf35b05","swim","swim","9177","","<b>What did the narrator do for leisure while in her tent?</b>","","","","1","arctic-comprehension","","","","","","","","","","","","","{""Q0"":""Read""}","","","",""
"survey-multi-choice","68","2655085","0.0-7.0-2.0-3.0-0.4","233ee5c6006aaef5fdac54983d51ed682b6c3c3f985974880085b3606cf35b05","swim","swim","10390","","<b>What was the objective of the narrator&#39;s expedition?</b>","","","","1","arctic-comprehension","","","","","","","","","","","","","{""Q0"":""Dogsled across Arctic America""}","","","",""
"survey-multi-choice","69","2664361","0.0-7.0-2.0-3.0-0.5","233ee5c6006aaef5fdac54983d51ed682b6c3c3f985974880085b3606cf35b05","swim","swim","9022","","<b>How many sponsorships did the narrator receive to support her expedition?</b>","","","","1","arctic-comprehension","","","","","","","","","","","","","{""Q0"":""None""}","","","",""
"survey-multi-choice","70","2676375","0.0-7.0-2.0-3.0-0.6","233ee5c6006aaef5fdac54983d51ed682b6c3c3f985974880085b3606cf35b05","swim","swim","11756","","<b>How did the dogs respond when they saw the bears?</b>","","","","1","arctic-comprehension","","","","","","","","","","","","","{""Q0"":""Approached them""}","","","",""
"survey-multi-choice","71","2690888","0.0-7.0-2.0-3.0-0.7","233ee5c6006aaef5fdac54983d51ed682b6c3c3f985974880085b3606cf35b05","swim","swim","14259","","<b>How did the narrator&#39;s neighbour respond when she told him about her expedition?</b>","","","","1","arctic-comprehension","","","","","","","","","","","","","{""Q0"":""He said she was going to fail.""}","","","",""
"survey-multi-choice","72","2705263","0.0-7.0-2.0-3.0-0.8","233ee5c6006aaef5fdac54983d51ed682b6c3c3f985974880085b3606cf35b05","swim","swim","14119","","<b>What were the weather conditions in the Arctic like the winter of the narrator&#39;s expedition?</b>","","","","1","arctic-comprehension","","","","","","","","","","","","","{""Q0"":""There were more storms than any other winter in recorded history.""}","","","",""
"survey-multi-choice","73","2718634","0.0-7.0-2.0-3.0-0.9","233ee5c6006aaef5fdac54983d51ed682b6c3c3f985974880085b3606cf35b05","swim","swim","13118","","<b>How did the narrator&#39;s encounter with the polar bears end?</b>","","","","1","arctic-comprehension","","","","","","","","","","","","","{""Q0"":""The bears walked back to their den.""}","","","",""
"html-button-response","74","2722731","0.0-7.0-2.0-4.0","233ee5c6006aaef5fdac54983d51ed682b6c3c3f985974880085b3606cf35b05","swim","swim","3845","","<p>Thank you for your responses.</p><p>You will now answer some questions about your impressions of the story.</p>","0","","","","","","","","","","","","","","","","","","","","",""
"html-button-response","75","2726555","0.0-7.0-2.0-5.0-0.0","233ee5c6006aaef5fdac54983d51ed682b6c3c3f985974880085b3606cf35b05","swim","swim","3824","","A2","5","","","","arctic-engagement","","","","","","","","","","","","","","6","absorption","",""
"html-button-response","76","2731260","0.0-7.0-2.0-5.0-0.1","233ee5c6006aaef5fdac54983d51ed682b6c3c3f985974880085b3606cf35b05","swim","swim","4453","","EE3","6","","","","arctic-engagement","","","","","","","","","","","","","","7","emo-engage","",""
"html-button-response","77","2735178","0.0-7.0-2.0-5.0-0.2","233ee5c6006aaef5fdac54983d51ed682b6c3c3f985974880085b3606cf35b05","swim","swim","3666","","MS3","5","","","","arctic-engagement","","","","","","","","","","","","","","6","mental-sim","",""
"html-button-response","78","2740190","0.0-7.0-2.0-5.0-0.3","233ee5c6006aaef5fdac54983d51ed682b6c3c3f985974880085b3606cf35b05","swim","swim","4759","","EE1","5","","","","arctic-engagement","","","","","","","","","","","","","","6","emo-engage","",""
"html-button-response","79","2745841","0.0-7.0-2.0-5.0-0.4","233ee5c6006aaef5fdac54983d51ed682b6c3c3f985974880085b3606cf35b05","swim","swim","5398","","A1","6","","","","arctic-engagement","","","","","","","","","","","","","","7","absorption","",""
"html-button-response","80","2750891","0.0-7.0-2.0-5.0-0.5","233ee5c6006aaef5fdac54983d51ed682b6c3c3f985974880085b3606cf35b05","swim","swim","4798","","MS2","5","","","","arctic-engagement","","","","","","","","","","","","","","6","mental-sim","",""
"html-button-response","81","2754868","0.0-7.0-2.0-5.0-0.6","233ee5c6006aaef5fdac54983d51ed682b6c3c3f985974880085b3606cf35b05","swim","swim","3726","","A4","5","","","","arctic-engagement","","","","","","","","","","","","","","6","absorption","",""
"html-button-response","82","2758745","0.0-7.0-2.0-5.0-0.7","233ee5c6006aaef5fdac54983d51ed682b6c3c3f985974880085b3606cf35b05","swim","swim","3624","","MS1","6","","","","arctic-engagement","","","","","","","","","","","","","","7","mental-sim","",""
"html-button-response","83","2763017","0.0-7.0-2.0-5.0-0.8","233ee5c6006aaef5fdac54983d51ed682b6c3c3f985974880085b3606cf35b05","swim","swim","4021","","A5","5","","","","arctic-engagement","","","","","","","","","","","","","","6","absorption","",""
"html-button-response","84","2767199","0.0-7.0-2.0-5.0-0.9","233ee5c6006aaef5fdac54983d51ed682b6c3c3f985974880085b3606cf35b05","swim","swim","3928","","E1","5","","","","arctic-engagement","","","","","","","","","","","","","","6","enjoyment","",""
"html-button-response","85","2770765","0.0-7.0-2.0-5.0-0.10","233ee5c6006aaef5fdac54983d51ed682b6c3c3f985974880085b3606cf35b05","swim","swim","3313","","E7","5","","","","arctic-engagement","","","","","","","","","","","","","","6","enjoyment","",""
"html-button-response","86","2773714","0.0-7.0-2.0-5.0-0.11","233ee5c6006aaef5fdac54983d51ed682b6c3c3f985974880085b3606cf35b05","swim","swim","2697","","A3","5","","","","arctic-engagement","","","","","","","","","","","","","","6","absorption","",""
"html-button-response","87","2780498","0.0-7.0-2.0-5.0-0.12","233ee5c6006aaef5fdac54983d51ed682b6c3c3f985974880085b3606cf35b05","swim","swim","6531","","E10","6","","","","arctic-engagement","","","","","","","","","","","","","","7","enjoyment","",""
"html-button-response","88","2784609","0.0-7.0-2.0-5.0-0.13","233ee5c6006aaef5fdac54983d51ed682b6c3c3f985974880085b3606cf35b05","swim","swim","3859","","EE5","5","","","","arctic-engagement","","","","","","","","","","","","","","6","emo-engage","",""
"html-button-response","89","2787743","0.0-7.0-2.0-5.0-0.14","233ee5c6006aaef5fdac54983d51ed682b6c3c3f985974880085b3606cf35b05","swim","swim","2882","","E6","6","","","","arctic-engagement","","","","","","","","","","","","","","7","enjoyment","",""
"html-button-response","90","2790187","0.0-7.0-2.0-5.0-0.15","233ee5c6006aaef5fdac54983d51ed682b6c3c3f985974880085b3606cf35b05","swim","swim","2191","","EE2","6","","","","arctic-engagement","","","","","","","","","","","","","","7","emo-engage","",""
"html-button-response","91","2792696","0.0-7.0-2.0-5.0-0.16","233ee5c6006aaef5fdac54983d51ed682b6c3c3f985974880085b3606cf35b05","swim","swim","2257","","EE4","5","","","","arctic-engagement","","","","","","","","","","","","","","6","emo-engage","",""
"html-button-response","92","2795655","0.0-7.0-2.0-5.0-0.17","233ee5c6006aaef5fdac54983d51ed682b6c3c3f985974880085b3606cf35b05","swim","swim","2706","","E8","6","","","","arctic-engagement","","","","","","","","","","","","","","7","enjoyment","",""
"html-button-response","93","2800664","0.0-8.0","233ee5c6006aaef5fdac54983d51ed682b6c3c3f985974880085b3606cf35b05","swim","swim","4757","","<p>Thank you for your responses.</p><p>You will now answer some demographic, hearing, and general health questions.</p>","0","","","","","","","","","","","","","","","","","","","","",""
"survey-multi-choice","94","2807992","0.0-9.0-0.0","233ee5c6006aaef5fdac54983d51ed682b6c3c3f985974880085b3606cf35b05","swim","swim","7326","","","","","","","survey","","","","","","","","","","","","","{""Q0"":""Chrome""}","","","browser",""
"survey-text","95","2812199","0.0-9.0-1.0","233ee5c6006aaef5fdac54983d51ed682b6c3c3f985974880085b3606cf35b05","swim","swim","3949.9000000953674","","","","","","","survey","","","","","","","","","","","","","{""AGE"":""39""}","","","age","39"
"survey-multi-choice","96","2816532","0.0-9.0-2.0","233ee5c6006aaef5fdac54983d51ed682b6c3c3f985974880085b3606cf35b05","swim","swim","4080","","","","","","","survey","","","","","","","","","","","","","{""Q0"":""Male""}","","","gender","Male"
"survey-multi-choice","97","2822117","0.0-9.0-4.0","233ee5c6006aaef5fdac54983d51ed682b6c3c3f985974880085b3606cf35b05","swim","swim","5330","","","","","","","survey","","","","","","","","","","","","","{""Q0"":""Right""}","","","handedness","Right"
"survey-multi-choice","98","2826068","0.0-9.0-5.0","233ee5c6006aaef5fdac54983d51ed682b6c3c3f985974880085b3606cf35b05","swim","swim","3691","","","","","","","survey","","","","","","","","","","","","","{""Q0"":""High school""}","","","education","High school"
"survey-text","99","2847677","0.0-10.0-0.0","233ee5c6006aaef5fdac54983d51ed682b6c3c3f985974880085b3606cf35b05","swim","swim","21351.5","","","","","","","survey","","","","","","","","","","","","","{""L1"":""English""}","","","first-language","English"
"survey-text","100","2858594","0.0-10.0-1.0","233ee5c6006aaef5fdac54983d51ed682b6c3c3f985974880085b3606cf35b05","swim","swim","10637.900000095367","","","","","","","survey","","","","","","","","","","","","","{""L2name"":"""",""L2fluency"":"""",""L3name"":"""",""L3fluency"":"""",""L4name"":"""",""L4fluency"":""""}","","","additional-languages","{""L2name"":"""",""L2fluency"":"""",""L3name"":"""",""L3fluency"":"""",""L4name"":"""",""L4fluency"":""""}"
"survey-multi-choice","101","2862854","0.0-10.0-2.0","233ee5c6006aaef5fdac54983d51ed682b6c3c3f985974880085b3606cf35b05","swim","swim","4005","","","","","","","survey","","","","","","","","","","","","","{""Q0"":""No""}","","","hearing-aid","No"
"survey-multi-choice","102","2867902","0.0-10.0-3.0","233ee5c6006aaef5fdac54983d51ed682b6c3c3f985974880085b3606cf35b05","swim","swim","4794","","","","","","","survey","","","","","","","","","","","","","{""Q0"":""Never""}","","","ringing-ears","Never"
"survey-multi-choice","103","2872677","0.0-10.0-5.0","233ee5c6006aaef5fdac54983d51ed682b6c3c3f985974880085b3606cf35b05","swim","swim","4524","","","","","","","survey","","","","","","","","","","","","","{""Q0"":""No""}","","","neuro-disease","No"
"survey-multi-choice","104","2879235","0.0-10.0-7.0","233ee5c6006aaef5fdac54983d51ed682b6c3c3f985974880085b3606cf35b05","swim","swim","6305","","","","","","","survey","","","","","","","","","","","","","{""Q0"":""No""}","","","take-meds","No"
"survey-text","105","2887767","0.0-10.0-9.0","233ee5c6006aaef5fdac54983d51ed682b6c3c3f985974880085b3606cf35b05","swim","swim","8276.400000095367","","","","","","","survey","","","","","","","","","","","","","{""HC"":""""}","","","health-concerns",""
"html-button-response","106","2892480","0.0-11.0-0.0","233ee5c6006aaef5fdac54983d51ed682b6c3c3f985974880085b3606cf35b05","swim","swim","4451","","<p>How would you describe your musical skills/experiences?</p>","4","","","","survey","","","","","","","","","","","","","","","","music-skill","5"
"survey-multi-choice","107","2897141","0.0-11.0-1.0","233ee5c6006aaef5fdac54983d51ed682b6c3c3f985974880085b3606cf35b05","swim","swim","4408","","","","","","","survey","","","","","","","","","","","","","{""Q0"":""No""}","","","music-instrument","No"
"html-button-response","108","2900831","0.0-12.0-0.0","233ee5c6006aaef5fdac54983d51ed682b6c3c3f985974880085b3606cf35b05","swim","swim","3439","","<p>How would you describe your general hearing abilities?</p>","5","","","","survey","","","","","","","","","","","","","","","","ssq-01","6"
"html-button-response","109","2910218","0.0-12.0-1.0","233ee5c6006aaef5fdac54983d51ed682b6c3c3f985974880085b3606cf35b05","swim","swim","9135","","<p>When you talk with someone at a place that strongly reverberates/echoes (e.g., in a church or train station),</br>can you understand what the person says?</p>","10","","","","survey","","","","","","","","","","","","","","","","ssq-02","10"
"html-button-response","110","2916032","0.0-12.0-2.0","233ee5c6006aaef5fdac54983d51ed682b6c3c3f985974880085b3606cf35b05","swim","swim","5561","","<p>When you are with a group (~5 people) in a lively restaurant, can you follow the group's conversation?</p>","10","","","","survey","","","","","","","","","","","","","","","","ssq-03","10"
"html-button-response","111","2922414","0.0-12.0-3.0","233ee5c6006aaef5fdac54983d51ed682b6c3c3f985974880085b3606cf35b05","swim","swim","6129","","<p>Based on the sound of a bus or truck, can you tell whether it is moving towards or away from you?</p>","9","","","","survey","","","","","","","","","","","","","","","","ssq-04","9"
"html-button-response","112","2928751","0.0-12.0-4.0","233ee5c6006aaef5fdac54983d51ed682b6c3c3f985974880085b3606cf35b05","swim","swim","6084","","<p>When you are in an unknown environment, can you tell from which direction a brief sound originates?</p>","9","","","","survey","","","","","","","","","","","","","","","","ssq-05","9"
"html-button-response","113","2935531","0.0-12.0-5.0","233ee5c6006aaef5fdac54983d51ed682b6c3c3f985974880085b3606cf35b05","swim","swim","6527","","<p>Are you able to ignore distracting sounds when you concentrate on a specific aspect of your acoustic surrounding?</p>","10","","","","survey","","","","","","","","","","","","","","","","ssq-06","10"
"fullscreen","114","2936783","0.0-13.0","233ee5c6006aaef5fdac54983d51ed682b6c3c3f985974880085b3606cf35b05","swim","swim","","","","","","","","","true","","","","","","","","","","","","","","","",""
