"trial_type","trial_index","time_elapsed","internal_node_id","ParticipantID","firstStory","scramStory","rt","url","stimulus","button_pressed","key_press","correctRESP","correct","designation","success","letterStim","letterType","ONSET","TIMEOUT","CONDITION","Participant","ONSET_ACTUAL","RT","RESP","ACC","STORY","responses","response","type","surveyQuestion","QRESP"
"pavlovia","0","4","0.0-0.0","e96a4049306037f2184d7912cf53cd7036595698a6b4f27d9187707f23dc523f","arctic","swim","","","","","","","","","","","","","","","","","","","","","","","","",""
"external-html","1","3084","0.0-1.0","e96a4049306037f2184d7912cf53cd7036595698a6b4f27d9187707f23dc523f","arctic","swim","2955","consent/consent_updated.html","","","","","","","","","","","","","","","","","","","","","","",""
"html-button-response","2","5837","0.0-2.0-0.0","e96a4049306037f2184d7912cf53cd7036595698a6b4f27d9187707f23dc523f","arctic","swim","2753","","<p>Before we begin the main task, you will complete a short volume calibration and headphone check.</p><p>Please make sure you are in a quiet listening environment, that you are wearing headphones, and that your computer's volume is turned on.<p></p>","0","","","","","","","","","","","","","","","","","","","","",""
"html-button-response","3","8272","0.0-2.0-1.0","e96a4049306037f2184d7912cf53cd7036595698a6b4f27d9187707f23dc523f","arctic","swim","2174","","<p>The volume calibration will be first.</p><p>You will hear a thirty-second noise. Please adjust your computer's volume so that this noise is being presented at a comfortable level.<p></p>","0","","","","","","","","","","","","","","","","","","","","",""
"audio-button-response","4","11649","0.0-2.0-2.0","e96a4049306037f2184d7912cf53cd7036595698a6b4f27d9187707f23dc523f","arctic","swim","3117","","audio/volumetest.mp3","0","","","","","","","","","","","","","","","","","","","","",""
"html-keyboard-response","5","35286","0.0-3.0-0.0","e96a4049306037f2184d7912cf53cd7036595698a6b4f27d9187707f23dc523f","arctic","swim","23636","","<p>You will now complete a short headphone check.</p><p>On each trial, you will hear three tones. One of these tones will be quieter than the others. Your task is to identify whether the quiet tone occurred first, second, or third.</p><p>There are six trials in total.<p></p><p></p>(Press SPACEBAR to begin)","","32","","","","","","","","","","","","","","","","","","","",""
"html-keyboard-response","6","36042","0.0-3.0-1.0-0.0","e96a4049306037f2184d7912cf53cd7036595698a6b4f27d9187707f23dc523f","arctic","swim","null","","<div style=""font-size:60px;"">+</div>","","null","","","","","","","","","","","","","","","","","","","",""
"audio-button-response","7","40465","0.0-3.0-1.0-1.0","e96a4049306037f2184d7912cf53cd7036595698a6b4f27d9187707f23dc523f","arctic","swim","4423","","audio/t2_2.mp3","1","","1","1","headphone-test","","","","","","","","","","","","","","","","",""
"html-keyboard-response","8","40979","0.0-3.0-1.0-2.0","e96a4049306037f2184d7912cf53cd7036595698a6b4f27d9187707f23dc523f","arctic","swim","null","","<p>Correct</p>","","null","","","","","","","","","","","","","","","","","","","",""
"html-keyboard-response","9","41494","0.0-3.0-1.0-0.1","e96a4049306037f2184d7912cf53cd7036595698a6b4f27d9187707f23dc523f","arctic","swim","null","","<div style=""font-size:60px;"">+</div>","","null","","","","","","","","","","","","","","","","","","","",""
"audio-button-response","10","45548","0.0-3.0-1.0-1.1","e96a4049306037f2184d7912cf53cd7036595698a6b4f27d9187707f23dc523f","arctic","swim","4054","","audio/t3_1.mp3","2","","2","1","headphone-test","","","","","","","","","","","","","","","","",""
"html-keyboard-response","11","46064","0.0-3.0-1.0-2.1","e96a4049306037f2184d7912cf53cd7036595698a6b4f27d9187707f23dc523f","arctic","swim","null","","<p>Correct</p>","","null","","","","","","","","","","","","","","","","","","","",""
"html-keyboard-response","12","46577","0.0-3.0-1.0-0.2","e96a4049306037f2184d7912cf53cd7036595698a6b4f27d9187707f23dc523f","arctic","swim","null","","<div style=""font-size:60px;"">+</div>","","null","","","","","","","","","","","","","","","","","","","",""
"audio-button-response","13","50341","0.0-3.0-1.0-1.2","e96a4049306037f2184d7912cf53cd7036595698a6b4f27d9187707f23dc523f","arctic","swim","3763","","audio/t1_1.mp3","0","","0","1","headphone-test","","","","","","","","","","","","","","","","",""
"html-keyboard-response","14","50843","0.0-3.0-1.0-2.2","e96a4049306037f2184d7912cf53cd7036595698a6b4f27d9187707f23dc523f","arctic","swim","null","","<p>Correct</p>","","null","","","","","","","","","","","","","","","","","","","",""
"html-keyboard-response","15","51352","0.0-3.0-1.0-0.3","e96a4049306037f2184d7912cf53cd7036595698a6b4f27d9187707f23dc523f","arctic","swim","null","","<div style=""font-size:60px;"">+</div>","","null","","","","","","","","","","","","","","","","","","","",""
"audio-button-response","16","54882","0.0-3.0-1.0-1.3","e96a4049306037f2184d7912cf53cd7036595698a6b4f27d9187707f23dc523f","arctic","swim","3530","","audio/t1_2.mp3","0","","0","1","headphone-test","","","","","","","","","","","","","","","","",""
"html-keyboard-response","17","55391","0.0-3.0-1.0-2.3","e96a4049306037f2184d7912cf53cd7036595698a6b4f27d9187707f23dc523f","arctic","swim","null","","<p>Correct</p>","","null","","","","","","","","","","","","","","","","","","","",""
"html-keyboard-response","18","55912","0.0-3.0-1.0-0.4","e96a4049306037f2184d7912cf53cd7036595698a6b4f27d9187707f23dc523f","arctic","swim","null","","<div style=""font-size:60px;"">+</div>","","null","","","","","","","","","","","","","","","","","","","",""
"audio-button-response","19","59492","0.0-3.0-1.0-1.4","e96a4049306037f2184d7912cf53cd7036595698a6b4f27d9187707f23dc523f","arctic","swim","3579","","audio/t3_2.mp3","2","","2","1","headphone-test","","","","","","","","","","","","","","","","",""
"html-keyboard-response","20","59994","0.0-3.0-1.0-2.4","e96a4049306037f2184d7912cf53cd7036595698a6b4f27d9187707f23dc523f","arctic","swim","null","","<p>Correct</p>","","null","","","","","","","","","","","","","","","","","","","",""
"html-keyboard-response","21","60494","0.0-3.0-1.0-0.5","e96a4049306037f2184d7912cf53cd7036595698a6b4f27d9187707f23dc523f","arctic","swim","null","","<div style=""font-size:60px;"">+</div>","","null","","","","","","","","","","","","","","","","","","","",""
"audio-button-response","22","64063","0.0-3.0-1.0-1.5","e96a4049306037f2184d7912cf53cd7036595698a6b4f27d9187707f23dc523f","arctic","swim","3568","","audio/t2_1.mp3","1","","1","1","headphone-test","","","","","","","","","","","","","","","","",""
"html-keyboard-response","23","64565","0.0-3.0-1.0-2.5","e96a4049306037f2184d7912cf53cd7036595698a6b4f27d9187707f23dc523f","arctic","swim","null","","<p>Correct</p>","","null","","","","","","","","","","","","","","","","","","","",""
"fullscreen","24","68763","0.0-4.0","e96a4049306037f2184d7912cf53cd7036595698a6b4f27d9187707f23dc523f","arctic","swim","","","","","","","","","true","","","","","","","","","","","","","","","",""
"html-button-response","25","80755","0.0-5.0-0.0","e96a4049306037f2184d7912cf53cd7036595698a6b4f27d9187707f23dc523f","arctic","swim","11991","","<p>There are two blocks to this experiment.</p><p>In each block, you will hear a ~13.5 minute story. One of the stories will be scrambled. Please listen carefully to both stories and understand them as best you can.</p><p>After each story, you will be asked some questions to assess your comprehension.</p>","0","","","","","","","","","","","","","","","","","","","","",""
"html-button-response","26","94647","0.0-5.0-1.0","e96a4049306037f2184d7912cf53cd7036595698a6b4f27d9187707f23dc523f","arctic","swim","13892","","<p>During each story, there will be an additional task.</p><p>A letter will occasionally appear on the screen.</br>Your job is to - as quickly as you can - decide whether the letter is lowercase or uppercase and press one of two keys on the keyboard:</p><p>If the letter is <b>lowercase</b>, press key &lt;<b>x</b>&gt;.</p><p>If the letter is <b>uppercase</b>, press key &lt;<b>m</b>&gt;.</p>","0","","","","","","","","","","","","","","","","","","","","",""
"html-keyboard-response","27","101236","0.0-5.0-2.0","e96a4049306037f2184d7912cf53cd7036595698a6b4f27d9187707f23dc523f","arctic","swim","6589","","<p>Because we want your responses to be as quick as possible, please keep your index fingers over the keys while listening.</p><p>Each block lasts about 20 minutes.</p><p><b>Press &lt;x&gt; or &lt;m&gt; to start the first block!</b></p>","","88","","","","","","","","","","","","","","","","","","","",""
"html-keyboard-response","28","101738","0.0-6.0-0.0-0.0","e96a4049306037f2184d7912cf53cd7036595698a6b4f27d9187707f23dc523f","arctic","swim","null","","<div style=""font-size:60px;"" tabindex=""0"">+</div>","","null","","","","","","","","","","","","","","","","","","","",""
"dual-task","null","null","null","","arctic","swim","564.8999999761581","","b","null","77","88","0","arctic-dual-task","","b","lowercase","12000","0","6","e96a4049306037f2184d7912cf53cd7036595698a6b4f27d9187707f23dc523f","12003.900000035763","564.8999999761581","77","0","arctic","","","","",""
"dual-task","null","null","null","","arctic","swim","608.4000000357628","","g","null","88","88","1","arctic-dual-task","","g","lowercase","24000","0","6","e96a4049306037f2184d7912cf53cd7036595698a6b4f27d9187707f23dc523f","24000.200000047684","608.4000000357628","88","1","arctic","","","","",""
"dual-task","null","null","null","","arctic","swim","678.5","","Q","null","77","77","1","arctic-dual-task","","Q","uppercase","36000","0","6","e96a4049306037f2184d7912cf53cd7036595698a6b4f27d9187707f23dc523f","36002.200000047684","678.5","77","1","arctic","","","","",""
"dual-task","null","null","null","","arctic","swim","624.6999999880791","","t","null","88","88","1","arctic-dual-task","","t","lowercase","46000","0","6","e96a4049306037f2184d7912cf53cd7036595698a6b4f27d9187707f23dc523f","45999.90000003576","624.6999999880791","88","1","arctic","","","","",""
"dual-task","null","null","null","","arctic","swim","585.3000000119209","","f","null","88","88","1","arctic-dual-task","","f","lowercase","60000","0","6","e96a4049306037f2184d7912cf53cd7036595698a6b4f27d9187707f23dc523f","60007.30000001192","585.3000000119209","88","1","arctic","","","","",""
"dual-task","null","null","null","","arctic","swim","650.3000000119209","","q","null","88","88","1","arctic-dual-task","","q","lowercase","70000","0","6","e96a4049306037f2184d7912cf53cd7036595698a6b4f27d9187707f23dc523f","70013.80000001192","650.3000000119209","88","1","arctic","","","","",""
"dual-task","null","null","null","","arctic","swim","673.5","","r","null","88","88","1","arctic-dual-task","","r","lowercase","82000","0","6","e96a4049306037f2184d7912cf53cd7036595698a6b4f27d9187707f23dc523f","82014.40000003576","673.5","88","1","arctic","","","","",""
"dual-task","null","null","null","","arctic","swim","666.9000000357628","","r","null","88","88","1","arctic-dual-task","","r","lowercase","92000","0","6","e96a4049306037f2184d7912cf53cd7036595698a6b4f27d9187707f23dc523f","92013.80000001192","666.9000000357628","88","1","arctic","","","","",""
"dual-task","null","null","null","","arctic","swim","586.6999999880791","","R","null","77","77","1","arctic-dual-task","","R","uppercase","104000","0","6","e96a4049306037f2184d7912cf53cd7036595698a6b4f27d9187707f23dc523f","104014.20000004768","586.6999999880791","77","1","arctic","","","","",""
"dual-task","null","null","null","","arctic","swim","675.8000000119209","","Q","null","77","77","1","arctic-dual-task","","Q","uppercase","112000","0","6","e96a4049306037f2184d7912cf53cd7036595698a6b4f27d9187707f23dc523f","112014.60000002384","675.8000000119209","77","1","arctic","","","","",""
"dual-task","null","null","null","","arctic","swim","675.5","","D","null","77","77","1","arctic-dual-task","","D","uppercase","120000","0","6","e96a4049306037f2184d7912cf53cd7036595698a6b4f27d9187707f23dc523f","120005.10000002384","675.5","77","1","arctic","","","","",""
"dual-task","null","null","null","","arctic","swim","680.5999999642372","","e","null","88","88","1","arctic-dual-task","","e","lowercase","130000","0","6","e96a4049306037f2184d7912cf53cd7036595698a6b4f27d9187707f23dc523f","130007.40000003576","680.5999999642372","88","1","arctic","","","","",""
"dual-task","null","null","null","","arctic","swim","850.8999999761581","","f","null","88","88","1","arctic-dual-task","","f","lowercase","136000","0","6","e96a4049306037f2184d7912cf53cd7036595698a6b4f27d9187707f23dc523f","136005.70000004768","850.8999999761581","88","1","arctic","","","","",""
"dual-task","null","null","null","","arctic","swim","723.6000000238419","","q","null","88","88","1","arctic-dual-task","","q","lowercase","144000","0","6","e96a4049306037f2184d7912cf53cd7036595698a6b4f27d9187707f23dc523f","144013","723.6000000238419","88","1","arctic","","","","",""
"dual-task","null","null","null","","arctic","swim","597.9000000357628","","T","null","77","77","1","arctic-dual-task","","T","uppercase","158000","0","6","e96a4049306037f2184d7912cf53cd7036595698a6b4f27d9187707f23dc523f","158002.80000001192","597.9000000357628","77","1","arctic","","","","",""
"dual-task","null","null","null","","arctic","swim","630.8000000119209","","a","null","88","88","1","arctic-dual-task","","a","lowercase","168000","0","6","e96a4049306037f2184d7912cf53cd7036595698a6b4f27d9187707f23dc523f","168001.10000002384","630.8000000119209","88","1","arctic","","","","",""
"dual-task","null","null","null","","arctic","swim","585.2000000476837","","t","null","88","88","1","arctic-dual-task","","t","lowercase","178000","0","6","e96a4049306037f2184d7912cf53cd7036595698a6b4f27d9187707f23dc523f","178008","585.2000000476837","88","1","arctic","","","","",""
"dual-task","null","null","null","","arctic","swim","542.8999999761581","","T","null","77","77","1","arctic-dual-task","","T","uppercase","188000","0","6","e96a4049306037f2184d7912cf53cd7036595698a6b4f27d9187707f23dc523f","188001.70000004768","542.8999999761581","77","1","arctic","","","","",""
"dual-task","null","null","null","","arctic","swim","747.2000000476837","","g","null","88","88","1","arctic-dual-task","","g","lowercase","202000","0","6","e96a4049306037f2184d7912cf53cd7036595698a6b4f27d9187707f23dc523f","202005.90000003576","747.2000000476837","88","1","arctic","","","","",""
"dual-task","null","null","null","","arctic","swim","757","","H","null","77","77","1","arctic-dual-task","","H","uppercase","214000","0","6","e96a4049306037f2184d7912cf53cd7036595698a6b4f27d9187707f23dc523f","214002.70000004768","757","77","1","arctic","","","","",""
"dual-task","null","null","null","","arctic","swim","712","","d","null","88","88","1","arctic-dual-task","","d","lowercase","220000","0","6","e96a4049306037f2184d7912cf53cd7036595698a6b4f27d9187707f23dc523f","220000.70000004768","712","88","1","arctic","","","","",""
"dual-task","null","null","null","","arctic","swim","576.5","","E","null","77","77","1","arctic-dual-task","","E","uppercase","232000","0","6","e96a4049306037f2184d7912cf53cd7036595698a6b4f27d9187707f23dc523f","232008","576.5","77","1","arctic","","","","",""
"dual-task","null","null","null","","arctic","swim","898.7000000476837","","b","null","88","88","1","arctic-dual-task","","b","lowercase","240000","0","6","e96a4049306037f2184d7912cf53cd7036595698a6b4f27d9187707f23dc523f","240013.5","898.7000000476837","88","1","arctic","","","","",""
"dual-task","null","null","null","","arctic","swim","749","","n","null","88","88","1","arctic-dual-task","","n","lowercase","248000","0","6","e96a4049306037f2184d7912cf53cd7036595698a6b4f27d9187707f23dc523f","248011","749","88","1","arctic","","","","",""
"dual-task","null","null","null","","arctic","swim","671.5","","d","null","88","88","1","arctic-dual-task","","d","lowercase","258000","0","6","e96a4049306037f2184d7912cf53cd7036595698a6b4f27d9187707f23dc523f","258001","671.5","88","1","arctic","","","","",""
"dual-task","null","null","null","","arctic","swim","636.1000000238419","","t","null","88","88","1","arctic-dual-task","","t","lowercase","270000","0","6","e96a4049306037f2184d7912cf53cd7036595698a6b4f27d9187707f23dc523f","270004.60000002384","636.1000000238419","88","1","arctic","","","","",""
"dual-task","null","null","null","","arctic","swim","731.1000000238419","","r","null","88","88","1","arctic-dual-task","","r","lowercase","282000","0","6","e96a4049306037f2184d7912cf53cd7036595698a6b4f27d9187707f23dc523f","282013.60000002384","731.1000000238419","88","1","arctic","","","","",""
"dual-task","null","null","null","","arctic","swim","802.1000000238419","","N","null","77","77","1","arctic-dual-task","","N","uppercase","292000","0","6","e96a4049306037f2184d7912cf53cd7036595698a6b4f27d9187707f23dc523f","292014","802.1000000238419","77","1","arctic","","","","",""
"dual-task","null","null","null","","arctic","swim","1028.9000000357628","","B","null","77","77","1","arctic-dual-task","","B","uppercase","300000","0","6","e96a4049306037f2184d7912cf53cd7036595698a6b4f27d9187707f23dc523f","300011.90000003576","1028.9000000357628","77","1","arctic","","","","",""
"dual-task","null","null","null","","arctic","swim","683.8000000119209","","e","null","88","88","1","arctic-dual-task","","e","lowercase","306000","0","6","e96a4049306037f2184d7912cf53cd7036595698a6b4f27d9187707f23dc523f","306012.8000000119","683.8000000119209","88","1","arctic","","","","",""
"dual-task","null","null","null","","arctic","swim","668.1000000238419","","a","null","88","88","1","arctic-dual-task","","a","lowercase","312000","0","6","e96a4049306037f2184d7912cf53cd7036595698a6b4f27d9187707f23dc523f","312012.60000002384","668.1000000238419","88","1","arctic","","","","",""
"dual-task","null","null","null","","arctic","swim","699.6999999880791","","T","null","77","77","1","arctic-dual-task","","T","uppercase","318000","0","6","e96a4049306037f2184d7912cf53cd7036595698a6b4f27d9187707f23dc523f","318014.3000000119","699.6999999880791","77","1","arctic","","","","",""
"dual-task","null","null","null","","arctic","swim","670","","G","null","77","77","1","arctic-dual-task","","G","uppercase","332000","0","6","e96a4049306037f2184d7912cf53cd7036595698a6b4f27d9187707f23dc523f","332002.5","670","77","1","arctic","","","","",""
"dual-task","null","null","null","","arctic","swim","680.5","","N","null","77","77","1","arctic-dual-task","","N","uppercase","344000","0","6","e96a4049306037f2184d7912cf53cd7036595698a6b4f27d9187707f23dc523f","344007.60000002384","680.5","77","1","arctic","","","","",""
"dual-task","null","null","null","","arctic","swim","1125.9000000357628","","n","null","88","88","1","arctic-dual-task","","n","lowercase","350000","0","6","e96a4049306037f2184d7912cf53cd7036595698a6b4f27d9187707f23dc523f","350010.7000000477","1125.9000000357628","88","1","arctic","","","","",""
"dual-task","null","null","null","","arctic","swim","794","","e","null","88","88","1","arctic-dual-task","","e","lowercase","356000","0","6","e96a4049306037f2184d7912cf53cd7036595698a6b4f27d9187707f23dc523f","356006.60000002384","794","88","1","arctic","","","","",""
"dual-task","null","null","null","","arctic","swim","765.5999999642372","","d","null","88","88","1","arctic-dual-task","","d","lowercase","368000","0","6","e96a4049306037f2184d7912cf53cd7036595698a6b4f27d9187707f23dc523f","368003.8000000119","765.5999999642372","88","1","arctic","","","","",""
"dual-task","null","null","null","","arctic","swim","875.8000000119209","","h","null","88","88","1","arctic-dual-task","","h","lowercase","378000","0","6","e96a4049306037f2184d7912cf53cd7036595698a6b4f27d9187707f23dc523f","378013.8000000119","875.8000000119209","88","1","arctic","","","","",""
"dual-task","null","null","null","","arctic","swim","561.1000000238419","","D","null","77","77","1","arctic-dual-task","","D","uppercase","390000","0","6","e96a4049306037f2184d7912cf53cd7036595698a6b4f27d9187707f23dc523f","390002.3000000119","561.1000000238419","77","1","arctic","","","","",""
"dual-task","null","null","null","","arctic","swim","682.8000000119209","","R","null","77","77","1","arctic-dual-task","","R","uppercase","402000","0","6","e96a4049306037f2184d7912cf53cd7036595698a6b4f27d9187707f23dc523f","402015","682.8000000119209","77","1","arctic","","","","",""
"dual-task","null","null","null","","arctic","swim","875.5","","A","null","77","77","1","arctic-dual-task","","A","uppercase","408000","0","6","e96a4049306037f2184d7912cf53cd7036595698a6b4f27d9187707f23dc523f","408013.60000002384","875.5","77","1","arctic","","","","",""
"dual-task","null","null","null","","arctic","swim","632.0999999642372","","G","null","77","77","1","arctic-dual-task","","G","uppercase","414000","0","6","e96a4049306037f2184d7912cf53cd7036595698a6b4f27d9187707f23dc523f","414008.40000003576","632.0999999642372","77","1","arctic","","","","",""
"dual-task","null","null","null","","arctic","swim","538.3000000119209","","B","null","77","77","1","arctic-dual-task","","B","uppercase","428000","0","6","e96a4049306037f2184d7912cf53cd7036595698a6b4f27d9187707f23dc523f","428014.5","538.3000000119209","77","1","arctic","","","","",""
"dual-task","null","null","null","","arctic","swim","709.8999999761581","","T","null","77","77","1","arctic-dual-task","","T","uppercase","442000","0","6","e96a4049306037f2184d7912cf53cd7036595698a6b4f27d9187707f23dc523f","442002.60000002384","709.8999999761581","77","1","arctic","","","","",""
"dual-task","null","null","null","","arctic","swim","751.8999999761581","","Q","null","77","77","1","arctic-dual-task","","Q","uppercase","448000","0","6","e96a4049306037f2184d7912cf53cd7036595698a6b4f27d9187707f23dc523f","448000.7000000477","751.8999999761581","77","1","arctic","","","","",""
"dual-task","null","null","null","","arctic","swim","667.2999999523163","","H","null","77","77","1","arctic-dual-task","","H","uppercase","458000","0","6","e96a4049306037f2184d7912cf53cd7036595698a6b4f27d9187707f23dc523f","458002.10000002384","667.2999999523163","77","1","arctic","","","","",""
"dual-task","null","null","null","","arctic","swim","699.1999999880791","","N","null","77","77","1","arctic-dual-task","","N","uppercase","468000","0","6","e96a4049306037f2184d7912cf53cd7036595698a6b4f27d9187707f23dc523f","468014.5","699.1999999880791","77","1","arctic","","","","",""
"dual-task","null","null","null","","arctic","swim","894","","b","null","88","88","1","arctic-dual-task","","b","lowercase","476000","0","6","e96a4049306037f2184d7912cf53cd7036595698a6b4f27d9187707f23dc523f","476001.90000003576","894","88","1","arctic","","","","",""
"dual-task","null","null","null","","arctic","swim","732.9000000357628","","F","null","77","77","1","arctic-dual-task","","F","uppercase","486000","0","6","e96a4049306037f2184d7912cf53cd7036595698a6b4f27d9187707f23dc523f","486003.8000000119","732.9000000357628","77","1","arctic","","","","",""
"dual-task","null","null","null","","arctic","swim","946.6999999880791","","E","null","77","77","1","arctic-dual-task","","E","uppercase","496000","0","6","e96a4049306037f2184d7912cf53cd7036595698a6b4f27d9187707f23dc523f","496005.90000003576","946.6999999880791","77","1","arctic","","","","",""
"dual-task","null","null","null","","arctic","swim","757.6000000238419","","r","null","88","88","1","arctic-dual-task","","r","lowercase","506000","0","6","e96a4049306037f2184d7912cf53cd7036595698a6b4f27d9187707f23dc523f","506002.5","757.6000000238419","88","1","arctic","","","","",""
"dual-task","null","null","null","","arctic","swim","718.3000000119209","","A","null","77","77","1","arctic-dual-task","","A","uppercase","516000","0","6","e96a4049306037f2184d7912cf53cd7036595698a6b4f27d9187707f23dc523f","516010.2000000477","718.3000000119209","77","1","arctic","","","","",""
"dual-task","null","null","null","","arctic","swim","741","","d","null","88","88","1","arctic-dual-task","","d","lowercase","524000","0","6","e96a4049306037f2184d7912cf53cd7036595698a6b4f27d9187707f23dc523f","524011.5","741","88","1","arctic","","","","",""
"dual-task","null","null","null","","arctic","swim","799.8000000119209","","F","null","77","77","1","arctic-dual-task","","F","uppercase","532000","0","6","e96a4049306037f2184d7912cf53cd7036595698a6b4f27d9187707f23dc523f","532000.8000000119","799.8000000119209","77","1","arctic","","","","",""
"dual-task","null","null","null","","arctic","swim","1384.5","","H","null","77","77","1","arctic-dual-task","","H","uppercase","540000","0","6","e96a4049306037f2184d7912cf53cd7036595698a6b4f27d9187707f23dc523f","540016.5","1384.5","77","1","arctic","","","","",""
"dual-task","null","null","null","","arctic","swim","1137.6000000238419","","Q","null","77","77","1","arctic-dual-task","","Q","uppercase","548000","0","6","e96a4049306037f2184d7912cf53cd7036595698a6b4f27d9187707f23dc523f","548015","1137.6000000238419","77","1","arctic","","","","",""
"dual-task","null","null","null","","arctic","swim","916.5","","D","null","77","77","1","arctic-dual-task","","D","uppercase","558000","0","6","e96a4049306037f2184d7912cf53cd7036595698a6b4f27d9187707f23dc523f","558012","916.5","77","1","arctic","","","","",""
"dual-task","null","null","null","","arctic","swim","674.5999999642372","","F","null","77","77","1","arctic-dual-task","","F","uppercase","566000","0","6","e96a4049306037f2184d7912cf53cd7036595698a6b4f27d9187707f23dc523f","566005.3000000119","674.5999999642372","77","1","arctic","","","","",""
"dual-task","null","null","null","","arctic","swim","562.4000000357628","","B","null","77","77","1","arctic-dual-task","","B","uppercase","574000","0","6","e96a4049306037f2184d7912cf53cd7036595698a6b4f27d9187707f23dc523f","574003.8000000119","562.4000000357628","77","1","arctic","","","","",""
"dual-task","null","null","null","","arctic","swim","717.9000000357628","","a","null","88","88","1","arctic-dual-task","","a","lowercase","582000","0","6","e96a4049306037f2184d7912cf53cd7036595698a6b4f27d9187707f23dc523f","582010.8000000119","717.9000000357628","88","1","arctic","","","","",""
"dual-task","null","null","null","","arctic","swim","726","","e","null","88","88","1","arctic-dual-task","","e","lowercase","588000","0","6","e96a4049306037f2184d7912cf53cd7036595698a6b4f27d9187707f23dc523f","588010.5","726","88","1","arctic","","","","",""
"dual-task","null","null","null","","arctic","swim","890.3000000119209","","q","null","88","88","1","arctic-dual-task","","q","lowercase","596000","0","6","e96a4049306037f2184d7912cf53cd7036595698a6b4f27d9187707f23dc523f","596013.8000000119","890.3000000119209","88","1","arctic","","","","",""
"dual-task","null","null","null","","arctic","swim","897.7999999523163","","E","null","77","77","1","arctic-dual-task","","E","uppercase","606000","0","6","e96a4049306037f2184d7912cf53cd7036595698a6b4f27d9187707f23dc523f","606006.7000000477","897.7999999523163","77","1","arctic","","","","",""
"dual-task","null","null","null","","arctic","swim","748.6999999880791","","t","null","88","88","1","arctic-dual-task","","t","lowercase","616000","0","6","e96a4049306037f2184d7912cf53cd7036595698a6b4f27d9187707f23dc523f","616004.4000000358","748.6999999880791","88","1","arctic","","","","",""
"dual-task","null","null","null","","arctic","swim","614.1999999880791","","E","null","77","77","1","arctic-dual-task","","E","uppercase","626000","0","6","e96a4049306037f2184d7912cf53cd7036595698a6b4f27d9187707f23dc523f","626001.8000000119","614.1999999880791","77","1","arctic","","","","",""
"dual-task","null","null","null","","arctic","swim","566.1999999880791","","R","null","77","77","1","arctic-dual-task","","R","uppercase","634000","0","6","e96a4049306037f2184d7912cf53cd7036595698a6b4f27d9187707f23dc523f","634001.8000000119","566.1999999880791","77","1","arctic","","","","",""
"dual-task","null","null","null","","arctic","swim","952.7999999523163","","H","null","77","77","1","arctic-dual-task","","H","uppercase","640000","0","6","e96a4049306037f2184d7912cf53cd7036595698a6b4f27d9187707f23dc523f","640007.7000000477","952.7999999523163","77","1","arctic","","","","",""
"dual-task","null","null","null","","arctic","swim","689.6000000238419","","n","null","88","88","1","arctic-dual-task","","n","lowercase","648000","0","6","e96a4049306037f2184d7912cf53cd7036595698a6b4f27d9187707f23dc523f","648015","689.6000000238419","88","1","arctic","","","","",""
"dual-task","null","null","null","","arctic","swim","812.2999999523163","","g","null","88","88","1","arctic-dual-task","","g","lowercase","660000","0","6","e96a4049306037f2184d7912cf53cd7036595698a6b4f27d9187707f23dc523f","660003.7000000477","812.2999999523163","88","1","arctic","","","","",""
"dual-task","null","null","null","","arctic","swim","650.5999999642372","","G","null","77","77","1","arctic-dual-task","","G","uppercase","668000","0","6","e96a4049306037f2184d7912cf53cd7036595698a6b4f27d9187707f23dc523f","668005.2000000477","650.5999999642372","77","1","arctic","","","","",""
"dual-task","null","null","null","","arctic","swim","723.5999999642372","","h","null","88","88","1","arctic-dual-task","","h","lowercase","676000","0","6","e96a4049306037f2184d7912cf53cd7036595698a6b4f27d9187707f23dc523f","676005.4000000358","723.5999999642372","88","1","arctic","","","","",""
"dual-task","null","null","null","","arctic","swim","649.7999999523163","","N","null","77","77","1","arctic-dual-task","","N","uppercase","686000","0","6","e96a4049306037f2184d7912cf53cd7036595698a6b4f27d9187707f23dc523f","686014.7000000477","649.7999999523163","77","1","arctic","","","","",""
"dual-task","null","null","null","","arctic","swim","669.1999999880791","","F","null","77","77","1","arctic-dual-task","","F","uppercase","692000","0","6","e96a4049306037f2184d7912cf53cd7036595698a6b4f27d9187707f23dc523f","692002.9000000358","669.1999999880791","77","1","arctic","","","","",""
"dual-task","null","null","null","","arctic","swim","684.6999999880791","","h","null","88","88","1","arctic-dual-task","","h","lowercase","702000","0","6","e96a4049306037f2184d7912cf53cd7036595698a6b4f27d9187707f23dc523f","702011.8000000119","684.6999999880791","88","1","arctic","","","","",""
"dual-task","null","null","null","","arctic","swim","658.3999999761581","","A","null","77","77","1","arctic-dual-task","","A","uppercase","710000","0","6","e96a4049306037f2184d7912cf53cd7036595698a6b4f27d9187707f23dc523f","710014.2000000477","658.3999999761581","77","1","arctic","","","","",""
"dual-task","null","null","null","","arctic","swim","762.6000000238419","","q","null","88","88","1","arctic-dual-task","","q","lowercase","716000","0","6","e96a4049306037f2184d7912cf53cd7036595698a6b4f27d9187707f23dc523f","716014.7000000477","762.6000000238419","88","1","arctic","","","","",""
"dual-task","null","null","null","","arctic","swim","566.6000000238419","","G","null","77","77","1","arctic-dual-task","","G","uppercase","724000","0","6","e96a4049306037f2184d7912cf53cd7036595698a6b4f27d9187707f23dc523f","724002.3000000119","566.6000000238419","77","1","arctic","","","","",""
"dual-task","null","null","null","","arctic","swim","645.5","","D","null","77","77","1","arctic-dual-task","","D","uppercase","732000","0","6","e96a4049306037f2184d7912cf53cd7036595698a6b4f27d9187707f23dc523f","732013.5","645.5","77","1","arctic","","","","",""
"dual-task","null","null","null","","arctic","swim","1115.5","","h","null","88","88","1","arctic-dual-task","","h","lowercase","740000","0","6","e96a4049306037f2184d7912cf53cd7036595698a6b4f27d9187707f23dc523f","740013","1115.5","88","1","arctic","","","","",""
"dual-task","null","null","null","","arctic","swim","1073.3999999761581","","f","null","88","88","1","arctic-dual-task","","f","lowercase","748000","0","6","e96a4049306037f2184d7912cf53cd7036595698a6b4f27d9187707f23dc523f","748016.2000000477","1073.3999999761581","88","1","arctic","","","","",""
"dual-task","null","null","null","","arctic","swim","559.3000000119209","","B","null","77","77","1","arctic-dual-task","","B","uppercase","760000","0","6","e96a4049306037f2184d7912cf53cd7036595698a6b4f27d9187707f23dc523f","760001.3000000119","559.3000000119209","77","1","arctic","","","","",""
"dual-task","null","null","null","","arctic","swim","555.8000000119209","","a","null","88","88","1","arctic-dual-task","","a","lowercase","770000","0","6","e96a4049306037f2184d7912cf53cd7036595698a6b4f27d9187707f23dc523f","770012.8000000119","555.8000000119209","88","1","arctic","","","","",""
"dual-task","null","null","null","","arctic","swim","789.3000000119209","","b","null","88","88","1","arctic-dual-task","","b","lowercase","776000","0","6","e96a4049306037f2184d7912cf53cd7036595698a6b4f27d9187707f23dc523f","776011.2000000477","789.3000000119209","88","1","arctic","","","","",""
"dual-task","null","null","null","","arctic","swim","607.6999999880791","","n","null","88","88","1","arctic-dual-task","","n","lowercase","790000","0","6","e96a4049306037f2184d7912cf53cd7036595698a6b4f27d9187707f23dc523f","790001.1000000238","607.6999999880791","88","1","arctic","","","","",""
"audio-keyboard-response","29","899792","0.0-6.0-0.0-1.0","e96a4049306037f2184d7912cf53cd7036595698a6b4f27d9187707f23dc523f","arctic","swim","null","","audio/story_arctic.mp3","","null","","","","","","","","","","","","","","","","","","","",""
"html-button-response","30","901955","0.0-6.0-0.0-2.0","e96a4049306037f2184d7912cf53cd7036595698a6b4f27d9187707f23dc523f","arctic","swim","2162","","<p>This concludes the story. Thank you for listening.</p><p>You will now answer some questions about the content of the story.</p>","0","","","","","","","","","","","","","","","","","","","","",""
"survey-multi-choice","31","908404","0.0-6.0-0.0-3.0-0.0","e96a4049306037f2184d7912cf53cd7036595698a6b4f27d9187707f23dc523f","arctic","swim","6443","","<b>What were the weather conditions in the Arctic like the winter of the narrator&#39;s expedition?</b>","","","","1","arctic-comprehension","","","","","","","","","","","","","{""Q0"":""There were more storms than any other winter in recorded history.""}","","","",""
"survey-multi-choice","32","914817","0.0-6.0-0.0-3.0-0.1","e96a4049306037f2184d7912cf53cd7036595698a6b4f27d9187707f23dc523f","arctic","swim","6148","","<b>Which dog on the narrator&#39;s dog team never followed instructions?</b>","","","","1","arctic-comprehension","","","","","","","","","","","","","{""Q0"":""Robert""}","","","",""
"survey-multi-choice","33","922448","0.0-6.0-0.0-3.0-0.2","e96a4049306037f2184d7912cf53cd7036595698a6b4f27d9187707f23dc523f","arctic","swim","7376","","<b>How did the narrator&#39;s neighbour respond when she told him about her expedition?</b>","","","","1","arctic-comprehension","","","","","","","","","","","","","{""Q0"":""He said she was going to fail.""}","","","",""
"survey-multi-choice","34","926704","0.0-6.0-0.0-3.0-0.3","e96a4049306037f2184d7912cf53cd7036595698a6b4f27d9187707f23dc523f","arctic","swim","4001","","<b>What is the name of the narrator&#39;s neighbour?</b>","","","","1","arctic-comprehension","","","","","","","","","","","","","{""Q0"":""Dave""}","","","",""
"survey-multi-choice","35","934845","0.0-6.0-0.0-3.0-0.4","e96a4049306037f2184d7912cf53cd7036595698a6b4f27d9187707f23dc523f","arctic","swim","7886","","<b>How did the narrator&#39;s encounter with the polar bears end?</b>","","","","1","arctic-comprehension","","","","","","","","","","","","","{""Q0"":""The bears walked back to their den.""}","","","",""
"survey-multi-choice","36","946144","0.0-6.0-0.0-3.0-0.5","e96a4049306037f2184d7912cf53cd7036595698a6b4f27d9187707f23dc523f","arctic","swim","11044","","<b>How did the dogs respond when they saw the bears?</b>","","","","1","arctic-comprehension","","","","","","","","","","","","","{""Q0"":""Approached them""}","","","",""
"survey-multi-choice","37","954582","0.0-6.0-0.0-3.0-0.6","e96a4049306037f2184d7912cf53cd7036595698a6b4f27d9187707f23dc523f","arctic","swim","8181","","<b>How many sponsorships did the narrator receive to support her expedition?</b>","","","","1","arctic-comprehension","","","","","","","","","","","","","{""Q0"":""None""}","","","",""
"survey-multi-choice","38","961024","0.0-6.0-0.0-3.0-0.7","e96a4049306037f2184d7912cf53cd7036595698a6b4f27d9187707f23dc523f","arctic","swim","6188","","<b>How did the narrator prepare for her expedition?</b>","","","","1","arctic-comprehension","","","","","","","","","","","","","{""Q0"":""Trained in Alaska learning how to dogsled""}","","","",""
"survey-multi-choice","39","966933","0.0-6.0-0.0-3.0-0.8","e96a4049306037f2184d7912cf53cd7036595698a6b4f27d9187707f23dc523f","arctic","swim","5652","","<b>What did the narrator do for leisure while in her tent?</b>","","","","1","arctic-comprehension","","","","","","","","","","","","","{""Q0"":""Read""}","","","",""
"survey-multi-choice","40","972040","0.0-6.0-0.0-3.0-0.9","e96a4049306037f2184d7912cf53cd7036595698a6b4f27d9187707f23dc523f","arctic","swim","4852","","<b>What was the objective of the narrator&#39;s expedition?</b>","","","","1","arctic-comprehension","","","","","","","","","","","","","{""Q0"":""Dogsled across Arctic America""}","","","",""
"html-button-response","41","974394","0.0-6.0-0.0-4.0","e96a4049306037f2184d7912cf53cd7036595698a6b4f27d9187707f23dc523f","arctic","swim","2101","","<p>Thank you for your responses.</p><p>You will now answer some questions about your impressions of the story.</p>","0","","","","","","","","","","","","","","","","","","","","",""
"html-button-response","42","979298","0.0-6.0-0.0-5.0-0.0","e96a4049306037f2184d7912cf53cd7036595698a6b4f27d9187707f23dc523f","arctic","swim","4902","","EE4","5","","","","arctic-engagement","","","","","","","","","","","","","","6","emo-engage","",""
"html-button-response","43","980744","0.0-6.0-0.0-5.0-0.1","e96a4049306037f2184d7912cf53cd7036595698a6b4f27d9187707f23dc523f","arctic","swim","1193","","E8","5","","","","arctic-engagement","","","","","","","","","","","","","","6","enjoyment","",""
"html-button-response","44","983500","0.0-6.0-0.0-5.0-0.2","e96a4049306037f2184d7912cf53cd7036595698a6b4f27d9187707f23dc523f","arctic","swim","2504","","EE1","5","","","","arctic-engagement","","","","","","","","","","","","","","6","emo-engage","",""
"html-button-response","45","986006","0.0-6.0-0.0-5.0-0.3","e96a4049306037f2184d7912cf53cd7036595698a6b4f27d9187707f23dc523f","arctic","swim","2254","","MS2","5","","","","arctic-engagement","","","","","","","","","","","","","","6","mental-sim","",""
"html-button-response","46","988104","0.0-6.0-0.0-5.0-0.4","e96a4049306037f2184d7912cf53cd7036595698a6b4f27d9187707f23dc523f","arctic","swim","1845","","MS1","5","","","","arctic-engagement","","","","","","","","","","","","","","6","mental-sim","",""
"html-button-response","47","989248","0.0-6.0-0.0-5.0-0.5","e96a4049306037f2184d7912cf53cd7036595698a6b4f27d9187707f23dc523f","arctic","swim","891","","A3","5","","","","arctic-engagement","","","","","","","","","","","","","","6","absorption","",""
"html-button-response","48","991403","0.0-6.0-0.0-5.0-0.6","e96a4049306037f2184d7912cf53cd7036595698a6b4f27d9187707f23dc523f","arctic","swim","1902","","A4","5","","","","arctic-engagement","","","","","","","","","","","","","","6","absorption","",""
"html-button-response","49","993191","0.0-6.0-0.0-5.0-0.7","e96a4049306037f2184d7912cf53cd7036595698a6b4f27d9187707f23dc523f","arctic","swim","1536","","E1","5","","","","arctic-engagement","","","","","","","","","","","","","","6","enjoyment","",""
"html-button-response","50","996218","0.0-6.0-0.0-5.0-0.8","e96a4049306037f2184d7912cf53cd7036595698a6b4f27d9187707f23dc523f","arctic","swim","2774","","A5","5","","","","arctic-engagement","","","","","","","","","","","","","","6","absorption","",""
"html-button-response","51","998740","0.0-6.0-0.0-5.0-0.9","e96a4049306037f2184d7912cf53cd7036595698a6b4f27d9187707f23dc523f","arctic","swim","2270","","A2","5","","","","arctic-engagement","","","","","","","","","","","","","","6","absorption","",""
"html-button-response","52","1001585","0.0-6.0-0.0-5.0-0.10","e96a4049306037f2184d7912cf53cd7036595698a6b4f27d9187707f23dc523f","arctic","swim","2591","","EE5","5","","","","arctic-engagement","","","","","","","","","","","","","","6","emo-engage","",""
"html-button-response","53","1003123","0.0-6.0-0.0-5.0-0.11","e96a4049306037f2184d7912cf53cd7036595698a6b4f27d9187707f23dc523f","arctic","swim","1285","","E7","5","","","","arctic-engagement","","","","","","","","","","","","","","6","enjoyment","",""
"html-button-response","54","1005799","0.0-6.0-0.0-5.0-0.12","e96a4049306037f2184d7912cf53cd7036595698a6b4f27d9187707f23dc523f","arctic","swim","2423","","A1","4","","","","arctic-engagement","","","","","","","","","","","","","","5","absorption","",""
"html-button-response","55","1007486","0.0-6.0-0.0-5.0-0.13","e96a4049306037f2184d7912cf53cd7036595698a6b4f27d9187707f23dc523f","arctic","swim","1435","","E6","5","","","","arctic-engagement","","","","","","","","","","","","","","6","enjoyment","",""
"html-button-response","56","1008936","0.0-6.0-0.0-5.0-0.14","e96a4049306037f2184d7912cf53cd7036595698a6b4f27d9187707f23dc523f","arctic","swim","1198","","EE3","5","","","","arctic-engagement","","","","","","","","","","","","","","6","emo-engage","",""
"html-button-response","57","1011585","0.0-6.0-0.0-5.0-0.15","e96a4049306037f2184d7912cf53cd7036595698a6b4f27d9187707f23dc523f","arctic","swim","2396","","MS3","5","","","","arctic-engagement","","","","","","","","","","","","","","6","mental-sim","",""
"html-button-response","58","1013895","0.0-6.0-0.0-5.0-0.16","e96a4049306037f2184d7912cf53cd7036595698a6b4f27d9187707f23dc523f","arctic","swim","2058","","E10","5","","","","arctic-engagement","","","","","","","","","","","","","","6","enjoyment","",""
"html-button-response","59","1015753","0.0-6.0-0.0-5.0-0.17","e96a4049306037f2184d7912cf53cd7036595698a6b4f27d9187707f23dc523f","arctic","swim","1606","","EE2","5","","","","arctic-engagement","","","","","","","","","","","","","","6","emo-engage","",""
"html-keyboard-response","60","1020677","0.0-6.0-1.0","e96a4049306037f2184d7912cf53cd7036595698a6b4f27d9187707f23dc523f","arctic","swim","4673","","<p>Thank you for your responses. You will now listen to the second story.</p><p>Remember, as you listen to the story you will see letters appear on the screen.</br>As quickly as possible, press <b>&lt;x&gt;</b> if the letter is lowercase and <b>&lt;m&gt;</b> if the letter is uppercase.</p><p>Press <b>&lt;x&gt;</b> or <b>&lt;m&gt;</b> to begin listening!</p>","","77","","","","","","","","","","","","","","","","","","","",""
"html-keyboard-response","61","1021178","0.0-6.0-2.0-0.0","e96a4049306037f2184d7912cf53cd7036595698a6b4f27d9187707f23dc523f","arctic","swim","null","","<div style=""font-size:60px;"" tabindex=""0"">+</div>","","null","","","","","","","","","","","","","","","","","","","",""
"dual-task","null","null","null","","arctic","swim","657.3000000119209","","d","null","88","88","1","swim-dual-task","","d","lowercase","18000","0","6","e96a4049306037f2184d7912cf53cd7036595698a6b4f27d9187707f23dc523f","18000.30000001192","657.3000000119209","88","1","swim","","","","",""
"dual-task","null","null","null","","arctic","swim","864.5","","G","null","77","77","1","swim-dual-task","","G","uppercase","30000","0","6","e96a4049306037f2184d7912cf53cd7036595698a6b4f27d9187707f23dc523f","30000.900000035763","864.5","77","1","swim","","","","",""
"dual-task","null","null","null","","arctic","swim","643.6999999880791","","t","null","88","88","1","swim-dual-task","","t","lowercase","40000","0","6","e96a4049306037f2184d7912cf53cd7036595698a6b4f27d9187707f23dc523f","40013.40000003576","643.6999999880791","88","1","swim","","","","",""
"dual-task","null","null","null","","arctic","swim","663","","D","null","77","77","1","swim-dual-task","","D","uppercase","54000","0","6","e96a4049306037f2184d7912cf53cd7036595698a6b4f27d9187707f23dc523f","54010.5","663","77","1","swim","","","","",""
"dual-task","null","null","null","","arctic","swim","976.6999999880791","","F","null","77","77","1","swim-dual-task","","F","uppercase","62000","0","6","e96a4049306037f2184d7912cf53cd7036595698a6b4f27d9187707f23dc523f","62000.700000047684","976.6999999880791","77","1","swim","","","","",""
"dual-task","null","null","null","","arctic","swim","650.8999999761581","","N","null","77","77","1","swim-dual-task","","N","uppercase","76000","0","6","e96a4049306037f2184d7912cf53cd7036595698a6b4f27d9187707f23dc523f","76000.90000003576","650.8999999761581","77","1","swim","","","","",""
"dual-task","null","null","null","","arctic","swim","585.0999999642372","","H","null","77","77","1","swim-dual-task","","H","uppercase","86000","0","6","e96a4049306037f2184d7912cf53cd7036595698a6b4f27d9187707f23dc523f","86000.30000001192","585.0999999642372","77","1","swim","","","","",""
"dual-task","null","null","null","","arctic","swim","635.6999999880791","","E","null","77","77","1","swim-dual-task","","E","uppercase","100000","0","6","e96a4049306037f2184d7912cf53cd7036595698a6b4f27d9187707f23dc523f","100014.70000004768","635.6999999880791","77","1","swim","","","","",""
"dual-task","null","null","null","","arctic","swim","787","","r","null","88","88","1","swim-dual-task","","r","lowercase","106000","0","6","e96a4049306037f2184d7912cf53cd7036595698a6b4f27d9187707f23dc523f","106006.40000003576","787","88","1","swim","","","","",""
"dual-task","null","null","null","","arctic","swim","584.8999999761581","","n","null","88","88","1","swim-dual-task","","n","lowercase","114000","0","6","e96a4049306037f2184d7912cf53cd7036595698a6b4f27d9187707f23dc523f","114002.30000001192","584.8999999761581","88","1","swim","","","","",""
"dual-task","null","null","null","","arctic","swim","933.5999999642372","","b","null","88","88","1","swim-dual-task","","b","lowercase","128000","0","6","e96a4049306037f2184d7912cf53cd7036595698a6b4f27d9187707f23dc523f","128011.90000003576","933.5999999642372","88","1","swim","","","","",""
"dual-task","null","null","null","","arctic","swim","772.8000000119209","","a","null","88","88","1","swim-dual-task","","a","lowercase","140000","0","6","e96a4049306037f2184d7912cf53cd7036595698a6b4f27d9187707f23dc523f","140004.5","772.8000000119209","88","1","swim","","","","",""
"dual-task","null","null","null","","arctic","swim","630.2999999523163","","e","null","88","88","1","swim-dual-task","","e","lowercase","152000","0","6","e96a4049306037f2184d7912cf53cd7036595698a6b4f27d9187707f23dc523f","152011.20000004768","630.2999999523163","88","1","swim","","","","",""
"dual-task","null","null","null","","arctic","swim","781.9000000357628","","A","null","77","77","1","swim-dual-task","","A","uppercase","164000","0","6","e96a4049306037f2184d7912cf53cd7036595698a6b4f27d9187707f23dc523f","164011.90000003576","781.9000000357628","77","1","swim","","","","",""
"dual-task","null","null","null","","arctic","swim","625.3999999761581","","H","null","77","77","1","swim-dual-task","","H","uppercase","172000","0","6","e96a4049306037f2184d7912cf53cd7036595698a6b4f27d9187707f23dc523f","172000","625.3999999761581","77","1","swim","","","","",""
"dual-task","null","null","null","","arctic","swim","560.7999999523163","","G","null","77","77","1","swim-dual-task","","G","uppercase","184000","0","6","e96a4049306037f2184d7912cf53cd7036595698a6b4f27d9187707f23dc523f","184000.70000004768","560.7999999523163","77","1","swim","","","","",""
"dual-task","null","null","null","","arctic","swim","879.8000000119209","","T","null","77","77","1","swim-dual-task","","T","uppercase","194000","0","6","e96a4049306037f2184d7912cf53cd7036595698a6b4f27d9187707f23dc523f","194001.90000003576","879.8000000119209","77","1","swim","","","","",""
"dual-task","null","null","null","","arctic","swim","656.8999999761581","","N","null","77","77","1","swim-dual-task","","N","uppercase","206000","0","6","e96a4049306037f2184d7912cf53cd7036595698a6b4f27d9187707f23dc523f","206000.60000002384","656.8999999761581","77","1","swim","","","","",""
"dual-task","null","null","null","","arctic","swim","564.1999999880791","","F","null","77","77","1","swim-dual-task","","F","uppercase","220000","0","6","e96a4049306037f2184d7912cf53cd7036595698a6b4f27d9187707f23dc523f","220004.90000003576","564.1999999880791","77","1","swim","","","","",""
"dual-task","null","null","null","","arctic","swim","532.6999999880791","","A","null","77","77","1","swim-dual-task","","A","uppercase","232000","0","6","e96a4049306037f2184d7912cf53cd7036595698a6b4f27d9187707f23dc523f","232015.70000004768","532.6999999880791","77","1","swim","","","","",""
"dual-task","null","null","null","","arctic","swim","971.6999999880791","","r","null","88","88","1","swim-dual-task","","r","lowercase","242000","0","6","e96a4049306037f2184d7912cf53cd7036595698a6b4f27d9187707f23dc523f","242014.80000001192","971.6999999880791","88","1","swim","","","","",""
"dual-task","null","null","null","","arctic","swim","680.1999999880791","","D","null","77","77","1","swim-dual-task","","D","uppercase","256000","0","6","e96a4049306037f2184d7912cf53cd7036595698a6b4f27d9187707f23dc523f","256000.70000004768","680.1999999880791","77","1","swim","","","","",""
"dual-task","null","null","null","","arctic","swim","730.1999999880791","","h","null","88","88","1","swim-dual-task","","h","lowercase","262000","0","6","e96a4049306037f2184d7912cf53cd7036595698a6b4f27d9187707f23dc523f","262012.10000002384","730.1999999880791","88","1","swim","","","","",""
"dual-task","null","null","null","","arctic","swim","712.8999999761581","","n","null","88","88","1","swim-dual-task","","n","lowercase","272000","0","6","e96a4049306037f2184d7912cf53cd7036595698a6b4f27d9187707f23dc523f","272000.40000003576","712.8999999761581","88","1","swim","","","","",""
"dual-task","null","null","null","","arctic","swim","787.5","","T","null","77","77","1","swim-dual-task","","T","uppercase","280000","0","6","e96a4049306037f2184d7912cf53cd7036595698a6b4f27d9187707f23dc523f","280014.40000003576","787.5","77","1","swim","","","","",""
"dual-task","null","null","null","","arctic","swim","609.4000000357628","","g","null","88","88","1","swim-dual-task","","g","lowercase","288000","0","6","e96a4049306037f2184d7912cf53cd7036595698a6b4f27d9187707f23dc523f","288007.40000003576","609.4000000357628","88","1","swim","","","","",""
"dual-task","null","null","null","","arctic","swim","649.6999999880791","","R","null","77","77","1","swim-dual-task","","R","uppercase","300000","0","6","e96a4049306037f2184d7912cf53cd7036595698a6b4f27d9187707f23dc523f","300000.60000002384","649.6999999880791","77","1","swim","","","","",""
"dual-task","null","null","null","","arctic","swim","816.6000000238419","","T","null","77","77","1","swim-dual-task","","T","uppercase","308000","0","6","e96a4049306037f2184d7912cf53cd7036595698a6b4f27d9187707f23dc523f","308000.8000000119","816.6000000238419","77","1","swim","","","","",""
"dual-task","null","null","null","","arctic","swim","584.3000000119209","","H","null","77","77","1","swim-dual-task","","H","uppercase","314000","0","6","e96a4049306037f2184d7912cf53cd7036595698a6b4f27d9187707f23dc523f","314001.10000002384","584.3000000119209","77","1","swim","","","","",""
"dual-task","null","null","null","","arctic","swim","760.6999999880791","","e","null","88","88","1","swim-dual-task","","e","lowercase","324000","0","6","e96a4049306037f2184d7912cf53cd7036595698a6b4f27d9187707f23dc523f","324000.7000000477","760.6999999880791","88","1","swim","","","","",""
"dual-task","null","null","null","","arctic","swim","904.4000000357628","","A","null","77","77","1","swim-dual-task","","A","uppercase","334000","0","6","e96a4049306037f2184d7912cf53cd7036595698a6b4f27d9187707f23dc523f","334001","904.4000000357628","77","1","swim","","","","",""
"dual-task","null","null","null","","arctic","swim","928.6999999880791","","e","null","88","88","1","swim-dual-task","","e","lowercase","342000","0","6","e96a4049306037f2184d7912cf53cd7036595698a6b4f27d9187707f23dc523f","342000.3000000119","928.6999999880791","88","1","swim","","","","",""
"dual-task","null","null","null","","arctic","swim","736.1999999880791","","t","null","88","88","1","swim-dual-task","","t","lowercase","350000","0","6","e96a4049306037f2184d7912cf53cd7036595698a6b4f27d9187707f23dc523f","350001","736.1999999880791","88","1","swim","","","","",""
"dual-task","null","null","null","","arctic","swim","1247.7999999523163","","q","null","77","88","0","swim-dual-task","","q","lowercase","358000","0","6","e96a4049306037f2184d7912cf53cd7036595698a6b4f27d9187707f23dc523f","358001.7000000477","1247.7999999523163","77","0","swim","","","","",""
"dual-task","null","null","null","","arctic","swim","1616.300000011921","","d","null","88","88","1","swim-dual-task","","d","lowercase","368000","0","6","e96a4049306037f2184d7912cf53cd7036595698a6b4f27d9187707f23dc523f","368001.60000002384","1616.300000011921","88","1","swim","","","","",""
"dual-task","null","null","null","","arctic","swim","829.3000000119209","","h","null","88","88","1","swim-dual-task","","h","lowercase","376000","0","6","e96a4049306037f2184d7912cf53cd7036595698a6b4f27d9187707f23dc523f","376004.3000000119","829.3000000119209","88","1","swim","","","","",""
"dual-task","null","null","null","","arctic","swim","638","","t","null","88","88","1","swim-dual-task","","t","lowercase","386000","0","6","e96a4049306037f2184d7912cf53cd7036595698a6b4f27d9187707f23dc523f","386011.60000002384","638","88","1","swim","","","","",""
"dual-task","null","null","null","","arctic","swim","424.4000000357628","","f","null","88","88","1","swim-dual-task","","f","lowercase","396000","0","6","e96a4049306037f2184d7912cf53cd7036595698a6b4f27d9187707f23dc523f","396000.90000003576","424.4000000357628","88","1","swim","","","","",""
"dual-task","null","null","null","","arctic","swim","736.3000000119209","","F","null","77","77","1","swim-dual-task","","F","uppercase","402000","0","6","e96a4049306037f2184d7912cf53cd7036595698a6b4f27d9187707f23dc523f","402001.40000003576","736.3000000119209","77","1","swim","","","","",""
"dual-task","null","null","null","","arctic","swim","766.3999999761581","","q","null","88","88","1","swim-dual-task","","q","lowercase","414000","0","6","e96a4049306037f2184d7912cf53cd7036595698a6b4f27d9187707f23dc523f","414002.5","766.3999999761581","88","1","swim","","","","",""
"dual-task","null","null","null","","arctic","swim","670.5","","h","null","88","88","1","swim-dual-task","","h","lowercase","426000","0","6","e96a4049306037f2184d7912cf53cd7036595698a6b4f27d9187707f23dc523f","426003.10000002384","670.5","88","1","swim","","","","",""
"dual-task","null","null","null","","arctic","swim","1020.1999999880791","","E","null","77","77","1","swim-dual-task","","E","uppercase","434000","0","6","e96a4049306037f2184d7912cf53cd7036595698a6b4f27d9187707f23dc523f","434012.8000000119","1020.1999999880791","77","1","swim","","","","",""
"dual-task","null","null","null","","arctic","swim","767.1000000238419","","g","null","88","88","1","swim-dual-task","","g","lowercase","446000","0","6","e96a4049306037f2184d7912cf53cd7036595698a6b4f27d9187707f23dc523f","446010.60000002384","767.1000000238419","88","1","swim","","","","",""
"dual-task","null","null","null","","arctic","swim","752.5999999642372","","b","null","88","88","1","swim-dual-task","","b","lowercase","452000","0","6","e96a4049306037f2184d7912cf53cd7036595698a6b4f27d9187707f23dc523f","452000.90000003576","752.5999999642372","88","1","swim","","","","",""
"dual-task","null","null","null","","arctic","swim","1594.300000011921","","h","null","88","88","1","swim-dual-task","","h","lowercase","462000","0","6","e96a4049306037f2184d7912cf53cd7036595698a6b4f27d9187707f23dc523f","462014.7000000477","1594.300000011921","88","1","swim","","","","",""
"dual-task","null","null","null","","arctic","swim","572.5999999642372","","R","null","77","77","1","swim-dual-task","","R","uppercase","468000","0","6","e96a4049306037f2184d7912cf53cd7036595698a6b4f27d9187707f23dc523f","468005.10000002384","572.5999999642372","77","1","swim","","","","",""
"dual-task","null","null","null","","arctic","swim","818.3000000119209","","f","null","88","88","1","swim-dual-task","","f","lowercase","480000","0","6","e96a4049306037f2184d7912cf53cd7036595698a6b4f27d9187707f23dc523f","480015","818.3000000119209","88","1","swim","","","","",""
"dual-task","null","null","null","","arctic","swim","818.9000000357628","","n","null","88","88","1","swim-dual-task","","n","lowercase","488000","0","6","e96a4049306037f2184d7912cf53cd7036595698a6b4f27d9187707f23dc523f","488014.40000003576","818.9000000357628","88","1","swim","","","","",""
"dual-task","null","null","null","","arctic","swim","735.3999999761581","","R","null","77","77","1","swim-dual-task","","R","uppercase","496000","0","6","e96a4049306037f2184d7912cf53cd7036595698a6b4f27d9187707f23dc523f","496001.7000000477","735.3999999761581","77","1","swim","","","","",""
"dual-task","null","null","null","","arctic","swim","901.2999999523163","","Q","null","77","77","1","swim-dual-task","","Q","uppercase","504000","0","6","e96a4049306037f2184d7912cf53cd7036595698a6b4f27d9187707f23dc523f","504014.7000000477","901.2999999523163","77","1","swim","","","","",""
"dual-task","null","null","null","","arctic","swim","664.6999999880791","","b","null","88","88","1","swim-dual-task","","b","lowercase","514000","0","6","e96a4049306037f2184d7912cf53cd7036595698a6b4f27d9187707f23dc523f","514008.8000000119","664.6999999880791","88","1","swim","","","","",""
"dual-task","null","null","null","","arctic","swim","571.5999999642372","","Q","null","77","77","1","swim-dual-task","","Q","uppercase","526000","0","6","e96a4049306037f2184d7912cf53cd7036595698a6b4f27d9187707f23dc523f","526013.8000000119","571.5999999642372","77","1","swim","","","","",""
"dual-task","null","null","null","","arctic","swim","870.0999999642372","","H","null","77","77","1","swim-dual-task","","H","uppercase","534000","0","6","e96a4049306037f2184d7912cf53cd7036595698a6b4f27d9187707f23dc523f","534002.8000000119","870.0999999642372","77","1","swim","","","","",""
"dual-task","null","null","null","","arctic","swim","568.3000000119209","","Q","null","77","77","1","swim-dual-task","","Q","uppercase","546000","0","6","e96a4049306037f2184d7912cf53cd7036595698a6b4f27d9187707f23dc523f","546001.1000000238","568.3000000119209","77","1","swim","","","","",""
"dual-task","null","null","null","","arctic","swim","506.19999998807907","","E","null","77","77","1","swim-dual-task","","E","uppercase","558000","0","6","e96a4049306037f2184d7912cf53cd7036595698a6b4f27d9187707f23dc523f","558006.7000000477","506.19999998807907","77","1","swim","","","","",""
"dual-task","null","null","null","","arctic","swim","487.60000002384186","","F","null","77","77","1","swim-dual-task","","F","uppercase","570000","0","6","e96a4049306037f2184d7912cf53cd7036595698a6b4f27d9187707f23dc523f","570001.7000000477","487.60000002384186","77","1","swim","","","","",""
"dual-task","null","null","null","","arctic","swim","640.5","","E","null","77","77","1","swim-dual-task","","E","uppercase","582000","0","6","e96a4049306037f2184d7912cf53cd7036595698a6b4f27d9187707f23dc523f","582000.7000000477","640.5","77","1","swim","","","","",""
"dual-task","null","null","null","","arctic","swim","881","","r","null","88","88","1","swim-dual-task","","r","lowercase","594000","0","6","e96a4049306037f2184d7912cf53cd7036595698a6b4f27d9187707f23dc523f","594000.5","881","88","1","swim","","","","",""
"dual-task","null","null","null","","arctic","swim","526.6999999880791","","T","null","77","77","1","swim-dual-task","","T","uppercase","602000","0","6","e96a4049306037f2184d7912cf53cd7036595698a6b4f27d9187707f23dc523f","602002","526.6999999880791","77","1","swim","","","","",""
"dual-task","null","null","null","","arctic","swim","693.1999999880791","","N","null","77","77","1","swim-dual-task","","N","uppercase","616000","0","6","e96a4049306037f2184d7912cf53cd7036595698a6b4f27d9187707f23dc523f","616012.2000000477","693.1999999880791","77","1","swim","","","","",""
"dual-task","null","null","null","","arctic","swim","1238.5","","a","null","88","88","1","swim-dual-task","","a","lowercase","622000","0","6","e96a4049306037f2184d7912cf53cd7036595698a6b4f27d9187707f23dc523f","622010.3000000119","1238.5","88","1","swim","","","","",""
"dual-task","null","null","null","","arctic","swim","532.9000000357628","","G","null","77","77","1","swim-dual-task","","G","uppercase","636000","0","6","e96a4049306037f2184d7912cf53cd7036595698a6b4f27d9187707f23dc523f","636012","532.9000000357628","77","1","swim","","","","",""
"dual-task","null","null","null","","arctic","swim","559","","B","null","77","77","1","swim-dual-task","","B","uppercase","644000","0","6","e96a4049306037f2184d7912cf53cd7036595698a6b4f27d9187707f23dc523f","644010","559","77","1","swim","","","","",""
"dual-task","null","null","null","","arctic","swim","635.8000000119209","","D","null","77","77","1","swim-dual-task","","D","uppercase","654000","0","6","e96a4049306037f2184d7912cf53cd7036595698a6b4f27d9187707f23dc523f","654014.1000000238","635.8000000119209","77","1","swim","","","","",""
"dual-task","null","null","null","","arctic","swim","447.89999997615814","","N","null","77","77","1","swim-dual-task","","N","uppercase","668000","0","6","e96a4049306037f2184d7912cf53cd7036595698a6b4f27d9187707f23dc523f","668001.1000000238","447.89999997615814","77","1","swim","","","","",""
"dual-task","null","null","null","","arctic","swim","581.0999999642372","","R","null","77","77","1","swim-dual-task","","R","uppercase","676000","0","6","e96a4049306037f2184d7912cf53cd7036595698a6b4f27d9187707f23dc523f","676012.2000000477","581.0999999642372","77","1","swim","","","","",""
"dual-task","null","null","null","","arctic","swim","733.2999999523163","","g","null","88","88","1","swim-dual-task","","g","lowercase","686000","0","6","e96a4049306037f2184d7912cf53cd7036595698a6b4f27d9187707f23dc523f","686012.1000000238","733.2999999523163","88","1","swim","","","","",""
"dual-task","null","null","null","","arctic","swim","591.1000000238419","","A","null","77","77","1","swim-dual-task","","A","uppercase","698000","0","6","e96a4049306037f2184d7912cf53cd7036595698a6b4f27d9187707f23dc523f","698001.9000000358","591.1000000238419","77","1","swim","","","","",""
"dual-task","null","null","null","","arctic","swim","901","","a","null","88","88","1","swim-dual-task","","a","lowercase","708000","0","6","e96a4049306037f2184d7912cf53cd7036595698a6b4f27d9187707f23dc523f","708006.1000000238","901","88","1","swim","","","","",""
"dual-task","null","null","null","","arctic","swim","668.1000000238419","","d","null","88","88","1","swim-dual-task","","d","lowercase","720000","0","6","e96a4049306037f2184d7912cf53cd7036595698a6b4f27d9187707f23dc523f","720004.9000000358","668.1000000238419","88","1","swim","","","","",""
"dual-task","null","null","null","","arctic","swim","705.8000000119209","","Q","null","77","77","1","swim-dual-task","","Q","uppercase","728000","0","6","e96a4049306037f2184d7912cf53cd7036595698a6b4f27d9187707f23dc523f","728015.1000000238","705.8000000119209","77","1","swim","","","","",""
"dual-task","null","null","null","","arctic","swim","778.5","","g","null","88","88","1","swim-dual-task","","g","lowercase","740000","0","6","e96a4049306037f2184d7912cf53cd7036595698a6b4f27d9187707f23dc523f","740015.7000000477","778.5","88","1","swim","","","","",""
"dual-task","null","null","null","","arctic","swim","565.9000000357628","","B","null","77","77","1","swim-dual-task","","B","uppercase","754000","0","6","e96a4049306037f2184d7912cf53cd7036595698a6b4f27d9187707f23dc523f","754011","565.9000000357628","77","1","swim","","","","",""
"dual-task","null","null","null","","arctic","swim","668","","B","null","77","77","1","swim-dual-task","","B","uppercase","762000","0","6","e96a4049306037f2184d7912cf53cd7036595698a6b4f27d9187707f23dc523f","762006.4000000358","668","77","1","swim","","","","",""
"dual-task","null","null","null","","arctic","swim","740.4000000357628","","d","null","88","88","1","swim-dual-task","","d","lowercase","770000","0","6","e96a4049306037f2184d7912cf53cd7036595698a6b4f27d9187707f23dc523f","770012.4000000358","740.4000000357628","88","1","swim","","","","",""
"dual-task","null","null","null","","arctic","swim","669.8999999761581","","q","null","88","88","1","swim-dual-task","","q","lowercase","778000","0","6","e96a4049306037f2184d7912cf53cd7036595698a6b4f27d9187707f23dc523f","778003.1000000238","669.8999999761581","88","1","swim","","","","",""
"dual-task","null","null","null","","arctic","swim","723","","B","null","77","77","1","swim-dual-task","","B","uppercase","786000","0","6","e96a4049306037f2184d7912cf53cd7036595698a6b4f27d9187707f23dc523f","786013.9000000358","723","77","1","swim","","","","",""
"dual-task","null","null","null","","arctic","swim","480.10000002384186","","f","null","77","88","0","swim-dual-task","","f","lowercase","800000","0","6","e96a4049306037f2184d7912cf53cd7036595698a6b4f27d9187707f23dc523f","800000.5","480.10000002384186","77","0","swim","","","","",""
"audio-keyboard-response","62","1831172","0.0-6.0-2.0-1.0","e96a4049306037f2184d7912cf53cd7036595698a6b4f27d9187707f23dc523f","arctic","swim","null","","audio/story_swim_scrambled.mp3","","null","","","","","","","","","","","","","","","","","","","",""
"html-button-response","63","1832157","0.0-6.0-2.0-2.0","e96a4049306037f2184d7912cf53cd7036595698a6b4f27d9187707f23dc523f","arctic","swim","984","","<p>This concludes the story. Thank you for listening.</p><p>You will now answer some questions about the content of the story.</p>","0","","","","","","","","","","","","","","","","","","","","",""
"survey-multi-choice","64","1841942","0.0-6.0-2.0-3.0-0.0","e96a4049306037f2184d7912cf53cd7036595698a6b4f27d9187707f23dc523f","arctic","swim","9778","","<b>What gave the narrator his greatest feeling of accomplishment?</b>","","","","1","swim-comprehension","","","","","","","","","","","","","{""Q0"":""Passing the water survival course""}","","","",""
"survey-multi-choice","65","1849048","0.0-6.0-2.0-3.0-0.1","e96a4049306037f2184d7912cf53cd7036595698a6b4f27d9187707f23dc523f","arctic","swim","6852","","<b>How many astronaut candidates passed the first swim test?</b>","","","","1","swim-comprehension","","","","","","","","","","","","","{""Q0"":""All of them""}","","","",""
"survey-multi-choice","66","1855510","0.0-6.0-2.0-3.0-0.2","e96a4049306037f2184d7912cf53cd7036595698a6b4f27d9187707f23dc523f","arctic","swim","6201","","<b>Where is the home of naval aviation?</b>","","","","0","swim-comprehension","","","","","","","","","","","","","{""Q0"":""Dallas""}","","","",""
"survey-multi-choice","67","1862694","0.0-6.0-2.0-3.0-0.3","e96a4049306037f2184d7912cf53cd7036595698a6b4f27d9187707f23dc523f","arctic","swim","6929","","<b>How often does the narrator swim, now that he is a good swimmer?</b>","","","","0","swim-comprehension","","","","","","","","","","","","","{""Q0"":""Every weekend with his kids""}","","","",""
"survey-multi-choice","68","1869762","0.0-6.0-2.0-3.0-0.4","e96a4049306037f2184d7912cf53cd7036595698a6b4f27d9187707f23dc523f","arctic","swim","6812","","<b>How many times did the astronaut candidates have to complete the final exercise to pass?</b>","","","","1","swim-comprehension","","","","","","","","","","","","","{""Q0"":""Two""}","","","",""
"survey-multi-choice","69","1873128","0.0-6.0-2.0-3.0-0.5","e96a4049306037f2184d7912cf53cd7036595698a6b4f27d9187707f23dc523f","arctic","swim","3110","","<b>What is the narrator afraid of, aside from the water?</b>","","","","1","swim-comprehension","","","","","","","","","","","","","{""Q0"":""Heights""}","","","",""
"survey-multi-choice","70","1880313","0.0-6.0-2.0-3.0-0.6","e96a4049306037f2184d7912cf53cd7036595698a6b4f27d9187707f23dc523f","arctic","swim","6932","","<b>How did the narrator train for his swim test?</b>","","","","1","swim-comprehension","","","","","","","","","","","","","{""Q0"":""Took his kids to the pool every day""}","","","",""
"survey-multi-choice","71","1887078","0.0-6.0-2.0-3.0-0.7","e96a4049306037f2184d7912cf53cd7036595698a6b4f27d9187707f23dc523f","arctic","swim","6510","","<b>What was the final step of the first swim test in the pool?</b>","","","","1","swim-comprehension","","","","","","","","","","","","","{""Q0"":""Tread water with hands above the water""}","","","",""
"survey-multi-choice","72","1894217","0.0-6.0-2.0-3.0-0.8","e96a4049306037f2184d7912cf53cd7036595698a6b4f27d9187707f23dc523f","arctic","swim","6885","","<b>How many astronaut candidates reported for duty at the Johnson Space Center?</b>","","","","1","swim-comprehension","","","","","","","","","","","","","{""Q0"":""Forty-four""}","","","",""
"survey-multi-choice","73","1911566","0.0-6.0-2.0-3.0-0.9","e96a4049306037f2184d7912cf53cd7036595698a6b4f27d9187707f23dc523f","arctic","swim","17094","","<b>What were the astronaut candidates trained to do at the naval air station?</b>","","","","1","swim-comprehension","","","","","","","","","","","","","{""Q0"":""Eject out of aircraft and survive in water long enough to be rescued""}","","","",""
"html-button-response","74","1913225","0.0-6.0-2.0-4.0","e96a4049306037f2184d7912cf53cd7036595698a6b4f27d9187707f23dc523f","arctic","swim","1407","","<p>Thank you for your responses.</p><p>You will now answer some questions about your impressions of the story.</p>","0","","","","","","","","","","","","","","","","","","","","",""
"html-button-response","75","1915983","0.0-6.0-2.0-5.0-0.0","e96a4049306037f2184d7912cf53cd7036595698a6b4f27d9187707f23dc523f","arctic","swim","2757","","MS1","2","","","","swim-engagement","","","","","","","","","","","","","","3","mental-sim","",""
"html-button-response","76","1916772","0.0-6.0-2.0-5.0-0.1","e96a4049306037f2184d7912cf53cd7036595698a6b4f27d9187707f23dc523f","arctic","swim","536","","E10","2","","","","swim-engagement","","","","","","","","","","","","","","3","enjoyment","",""
"html-button-response","77","1917931","0.0-6.0-2.0-5.0-0.2","e96a4049306037f2184d7912cf53cd7036595698a6b4f27d9187707f23dc523f","arctic","swim","895","","A2","1","","","","swim-engagement","","","","","","","","","","","","","","2","absorption","",""
"html-button-response","78","1918834","0.0-6.0-2.0-5.0-0.3","e96a4049306037f2184d7912cf53cd7036595698a6b4f27d9187707f23dc523f","arctic","swim","651","","A3","2","","","","swim-engagement","","","","","","","","","","","","","","3","absorption","",""
"html-button-response","79","1919985","0.0-6.0-2.0-5.0-0.4","e96a4049306037f2184d7912cf53cd7036595698a6b4f27d9187707f23dc523f","arctic","swim","899","","A1","1","","","","swim-engagement","","","","","","","","","","","","","","2","absorption","",""
"html-button-response","80","1921231","0.0-6.0-2.0-5.0-0.5","e96a4049306037f2184d7912cf53cd7036595698a6b4f27d9187707f23dc523f","arctic","swim","990","","EE1","2","","","","swim-engagement","","","","","","","","","","","","","","3","emo-engage","",""
"html-button-response","81","1922381","0.0-6.0-2.0-5.0-0.6","e96a4049306037f2184d7912cf53cd7036595698a6b4f27d9187707f23dc523f","arctic","swim","899","","EE5","2","","","","swim-engagement","","","","","","","","","","","","","","3","emo-engage","",""
"html-button-response","82","1923575","0.0-6.0-2.0-5.0-0.7","e96a4049306037f2184d7912cf53cd7036595698a6b4f27d9187707f23dc523f","arctic","swim","931","","E1","2","","","","swim-engagement","","","","","","","","","","","","","","3","enjoyment","",""
"html-button-response","83","1924383","0.0-6.0-2.0-5.0-0.8","e96a4049306037f2184d7912cf53cd7036595698a6b4f27d9187707f23dc523f","arctic","swim","555","","E6","2","","","","swim-engagement","","","","","","","","","","","","","","3","enjoyment","",""
"html-button-response","84","1926231","0.0-6.0-2.0-5.0-0.9","e96a4049306037f2184d7912cf53cd7036595698a6b4f27d9187707f23dc523f","arctic","swim","1586","","MS2","1","","","","swim-engagement","","","","","","","","","","","","","","2","mental-sim","",""
"html-button-response","85","1927385","0.0-6.0-2.0-5.0-0.10","e96a4049306037f2184d7912cf53cd7036595698a6b4f27d9187707f23dc523f","arctic","swim","902","","A5","2","","","","swim-engagement","","","","","","","","","","","","","","3","absorption","",""
"html-button-response","86","1929255","0.0-6.0-2.0-5.0-0.11","e96a4049306037f2184d7912cf53cd7036595698a6b4f27d9187707f23dc523f","arctic","swim","1611","","E8","2","","","","swim-engagement","","","","","","","","","","","","","","3","enjoyment","",""
"html-button-response","87","1930722","0.0-6.0-2.0-5.0-0.12","e96a4049306037f2184d7912cf53cd7036595698a6b4f27d9187707f23dc523f","arctic","swim","1215","","E7","2","","","","swim-engagement","","","","","","","","","","","","","","3","enjoyment","",""
"html-button-response","88","1932118","0.0-6.0-2.0-5.0-0.13","e96a4049306037f2184d7912cf53cd7036595698a6b4f27d9187707f23dc523f","arctic","swim","1144","","MS3","1","","","","swim-engagement","","","","","","","","","","","","","","2","mental-sim","",""
"html-button-response","89","1933914","0.0-6.0-2.0-5.0-0.14","e96a4049306037f2184d7912cf53cd7036595698a6b4f27d9187707f23dc523f","arctic","swim","1543","","EE3","2","","","","swim-engagement","","","","","","","","","","","","","","3","emo-engage","",""
"html-button-response","90","1935236","0.0-6.0-2.0-5.0-0.15","e96a4049306037f2184d7912cf53cd7036595698a6b4f27d9187707f23dc523f","arctic","swim","1070","","A4","2","","","","swim-engagement","","","","","","","","","","","","","","3","absorption","",""
"html-button-response","91","1936895","0.0-6.0-2.0-5.0-0.16","e96a4049306037f2184d7912cf53cd7036595698a6b4f27d9187707f23dc523f","arctic","swim","1407","","EE2","2","","","","swim-engagement","","","","","","","","","","","","","","3","emo-engage","",""
"html-button-response","92","1938961","0.0-6.0-2.0-5.0-0.17","e96a4049306037f2184d7912cf53cd7036595698a6b4f27d9187707f23dc523f","arctic","swim","1814","","EE4","2","","","","swim-engagement","","","","","","","","","","","","","","3","emo-engage","",""
"html-button-response","93","1941009","0.0-8.0","e96a4049306037f2184d7912cf53cd7036595698a6b4f27d9187707f23dc523f","arctic","swim","1796","","<p>Thank you for your responses.</p><p>You will now answer some demographic, hearing, and general health questions.</p>","0","","","","","","","","","","","","","","","","","","","","",""
"survey-multi-choice","94","1944452","0.0-9.0-0.0","e96a4049306037f2184d7912cf53cd7036595698a6b4f27d9187707f23dc523f","arctic","swim","3439","","","","","","","survey","","","","","","","","","","","","","{""Q0"":""Chrome""}","","","browser",""
"survey-text","95","1946990","0.0-9.0-1.0","e96a4049306037f2184d7912cf53cd7036595698a6b4f27d9187707f23dc523f","arctic","swim","2285.699999988079","","","","","","","survey","","","","","","","","","","","","","{""AGE"":""38""}","","","age","38"
"survey-multi-choice","96","1949205","0.0-9.0-2.0","e96a4049306037f2184d7912cf53cd7036595698a6b4f27d9187707f23dc523f","arctic","swim","1961","","","","","","","survey","","","","","","","","","","","","","{""Q0"":""Male""}","","","gender","Male"
"survey-multi-choice","97","1951162","0.0-9.0-4.0","e96a4049306037f2184d7912cf53cd7036595698a6b4f27d9187707f23dc523f","arctic","swim","1703","","","","","","","survey","","","","","","","","","","","","","{""Q0"":""Right""}","","","handedness","Right"
"survey-multi-choice","98","1953074","0.0-9.0-5.0","e96a4049306037f2184d7912cf53cd7036595698a6b4f27d9187707f23dc523f","arctic","swim","1652","","","","","","","survey","","","","","","","","","","","","","{""Q0"":""High school""}","","","education","High school"
"survey-text","99","1955988","0.0-10.0-0.0","e96a4049306037f2184d7912cf53cd7036595698a6b4f27d9187707f23dc523f","arctic","swim","2661.7000000476837","","","","","","","survey","","","","","","","","","","","","","{""L1"":""English""}","","","first-language","English"
"survey-text","100","1979533","0.0-10.0-1.0","e96a4049306037f2184d7912cf53cd7036595698a6b4f27d9187707f23dc523f","arctic","swim","23290.400000035763","","","","","","","survey","","","","","","","","","","","","","{""L2name"":""Danish"",""L2fluency"":""2"",""L3name"":""Swedish"",""L3fluency"":""3"",""L4name"":""Norwegian"",""L4fluency"":""2""}","","","additional-languages","{""L2name"":""Danish"",""L2fluency"":""2"",""L3name"":""Swedish"",""L3fluency"":""3"",""L4name"":""Norwegian"",""L4fluency"":""2""}"
"survey-multi-choice","101","1982290","0.0-10.0-2.0","e96a4049306037f2184d7912cf53cd7036595698a6b4f27d9187707f23dc523f","arctic","swim","2504","","","","","","","survey","","","","","","","","","","","","","{""Q0"":""No""}","","","hearing-aid","No"
"survey-multi-choice","102","1985339","0.0-10.0-3.0","e96a4049306037f2184d7912cf53cd7036595698a6b4f27d9187707f23dc523f","arctic","swim","2794","","","","","","","survey","","","","","","","","","","","","","{""Q0"":""Never""}","","","ringing-ears","Never"
"survey-multi-choice","103","1987454","0.0-10.0-5.0","e96a4049306037f2184d7912cf53cd7036595698a6b4f27d9187707f23dc523f","arctic","swim","1862","","","","","","","survey","","","","","","","","","","","","","{""Q0"":""No""}","","","neuro-disease","No"
"survey-multi-choice","104","1990280","0.0-10.0-7.0","e96a4049306037f2184d7912cf53cd7036595698a6b4f27d9187707f23dc523f","arctic","swim","2572","","","","","","","survey","","","","","","","","","","","","","{""Q0"":""No""}","","","take-meds","No"
"survey-text","105","1996196","0.0-10.0-9.0","e96a4049306037f2184d7912cf53cd7036595698a6b4f27d9187707f23dc523f","arctic","swim","5644.800000011921","","","","","","","survey","","","","","","","","","","","","","{""HC"":""Nope""}","","","health-concerns","Nope"
"html-button-response","106","1999039","0.0-11.0-0.0","e96a4049306037f2184d7912cf53cd7036595698a6b4f27d9187707f23dc523f","arctic","swim","2592","","<p>How would you describe your musical skills/experiences?</p>","3","","","","survey","","","","","","","","","","","","","","","","music-skill","4"
"survey-multi-choice","107","2001326","0.0-11.0-1.0","e96a4049306037f2184d7912cf53cd7036595698a6b4f27d9187707f23dc523f","arctic","swim","2034","","","","","","","survey","","","","","","","","","","","","","{""Q0"":""Yes""}","","","music-instrument","Yes"
"survey-text","108","2004511","0.0-11.0-2.0-0.0","e96a4049306037f2184d7912cf53cd7036595698a6b4f27d9187707f23dc523f","arctic","swim","2933.099999964237","","","","","","","survey","","","","","","","","","","","","","{""MEXP"":""20""}","","","music-training-yrs","20"
"html-button-response","109","2007045","0.0-12.0-0.0","e96a4049306037f2184d7912cf53cd7036595698a6b4f27d9187707f23dc523f","arctic","swim","2282","","<p>How would you describe your general hearing abilities?</p>","4","","","","survey","","","","","","","","","","","","","","","","ssq-01","5"
"html-button-response","110","2015478","0.0-12.0-1.0","e96a4049306037f2184d7912cf53cd7036595698a6b4f27d9187707f23dc523f","arctic","swim","8182","","<p>When you talk with someone at a place that strongly reverberates/echoes (e.g., in a church or train station),</br>can you understand what the person says?</p>","6","","","","survey","","","","","","","","","","","","","","","","ssq-02","6"
"html-button-response","111","2018848","0.0-12.0-2.0","e96a4049306037f2184d7912cf53cd7036595698a6b4f27d9187707f23dc523f","arctic","swim","3118","","<p>When you are with a group (~5 people) in a lively restaurant, can you follow the group's conversation?</p>","6","","","","survey","","","","","","","","","","","","","","","","ssq-03","6"
"html-button-response","112","2025439","0.0-12.0-3.0","e96a4049306037f2184d7912cf53cd7036595698a6b4f27d9187707f23dc523f","arctic","swim","6338","","<p>Based on the sound of a bus or truck, can you tell whether it is moving towards or away from you?</p>","7","","","","survey","","","","","","","","","","","","","","","","ssq-04","7"
"html-button-response","113","2029003","0.0-12.0-4.0","e96a4049306037f2184d7912cf53cd7036595698a6b4f27d9187707f23dc523f","arctic","swim","3310","","<p>When you are in an unknown environment, can you tell from which direction a brief sound originates?</p>","7","","","","survey","","","","","","","","","","","","","","","","ssq-05","7"
"html-button-response","114","2033480","0.0-12.0-5.0","e96a4049306037f2184d7912cf53cd7036595698a6b4f27d9187707f23dc523f","arctic","swim","4225","","<p>Are you able to ignore distracting sounds when you concentrate on a specific aspect of your acoustic surrounding?</p>","6","","","","survey","","","","","","","","","","","","","","","","ssq-06","6"
"fullscreen","115","2034737","0.0-13.0","e96a4049306037f2184d7912cf53cd7036595698a6b4f27d9187707f23dc523f","arctic","swim","","","","","","","","","true","","","","","","","","","","","","","","","",""
