"trial_type","trial_index","time_elapsed","internal_node_id","ParticipantID","firstStory","scramStory","rt","url","stimulus","button_pressed","key_press","correctRESP","correct","designation","success","letterStim","letterType","ONSET","TIMEOUT","CONDITION","Participant","ONSET_ACTUAL","RT","RESP","ACC","STORY","responses","response","type","surveyQuestion","QRESP"
"pavlovia","0","2","0.0-0.0","0aa81ea1620187e762a1bcc487bfb2a7187fa52936232963eea7c363fc353fb2","swim","swim","","","","","","","","","","","","","","","","","","","","","","","","",""
"external-html","1","21191","0.0-1.0","0aa81ea1620187e762a1bcc487bfb2a7187fa52936232963eea7c363fc353fb2","swim","swim","21049","consent/consent_updated.html","","","","","","","","","","","","","","","","","","","","","","",""
"html-button-response","2","42775","0.0-2.0-0.0","0aa81ea1620187e762a1bcc487bfb2a7187fa52936232963eea7c363fc353fb2","swim","swim","21583","","<p>Before we begin the main task, you will complete a short volume calibration and headphone check.</p><p>Please make sure you are in a quiet listening environment, that you are wearing headphones, and that your computer's volume is turned on.<p></p>","0","","","","","","","","","","","","","","","","","","","","",""
"html-button-response","3","45799","0.0-2.0-1.0","0aa81ea1620187e762a1bcc487bfb2a7187fa52936232963eea7c363fc353fb2","swim","swim","2772","","<p>The volume calibration will be first.</p><p>You will hear a thirty-second noise. Please adjust your computer's volume so that this noise is being presented at a comfortable level.<p></p>","0","","","","","","","","","","","","","","","","","","","","",""
"audio-button-response","4","47935","0.0-2.0-2.0","0aa81ea1620187e762a1bcc487bfb2a7187fa52936232963eea7c363fc353fb2","swim","swim","1885","","audio/volumetest.mp3","0","","","","","","","","","","","","","","","","","","","","",""
"html-keyboard-response","5","54944","0.0-3.0-0.0","0aa81ea1620187e762a1bcc487bfb2a7187fa52936232963eea7c363fc353fb2","swim","swim","7009","","<p>You will now complete a short headphone check.</p><p>On each trial, you will hear three tones. One of these tones will be quieter than the others. Your task is to identify whether the quiet tone occurred first, second, or third.</p><p>There are six trials in total.<p></p><p></p>(Press SPACEBAR to begin)","","32","","","","","","","","","","","","","","","","","","","",""
"html-keyboard-response","6","55695","0.0-3.0-1.0-0.0","0aa81ea1620187e762a1bcc487bfb2a7187fa52936232963eea7c363fc353fb2","swim","swim","null","","<div style=""font-size:60px;"">+</div>","","null","","","","","","","","","","","","","","","","","","","",""
"audio-button-response","7","59583","0.0-3.0-1.0-1.0","0aa81ea1620187e762a1bcc487bfb2a7187fa52936232963eea7c363fc353fb2","swim","swim","3886","","audio/t2_1.mp3","1","","1","1","headphone-test","","","","","","","","","","","","","","","","",""
"html-keyboard-response","8","60084","0.0-3.0-1.0-2.0","0aa81ea1620187e762a1bcc487bfb2a7187fa52936232963eea7c363fc353fb2","swim","swim","null","","<p>Correct</p>","","null","","","","","","","","","","","","","","","","","","","",""
"html-keyboard-response","9","60586","0.0-3.0-1.0-0.1","0aa81ea1620187e762a1bcc487bfb2a7187fa52936232963eea7c363fc353fb2","swim","swim","null","","<div style=""font-size:60px;"">+</div>","","null","","","","","","","","","","","","","","","","","","","",""
"audio-button-response","10","64351","0.0-3.0-1.0-1.1","0aa81ea1620187e762a1bcc487bfb2a7187fa52936232963eea7c363fc353fb2","swim","swim","3764","","audio/t1_2.mp3","0","","0","1","headphone-test","","","","","","","","","","","","","","","","",""
"html-keyboard-response","11","64851","0.0-3.0-1.0-2.1","0aa81ea1620187e762a1bcc487bfb2a7187fa52936232963eea7c363fc353fb2","swim","swim","null","","<p>Correct</p>","","null","","","","","","","","","","","","","","","","","","","",""
"html-keyboard-response","12","65352","0.0-3.0-1.0-0.2","0aa81ea1620187e762a1bcc487bfb2a7187fa52936232963eea7c363fc353fb2","swim","swim","null","","<div style=""font-size:60px;"">+</div>","","null","","","","","","","","","","","","","","","","","","","",""
"audio-button-response","13","69071","0.0-3.0-1.0-1.2","0aa81ea1620187e762a1bcc487bfb2a7187fa52936232963eea7c363fc353fb2","swim","swim","3717","","audio/t1_1.mp3","0","","0","1","headphone-test","","","","","","","","","","","","","","","","",""
"html-keyboard-response","14","69571","0.0-3.0-1.0-2.2","0aa81ea1620187e762a1bcc487bfb2a7187fa52936232963eea7c363fc353fb2","swim","swim","null","","<p>Correct</p>","","null","","","","","","","","","","","","","","","","","","","",""
"html-keyboard-response","15","70072","0.0-3.0-1.0-0.3","0aa81ea1620187e762a1bcc487bfb2a7187fa52936232963eea7c363fc353fb2","swim","swim","null","","<div style=""font-size:60px;"">+</div>","","null","","","","","","","","","","","","","","","","","","","",""
"audio-button-response","16","74079","0.0-3.0-1.0-1.3","0aa81ea1620187e762a1bcc487bfb2a7187fa52936232963eea7c363fc353fb2","swim","swim","4006","","audio/t3_1.mp3","2","","2","1","headphone-test","","","","","","","","","","","","","","","","",""
"html-keyboard-response","17","74580","0.0-3.0-1.0-2.3","0aa81ea1620187e762a1bcc487bfb2a7187fa52936232963eea7c363fc353fb2","swim","swim","null","","<p>Correct</p>","","null","","","","","","","","","","","","","","","","","","","",""
"html-keyboard-response","18","75081","0.0-3.0-1.0-0.4","0aa81ea1620187e762a1bcc487bfb2a7187fa52936232963eea7c363fc353fb2","swim","swim","null","","<div style=""font-size:60px;"">+</div>","","null","","","","","","","","","","","","","","","","","","","",""
"audio-button-response","19","78814","0.0-3.0-1.0-1.4","0aa81ea1620187e762a1bcc487bfb2a7187fa52936232963eea7c363fc353fb2","swim","swim","3732","","audio/t2_2.mp3","1","","1","1","headphone-test","","","","","","","","","","","","","","","","",""
"html-keyboard-response","20","79315","0.0-3.0-1.0-2.4","0aa81ea1620187e762a1bcc487bfb2a7187fa52936232963eea7c363fc353fb2","swim","swim","null","","<p>Correct</p>","","null","","","","","","","","","","","","","","","","","","","",""
"html-keyboard-response","21","79817","0.0-3.0-1.0-0.5","0aa81ea1620187e762a1bcc487bfb2a7187fa52936232963eea7c363fc353fb2","swim","swim","null","","<div style=""font-size:60px;"">+</div>","","null","","","","","","","","","","","","","","","","","","","",""
"audio-button-response","22","83375","0.0-3.0-1.0-1.5","0aa81ea1620187e762a1bcc487bfb2a7187fa52936232963eea7c363fc353fb2","swim","swim","3557","","audio/t3_2.mp3","2","","2","1","headphone-test","","","","","","","","","","","","","","","","",""
"html-keyboard-response","23","83877","0.0-3.0-1.0-2.5","0aa81ea1620187e762a1bcc487bfb2a7187fa52936232963eea7c363fc353fb2","swim","swim","null","","<p>Correct</p>","","null","","","","","","","","","","","","","","","","","","","",""
"fullscreen","24","85872","0.0-4.0","0aa81ea1620187e762a1bcc487bfb2a7187fa52936232963eea7c363fc353fb2","swim","swim","","","","","","","","","true","","","","","","","","","","","","","","","",""
"html-button-response","25","93726","0.0-5.0-0.0","0aa81ea1620187e762a1bcc487bfb2a7187fa52936232963eea7c363fc353fb2","swim","swim","7854","","<p>There are two blocks to this experiment.</p><p>In each block, you will hear a ~13.5 minute story. One of the stories will be scrambled. Please listen carefully to both stories and understand them as best you can.</p><p>After each story, you will be asked some questions to assess your comprehension.</p>","0","","","","","","","","","","","","","","","","","","","","",""
"html-button-response","26","126479","0.0-5.0-1.0","0aa81ea1620187e762a1bcc487bfb2a7187fa52936232963eea7c363fc353fb2","swim","swim","32751","","<p>During each story, there will be an additional task.</p><p>A letter will occasionally appear on the screen.</br>Your job is to - as quickly as you can - decide whether the letter is lowercase or uppercase and press one of two keys on the keyboard:</p><p>If the letter is <b>lowercase</b>, press key &lt;<b>x</b>&gt;.</p><p>If the letter is <b>uppercase</b>, press key &lt;<b>m</b>&gt;.</p>","0","","","","","","","","","","","","","","","","","","","","",""
"html-keyboard-response","27","134367","0.0-5.0-2.0","0aa81ea1620187e762a1bcc487bfb2a7187fa52936232963eea7c363fc353fb2","swim","swim","7888","","<p>Because we want your responses to be as quick as possible, please keep your index fingers over the keys while listening.</p><p>Each block lasts about 20 minutes.</p><p><b>Press &lt;x&gt; or &lt;m&gt; to start the first block!</b></p>","","77","","","","","","","","","","","","","","","","","","","",""
"html-keyboard-response","28","134868","0.0-7.0-0.0-0.0","0aa81ea1620187e762a1bcc487bfb2a7187fa52936232963eea7c363fc353fb2","swim","swim","null","","<div style=""font-size:60px;"" tabindex=""0"">+</div>","","null","","","","","","","","","","","","","","","","","","","",""
"dual-task","null","null","null","","swim","swim","601.5","","t","null","88","88","1","swim-dual-task","","t","lowercase","16000","0","5","0aa81ea1620187e762a1bcc487bfb2a7187fa52936232963eea7c363fc353fb2","16001","601.5","88","1","swim","","","","",""
"dual-task","null","null","null","","swim","swim","641.7999999523163","","r","null","88","88","1","swim-dual-task","","r","lowercase","26000","0","5","0aa81ea1620187e762a1bcc487bfb2a7187fa52936232963eea7c363fc353fb2","26000.700000047684","641.7999999523163","88","1","swim","","","","",""
"dual-task","null","null","null","","swim","swim","434.09999990463257","","F","null","77","77","1","swim-dual-task","","F","uppercase","38000","0","5","0aa81ea1620187e762a1bcc487bfb2a7187fa52936232963eea7c363fc353fb2","38000.300000190735","434.09999990463257","77","1","swim","","","","",""
"dual-task","null","null","null","","swim","swim","442.2999999523163","","a","null","88","88","1","swim-dual-task","","a","lowercase","48000","0","5","0aa81ea1620187e762a1bcc487bfb2a7187fa52936232963eea7c363fc353fb2","48000.10000014305","442.2999999523163","88","1","swim","","","","",""
"dual-task","null","null","null","","swim","swim","457.39999985694885","","R","null","77","77","1","swim-dual-task","","R","uppercase","54000","0","5","0aa81ea1620187e762a1bcc487bfb2a7187fa52936232963eea7c363fc353fb2","53999.90000009537","457.39999985694885","77","1","swim","","","","",""
"dual-task","null","null","null","","swim","swim","513.9000000953674","","G","null","77","77","1","swim-dual-task","","G","uppercase","64000","0","5","0aa81ea1620187e762a1bcc487bfb2a7187fa52936232963eea7c363fc353fb2","64000.60000014305","513.9000000953674","77","1","swim","","","","",""
"dual-task","null","null","null","","swim","swim","497","","H","null","77","77","1","swim-dual-task","","H","uppercase","74000","0","5","0aa81ea1620187e762a1bcc487bfb2a7187fa52936232963eea7c363fc353fb2","74000.5","497","77","1","swim","","","","",""
"dual-task","null","null","null","","swim","swim","449.5","","F","null","77","77","1","swim-dual-task","","F","uppercase","80000","0","5","0aa81ea1620187e762a1bcc487bfb2a7187fa52936232963eea7c363fc353fb2","80000.80000019073","449.5","77","1","swim","","","","",""
"dual-task","null","null","null","","swim","swim","458.39999985694885","","T","null","77","77","1","swim-dual-task","","T","uppercase","92000","0","5","0aa81ea1620187e762a1bcc487bfb2a7187fa52936232963eea7c363fc353fb2","92000","458.39999985694885","77","1","swim","","","","",""
"dual-task","null","null","null","","swim","swim","466.09999990463257","","e","null","88","88","1","swim-dual-task","","e","lowercase","104000","0","5","0aa81ea1620187e762a1bcc487bfb2a7187fa52936232963eea7c363fc353fb2","104000.20000004768","466.09999990463257","88","1","swim","","","","",""
"dual-task","null","null","null","","swim","swim","480.89999985694885","","b","null","88","88","1","swim-dual-task","","b","lowercase","112000","0","5","0aa81ea1620187e762a1bcc487bfb2a7187fa52936232963eea7c363fc353fb2","112000.60000014305","480.89999985694885","88","1","swim","","","","",""
"dual-task","null","null","null","","swim","swim","450.2000000476837","","G","null","77","77","1","swim-dual-task","","G","uppercase","126000","0","5","0aa81ea1620187e762a1bcc487bfb2a7187fa52936232963eea7c363fc353fb2","125999.90000009537","450.2000000476837","77","1","swim","","","","",""
"dual-task","null","null","null","","swim","swim","433.89999985694885","","T","null","77","77","1","swim-dual-task","","T","uppercase","138000","0","5","0aa81ea1620187e762a1bcc487bfb2a7187fa52936232963eea7c363fc353fb2","138000.5","433.89999985694885","77","1","swim","","","","",""
"dual-task","null","null","null","","swim","swim","577.1000001430511","","r","null","88","88","1","swim-dual-task","","r","lowercase","144000","0","5","0aa81ea1620187e762a1bcc487bfb2a7187fa52936232963eea7c363fc353fb2","144000.20000004768","577.1000001430511","88","1","swim","","","","",""
"dual-task","null","null","null","","swim","swim","434.7000000476837","","F","null","77","77","1","swim-dual-task","","F","uppercase","156000","0","5","0aa81ea1620187e762a1bcc487bfb2a7187fa52936232963eea7c363fc353fb2","155999.90000009537","434.7000000476837","77","1","swim","","","","",""
"dual-task","null","null","null","","swim","swim","449.5","","Q","null","77","77","1","swim-dual-task","","Q","uppercase","168000","0","5","0aa81ea1620187e762a1bcc487bfb2a7187fa52936232963eea7c363fc353fb2","168000.80000019073","449.5","77","1","swim","","","","",""
"dual-task","null","null","null","","swim","swim","458.10000014305115","","f","null","88","88","1","swim-dual-task","","f","lowercase","178000","0","5","0aa81ea1620187e762a1bcc487bfb2a7187fa52936232963eea7c363fc353fb2","178000.20000004768","458.10000014305115","88","1","swim","","","","",""
"dual-task","null","null","null","","swim","swim","576.2999999523163","","b","null","88","88","1","swim-dual-task","","b","lowercase","186000","0","5","0aa81ea1620187e762a1bcc487bfb2a7187fa52936232963eea7c363fc353fb2","186001.10000014305","576.2999999523163","88","1","swim","","","","",""
"dual-task","null","null","null","","swim","swim","353.80000019073486","","D","null","77","77","1","swim-dual-task","","D","uppercase","194000","0","5","0aa81ea1620187e762a1bcc487bfb2a7187fa52936232963eea7c363fc353fb2","194000.5","353.80000019073486","77","1","swim","","","","",""
"dual-task","null","null","null","","swim","swim","488.90000009536743","","t","null","88","88","1","swim-dual-task","","t","lowercase","204000","0","5","0aa81ea1620187e762a1bcc487bfb2a7187fa52936232963eea7c363fc353fb2","204001.40000009537","488.90000009536743","88","1","swim","","","","",""
"dual-task","null","null","null","","swim","swim","520.7000000476837","","H","null","77","77","1","swim-dual-task","","H","uppercase","212000","0","5","0aa81ea1620187e762a1bcc487bfb2a7187fa52936232963eea7c363fc353fb2","212000.5","520.7000000476837","77","1","swim","","","","",""
"dual-task","null","null","null","","swim","swim","426.2000000476837","","D","null","77","77","1","swim-dual-task","","D","uppercase","224000","0","5","0aa81ea1620187e762a1bcc487bfb2a7187fa52936232963eea7c363fc353fb2","224000","426.2000000476837","77","1","swim","","","","",""
"dual-task","null","null","null","","swim","swim","496.5","","f","null","88","88","1","swim-dual-task","","f","lowercase","236000","0","5","0aa81ea1620187e762a1bcc487bfb2a7187fa52936232963eea7c363fc353fb2","236001.60000014305","496.5","88","1","swim","","","","",""
"dual-task","null","null","null","","swim","swim","529.4000000953674","","g","null","88","88","1","swim-dual-task","","g","lowercase","248000","0","5","0aa81ea1620187e762a1bcc487bfb2a7187fa52936232963eea7c363fc353fb2","248000.70000004768","529.4000000953674","88","1","swim","","","","",""
"dual-task","null","null","null","","swim","swim","536.7000000476837","","H","null","77","77","1","swim-dual-task","","H","uppercase","254000","0","5","0aa81ea1620187e762a1bcc487bfb2a7187fa52936232963eea7c363fc353fb2","254000.40000009537","536.7000000476837","77","1","swim","","","","",""
"dual-task","null","null","null","","swim","swim","441.60000014305115","","A","null","77","77","1","swim-dual-task","","A","uppercase","266000","0","5","0aa81ea1620187e762a1bcc487bfb2a7187fa52936232963eea7c363fc353fb2","266000.40000009537","441.60000014305115","77","1","swim","","","","",""
"dual-task","null","null","null","","swim","swim","489.39999985694885","","N","null","77","77","1","swim-dual-task","","N","uppercase","276000","0","5","0aa81ea1620187e762a1bcc487bfb2a7187fa52936232963eea7c363fc353fb2","276000.7000000477","489.39999985694885","77","1","swim","","","","",""
"dual-task","null","null","null","","swim","swim","594","","g","null","88","88","1","swim-dual-task","","g","lowercase","290000","0","5","0aa81ea1620187e762a1bcc487bfb2a7187fa52936232963eea7c363fc353fb2","289999.90000009537","594","88","1","swim","","","","",""
"dual-task","null","null","null","","swim","swim","456.7999999523163","","A","null","77","77","1","swim-dual-task","","A","uppercase","298000","0","5","0aa81ea1620187e762a1bcc487bfb2a7187fa52936232963eea7c363fc353fb2","298000.40000009537","456.7999999523163","77","1","swim","","","","",""
"dual-task","null","null","null","","swim","swim","450.2000000476837","","H","null","77","77","1","swim-dual-task","","H","uppercase","308000","0","5","0aa81ea1620187e762a1bcc487bfb2a7187fa52936232963eea7c363fc353fb2","307999.90000009537","450.2000000476837","77","1","swim","","","","",""
"dual-task","null","null","null","","swim","swim","521.7999999523163","","d","null","88","88","1","swim-dual-task","","d","lowercase","320000","0","5","0aa81ea1620187e762a1bcc487bfb2a7187fa52936232963eea7c363fc353fb2","320000.40000009537","521.7999999523163","88","1","swim","","","","",""
"dual-task","null","null","null","","swim","swim","496.90000009536743","","E","null","77","77","1","swim-dual-task","","E","uppercase","332000","0","5","0aa81ea1620187e762a1bcc487bfb2a7187fa52936232963eea7c363fc353fb2","332001.10000014305","496.90000009536743","77","1","swim","","","","",""
"dual-task","null","null","null","","swim","swim","423.90000009536743","","R","null","77","77","1","swim-dual-task","","R","uppercase","342000","0","5","0aa81ea1620187e762a1bcc487bfb2a7187fa52936232963eea7c363fc353fb2","342001.40000009537","423.90000009536743","77","1","swim","","","","",""
"dual-task","null","null","null","","swim","swim","577.9000000953674","","h","null","88","88","1","swim-dual-task","","h","lowercase","354000","0","5","0aa81ea1620187e762a1bcc487bfb2a7187fa52936232963eea7c363fc353fb2","354000","577.9000000953674","88","1","swim","","","","",""
"dual-task","null","null","null","","swim","swim","432.5","","A","null","77","77","1","swim-dual-task","","A","uppercase","362000","0","5","0aa81ea1620187e762a1bcc487bfb2a7187fa52936232963eea7c363fc353fb2","362000.7000000477","432.5","77","1","swim","","","","",""
"dual-task","null","null","null","","swim","swim","512.7999999523163","","D","null","77","77","1","swim-dual-task","","D","uppercase","370000","0","5","0aa81ea1620187e762a1bcc487bfb2a7187fa52936232963eea7c363fc353fb2","370001.40000009537","512.7999999523163","77","1","swim","","","","",""
"dual-task","null","null","null","","swim","swim","632.7999999523163","","h","null","88","88","1","swim-dual-task","","h","lowercase","380000","0","5","0aa81ea1620187e762a1bcc487bfb2a7187fa52936232963eea7c363fc353fb2","380001.40000009537","632.7999999523163","88","1","swim","","","","",""
"dual-task","null","null","null","","swim","swim","489","","r","null","88","88","1","swim-dual-task","","r","lowercase","388000","0","5","0aa81ea1620187e762a1bcc487bfb2a7187fa52936232963eea7c363fc353fb2","388000.2000000477","489","88","1","swim","","","","",""
"dual-task","null","null","null","","swim","swim","520.5999999046326","","a","null","88","88","1","swim-dual-task","","a","lowercase","402000","0","5","0aa81ea1620187e762a1bcc487bfb2a7187fa52936232963eea7c363fc353fb2","402001.2000000477","520.5999999046326","88","1","swim","","","","",""
"dual-task","null","null","null","","swim","swim","600.8999998569489","","T","null","77","77","1","swim-dual-task","","T","uppercase","412000","0","5","0aa81ea1620187e762a1bcc487bfb2a7187fa52936232963eea7c363fc353fb2","412001.30000019073","600.8999998569489","77","1","swim","","","","",""
"dual-task","null","null","null","","swim","swim","504.7000000476837","","Q","null","77","77","1","swim-dual-task","","Q","uppercase","422000","0","5","0aa81ea1620187e762a1bcc487bfb2a7187fa52936232963eea7c363fc353fb2","422000.10000014305","504.7000000476837","77","1","swim","","","","",""
"dual-task","null","null","null","","swim","swim","488.2000000476837","","D","null","77","77","1","swim-dual-task","","D","uppercase","432000","0","5","0aa81ea1620187e762a1bcc487bfb2a7187fa52936232963eea7c363fc353fb2","432001.7000000477","488.2000000476837","77","1","swim","","","","",""
"dual-task","null","null","null","","swim","swim","504.7999999523163","","A","null","77","77","1","swim-dual-task","","A","uppercase","444000","0","5","0aa81ea1620187e762a1bcc487bfb2a7187fa52936232963eea7c363fc353fb2","444001.10000014305","504.7999999523163","77","1","swim","","","","",""
"dual-task","null","null","null","","swim","swim","584.7999999523163","","d","null","88","88","1","swim-dual-task","","d","lowercase","450000","0","5","0aa81ea1620187e762a1bcc487bfb2a7187fa52936232963eea7c363fc353fb2","450000.10000014305","584.7999999523163","88","1","swim","","","","",""
"dual-task","null","null","null","","swim","swim","448.7999999523163","","F","null","77","77","1","swim-dual-task","","F","uppercase","464000","0","5","0aa81ea1620187e762a1bcc487bfb2a7187fa52936232963eea7c363fc353fb2","464001.10000014305","448.7999999523163","77","1","swim","","","","",""
"dual-task","null","null","null","","swim","swim","512.5","","e","null","88","88","1","swim-dual-task","","e","lowercase","470000","0","5","0aa81ea1620187e762a1bcc487bfb2a7187fa52936232963eea7c363fc353fb2","470000.5","512.5","88","1","swim","","","","",""
"dual-task","null","null","null","","swim","swim","497.19999980926514","","B","null","77","77","1","swim-dual-task","","B","uppercase","482000","0","5","0aa81ea1620187e762a1bcc487bfb2a7187fa52936232963eea7c363fc353fb2","482000.80000019073","497.19999980926514","77","1","swim","","","","",""
"dual-task","null","null","null","","swim","swim","400","","R","null","77","77","1","swim-dual-task","","R","uppercase","490000","0","5","0aa81ea1620187e762a1bcc487bfb2a7187fa52936232963eea7c363fc353fb2","490001","400","77","1","swim","","","","",""
"dual-task","null","null","null","","swim","swim","456.19999980926514","","b","null","88","88","1","swim-dual-task","","b","lowercase","500000","0","5","0aa81ea1620187e762a1bcc487bfb2a7187fa52936232963eea7c363fc353fb2","500001.80000019073","456.19999980926514","88","1","swim","","","","",""
"dual-task","null","null","null","","swim","swim","384.7000000476837","","R","null","77","77","1","swim-dual-task","","R","uppercase","506000","0","5","0aa81ea1620187e762a1bcc487bfb2a7187fa52936232963eea7c363fc353fb2","506000.10000014305","384.7000000476837","77","1","swim","","","","",""
"dual-task","null","null","null","","swim","swim","465.30000019073486","","r","null","88","88","1","swim-dual-task","","r","lowercase","516000","0","5","0aa81ea1620187e762a1bcc487bfb2a7187fa52936232963eea7c363fc353fb2","516000.5","465.30000019073486","88","1","swim","","","","",""
"dual-task","null","null","null","","swim","swim","527.7999999523163","","q","null","88","88","1","swim-dual-task","","q","lowercase","530000","0","5","0aa81ea1620187e762a1bcc487bfb2a7187fa52936232963eea7c363fc353fb2","530002","527.7999999523163","88","1","swim","","","","",""
"dual-task","null","null","null","","swim","swim","465.60000014305115","","h","null","88","88","1","swim-dual-task","","h","lowercase","542000","0","5","0aa81ea1620187e762a1bcc487bfb2a7187fa52936232963eea7c363fc353fb2","542000.100000143","465.60000014305115","88","1","swim","","","","",""
"dual-task","null","null","null","","swim","swim","561.6000001430511","","g","null","88","88","1","swim-dual-task","","g","lowercase","552000","0","5","0aa81ea1620187e762a1bcc487bfb2a7187fa52936232963eea7c363fc353fb2","552000","561.6000001430511","88","1","swim","","","","",""
"dual-task","null","null","null","","swim","swim","536.4000000953674","","d","null","88","88","1","swim-dual-task","","d","lowercase","564000","0","5","0aa81ea1620187e762a1bcc487bfb2a7187fa52936232963eea7c363fc353fb2","564001.5","536.4000000953674","88","1","swim","","","","",""
"dual-task","null","null","null","","swim","swim","512.8999998569489","","G","null","77","77","1","swim-dual-task","","G","uppercase","572000","0","5","0aa81ea1620187e762a1bcc487bfb2a7187fa52936232963eea7c363fc353fb2","572000.100000143","512.8999998569489","77","1","swim","","","","",""
"dual-task","null","null","null","","swim","swim","432.60000014305115","","B","null","77","77","1","swim-dual-task","","B","uppercase","586000","0","5","0aa81ea1620187e762a1bcc487bfb2a7187fa52936232963eea7c363fc353fb2","586001.100000143","432.60000014305115","77","1","swim","","","","",""
"dual-task","null","null","null","","swim","swim","464.80000019073486","","N","null","77","77","1","swim-dual-task","","N","uppercase","598000","0","5","0aa81ea1620187e762a1bcc487bfb2a7187fa52936232963eea7c363fc353fb2","598001","464.80000019073486","77","1","swim","","","","",""
"dual-task","null","null","null","","swim","swim","480.10000014305115","","N","null","77","77","1","swim-dual-task","","N","uppercase","610000","0","5","0aa81ea1620187e762a1bcc487bfb2a7187fa52936232963eea7c363fc353fb2","610001.600000143","480.10000014305115","77","1","swim","","","","",""
"dual-task","null","null","null","","swim","swim","367.5","","n","null","77","88","0","swim-dual-task","","n","lowercase","616000","0","5","0aa81ea1620187e762a1bcc487bfb2a7187fa52936232963eea7c363fc353fb2","616001.100000143","367.5","77","0","swim","","","","",""
"dual-task","null","null","null","","swim","swim","512.5","","q","null","88","88","1","swim-dual-task","","q","lowercase","630000","0","5","0aa81ea1620187e762a1bcc487bfb2a7187fa52936232963eea7c363fc353fb2","630001","512.5","88","1","swim","","","","",""
"dual-task","null","null","null","","swim","swim","449.30000019073486","","e","null","88","88","1","swim-dual-task","","e","lowercase","642000","0","5","0aa81ea1620187e762a1bcc487bfb2a7187fa52936232963eea7c363fc353fb2","642000.4000000954","449.30000019073486","88","1","swim","","","","",""
"dual-task","null","null","null","","swim","swim","551.7000000476837","","b","null","88","88","1","swim-dual-task","","b","lowercase","650000","0","5","0aa81ea1620187e762a1bcc487bfb2a7187fa52936232963eea7c363fc353fb2","650001","551.7000000476837","88","1","swim","","","","",""
"dual-task","null","null","null","","swim","swim","457.40000009536743","","Q","null","77","77","1","swim-dual-task","","Q","uppercase","658000","0","5","0aa81ea1620187e762a1bcc487bfb2a7187fa52936232963eea7c363fc353fb2","658000.4000000954","457.40000009536743","77","1","swim","","","","",""
"dual-task","null","null","null","","swim","swim","422.90000009536743","","n","null","88","88","1","swim-dual-task","","n","lowercase","666000","0","5","0aa81ea1620187e762a1bcc487bfb2a7187fa52936232963eea7c363fc353fb2","666002","422.90000009536743","88","1","swim","","","","",""
"dual-task","null","null","null","","swim","swim","440","","B","null","77","77","1","swim-dual-task","","B","uppercase","674000","0","5","0aa81ea1620187e762a1bcc487bfb2a7187fa52936232963eea7c363fc353fb2","674002","440","77","1","swim","","","","",""
"dual-task","null","null","null","","swim","swim","569","","t","null","88","88","1","swim-dual-task","","t","lowercase","684000","0","5","0aa81ea1620187e762a1bcc487bfb2a7187fa52936232963eea7c363fc353fb2","684000.600000143","569","88","1","swim","","","","",""
"dual-task","null","null","null","","swim","swim","456.60000014305115","","h","null","88","88","1","swim-dual-task","","h","lowercase","696000","0","5","0aa81ea1620187e762a1bcc487bfb2a7187fa52936232963eea7c363fc353fb2","696000.9000000954","456.60000014305115","88","1","swim","","","","",""
"dual-task","null","null","null","","swim","swim","463.2000000476837","","g","null","88","88","1","swim-dual-task","","g","lowercase","702000","0","5","0aa81ea1620187e762a1bcc487bfb2a7187fa52936232963eea7c363fc353fb2","702001.7000000477","463.2000000476837","88","1","swim","","","","",""
"dual-task","null","null","null","","swim","swim","505","","e","null","88","88","1","swim-dual-task","","e","lowercase","716000","0","5","0aa81ea1620187e762a1bcc487bfb2a7187fa52936232963eea7c363fc353fb2","716000.5","505","88","1","swim","","","","",""
"dual-task","null","null","null","","swim","swim","544.5999999046326","","Q","null","77","77","1","swim-dual-task","","Q","uppercase","726000","0","5","0aa81ea1620187e762a1bcc487bfb2a7187fa52936232963eea7c363fc353fb2","726000.9000000954","544.5999999046326","77","1","swim","","","","",""
"dual-task","null","null","null","","swim","swim","455.90000009536743","","B","null","77","77","1","swim-dual-task","","B","uppercase","732000","0","5","0aa81ea1620187e762a1bcc487bfb2a7187fa52936232963eea7c363fc353fb2","732000.9000000954","455.90000009536743","77","1","swim","","","","",""
"dual-task","null","null","null","","swim","swim","496.60000014305115","","f","null","88","88","1","swim-dual-task","","f","lowercase","740000","0","5","0aa81ea1620187e762a1bcc487bfb2a7187fa52936232963eea7c363fc353fb2","740000.9000000954","496.60000014305115","88","1","swim","","","","",""
"dual-task","null","null","null","","swim","swim","536.0999999046326","","E","null","77","77","1","swim-dual-task","","E","uppercase","752000","0","5","0aa81ea1620187e762a1bcc487bfb2a7187fa52936232963eea7c363fc353fb2","752001.4000000954","536.0999999046326","77","1","swim","","","","",""
"dual-task","null","null","null","","swim","swim","488.60000014305115","","d","null","88","88","1","swim-dual-task","","d","lowercase","764000","0","5","0aa81ea1620187e762a1bcc487bfb2a7187fa52936232963eea7c363fc353fb2","764001.100000143","488.60000014305115","88","1","swim","","","","",""
"dual-task","null","null","null","","swim","swim","480.7999999523163","","q","null","88","88","1","swim-dual-task","","q","lowercase","776000","0","5","0aa81ea1620187e762a1bcc487bfb2a7187fa52936232963eea7c363fc353fb2","776000.7000000477","480.7999999523163","88","1","swim","","","","",""
"dual-task","null","null","null","","swim","swim","470.89999985694885","","q","null","88","88","1","swim-dual-task","","q","lowercase","786000","0","5","0aa81ea1620187e762a1bcc487bfb2a7187fa52936232963eea7c363fc353fb2","786001.5","470.89999985694885","88","1","swim","","","","",""
"dual-task","null","null","null","","swim","swim","479.59999990463257","","n","null","88","88","1","swim-dual-task","","n","lowercase","798000","0","5","0aa81ea1620187e762a1bcc487bfb2a7187fa52936232963eea7c363fc353fb2","798001.9000000954","479.59999990463257","88","1","swim","","","","",""
"audio-keyboard-response","29","944850","0.0-7.0-0.0-1.0","0aa81ea1620187e762a1bcc487bfb2a7187fa52936232963eea7c363fc353fb2","swim","swim","null","","audio/story_swim_scrambled.mp3","","null","","","","","","","","","","","","","","","","","","","",""
"html-button-response","30","947294","0.0-7.0-0.0-2.0","0aa81ea1620187e762a1bcc487bfb2a7187fa52936232963eea7c363fc353fb2","swim","swim","2444","","<p>This concludes the story. Thank you for listening.</p><p>You will now answer some questions about the content of the story.</p>","0","","","","","","","","","","","","","","","","","","","","",""
"survey-multi-choice","31","959022","0.0-7.0-0.0-3.0-0.0","0aa81ea1620187e762a1bcc487bfb2a7187fa52936232963eea7c363fc353fb2","swim","swim","11727","","<b>What was the final step of the first swim test in the pool?</b>","","","","1","swim-comprehension","","","","","","","","","","","","","{""Q0"":""Tread water with hands above the water""}","","","",""
"survey-multi-choice","32","963334","0.0-7.0-0.0-3.0-0.1","0aa81ea1620187e762a1bcc487bfb2a7187fa52936232963eea7c363fc353fb2","swim","swim","4060","","<b>What is the narrator afraid of, aside from the water?</b>","","","","1","swim-comprehension","","","","","","","","","","","","","{""Q0"":""Heights""}","","","",""
"survey-multi-choice","33","969566","0.0-7.0-0.0-3.0-0.2","0aa81ea1620187e762a1bcc487bfb2a7187fa52936232963eea7c363fc353fb2","swim","swim","5979","","<b>Where is the home of naval aviation?</b>","","","","1","swim-comprehension","","","","","","","","","","","","","{""Q0"":""Pensacola""}","","","",""
"survey-multi-choice","34","979182","0.0-7.0-0.0-3.0-0.3","0aa81ea1620187e762a1bcc487bfb2a7187fa52936232963eea7c363fc353fb2","swim","swim","9363","","<b>How many times did the astronaut candidates have to complete the final exercise to pass?</b>","","","","1","swim-comprehension","","","","","","","","","","","","","{""Q0"":""Two""}","","","",""
"survey-multi-choice","35","983078","0.0-7.0-0.0-3.0-0.4","0aa81ea1620187e762a1bcc487bfb2a7187fa52936232963eea7c363fc353fb2","swim","swim","3643","","<b>How many astronaut candidates passed the first swim test?</b>","","","","1","swim-comprehension","","","","","","","","","","","","","{""Q0"":""All of them""}","","","",""
"survey-multi-choice","36","991062","0.0-7.0-0.0-3.0-0.5","0aa81ea1620187e762a1bcc487bfb2a7187fa52936232963eea7c363fc353fb2","swim","swim","7733","","<b>What gave the narrator his greatest feeling of accomplishment?</b>","","","","1","swim-comprehension","","","","","","","","","","","","","{""Q0"":""Passing the water survival course""}","","","",""
"survey-multi-choice","37","996166","0.0-7.0-0.0-3.0-0.6","0aa81ea1620187e762a1bcc487bfb2a7187fa52936232963eea7c363fc353fb2","swim","swim","4852","","<b>How many astronaut candidates reported for duty at the Johnson Space Center?</b>","","","","1","swim-comprehension","","","","","","","","","","","","","{""Q0"":""Forty-four""}","","","",""
"survey-multi-choice","38","1005870","0.0-7.0-0.0-3.0-0.7","0aa81ea1620187e762a1bcc487bfb2a7187fa52936232963eea7c363fc353fb2","swim","swim","9452","","<b>What were the astronaut candidates trained to do at the naval air station?</b>","","","","1","swim-comprehension","","","","","","","","","","","","","{""Q0"":""Eject out of aircraft and survive in water long enough to be rescued""}","","","",""
"survey-multi-choice","39","1011150","0.0-7.0-0.0-3.0-0.8","0aa81ea1620187e762a1bcc487bfb2a7187fa52936232963eea7c363fc353fb2","swim","swim","5028","","<b>How did the narrator train for his swim test?</b>","","","","1","swim-comprehension","","","","","","","","","","","","","{""Q0"":""Took his kids to the pool every day""}","","","",""
"survey-multi-choice","40","1024414","0.0-7.0-0.0-3.0-0.9","0aa81ea1620187e762a1bcc487bfb2a7187fa52936232963eea7c363fc353fb2","swim","swim","13012","","<b>How often does the narrator swim, now that he is a good swimmer?</b>","","","","0","swim-comprehension","","","","","","","","","","","","","{""Q0"":""Every weekend with his kids""}","","","",""
"html-button-response","41","1027766","0.0-7.0-0.0-4.0","0aa81ea1620187e762a1bcc487bfb2a7187fa52936232963eea7c363fc353fb2","swim","swim","3101","","<p>Thank you for your responses.</p><p>You will now answer some questions about your impressions of the story.</p>","0","","","","","","","","","","","","","","","","","","","","",""
"html-button-response","42","1031678","0.0-7.0-0.0-5.0-0.0","0aa81ea1620187e762a1bcc487bfb2a7187fa52936232963eea7c363fc353fb2","swim","swim","3912","","E6","4","","","","swim-engagement","","","","","","","","","","","","","","5","enjoyment","",""
"html-button-response","43","1038454","0.0-7.0-0.0-5.0-0.1","0aa81ea1620187e762a1bcc487bfb2a7187fa52936232963eea7c363fc353fb2","swim","swim","6525","","A1","3","","","","swim-engagement","","","","","","","","","","","","","","4","absorption","",""
"html-button-response","44","1040638","0.0-7.0-0.0-5.0-0.2","0aa81ea1620187e762a1bcc487bfb2a7187fa52936232963eea7c363fc353fb2","swim","swim","1933","","E1","3","","","","swim-engagement","","","","","","","","","","","","","","4","enjoyment","",""
"html-button-response","45","1042878","0.0-7.0-0.0-5.0-0.3","0aa81ea1620187e762a1bcc487bfb2a7187fa52936232963eea7c363fc353fb2","swim","swim","1988","","E8","2","","","","swim-engagement","","","","","","","","","","","","","","3","enjoyment","",""
"html-button-response","46","1047094","0.0-7.0-0.0-5.0-0.4","0aa81ea1620187e762a1bcc487bfb2a7187fa52936232963eea7c363fc353fb2","swim","swim","3965","","A5","2","","","","swim-engagement","","","","","","","","","","","","","","3","absorption","",""
"html-button-response","47","1048750","0.0-7.0-0.0-5.0-0.5","0aa81ea1620187e762a1bcc487bfb2a7187fa52936232963eea7c363fc353fb2","swim","swim","1405","","A3","3","","","","swim-engagement","","","","","","","","","","","","","","4","absorption","",""
"html-button-response","48","1055526","0.0-7.0-0.0-5.0-0.6","0aa81ea1620187e762a1bcc487bfb2a7187fa52936232963eea7c363fc353fb2","swim","swim","6525","","EE1","1","","","","swim-engagement","","","","","","","","","","","","","","2","emo-engage","",""
"html-button-response","49","1058750","0.0-7.0-0.0-5.0-0.7","0aa81ea1620187e762a1bcc487bfb2a7187fa52936232963eea7c363fc353fb2","swim","swim","2973","","MS2","2","","","","swim-engagement","","","","","","","","","","","","","","3","mental-sim","",""
"html-button-response","50","1063606","0.0-7.0-0.0-5.0-0.8","0aa81ea1620187e762a1bcc487bfb2a7187fa52936232963eea7c363fc353fb2","swim","swim","4605","","A2","4","","","","swim-engagement","","","","","","","","","","","","","","5","absorption","",""
"html-button-response","51","1067478","0.0-7.0-0.0-5.0-0.9","0aa81ea1620187e762a1bcc487bfb2a7187fa52936232963eea7c363fc353fb2","swim","swim","3621","","MS1","4","","","","swim-engagement","","","","","","","","","","","","","","5","mental-sim","",""
"html-button-response","52","1069846","0.0-7.0-0.0-5.0-0.10","0aa81ea1620187e762a1bcc487bfb2a7187fa52936232963eea7c363fc353fb2","swim","swim","2116","","E7","3","","","","swim-engagement","","","","","","","","","","","","","","4","enjoyment","",""
"html-button-response","53","1073590","0.0-7.0-0.0-5.0-0.11","0aa81ea1620187e762a1bcc487bfb2a7187fa52936232963eea7c363fc353fb2","swim","swim","3493","","MS3","4","","","","swim-engagement","","","","","","","","","","","","","","5","mental-sim","",""
"html-button-response","54","1078488","0.0-7.0-0.0-5.0-0.12","0aa81ea1620187e762a1bcc487bfb2a7187fa52936232963eea7c363fc353fb2","swim","swim","4647","","EE5","3","","","","swim-engagement","","","","","","","","","","","","","","4","emo-engage","",""
"html-button-response","55","1081174","0.0-7.0-0.0-5.0-0.13","0aa81ea1620187e762a1bcc487bfb2a7187fa52936232963eea7c363fc353fb2","swim","swim","2435","","EE4","4","","","","swim-engagement","","","","","","","","","","","","","","5","emo-engage","",""
"html-button-response","56","1083366","0.0-7.0-0.0-5.0-0.14","0aa81ea1620187e762a1bcc487bfb2a7187fa52936232963eea7c363fc353fb2","swim","swim","1940","","EE3","2","","","","swim-engagement","","","","","","","","","","","","","","3","emo-engage","",""
"html-button-response","57","1087326","0.0-7.0-0.0-5.0-0.15","0aa81ea1620187e762a1bcc487bfb2a7187fa52936232963eea7c363fc353fb2","swim","swim","3708","","A4","2","","","","swim-engagement","","","","","","","","","","","","","","3","absorption","",""
"html-button-response","58","1092334","0.0-7.0-0.0-5.0-0.16","0aa81ea1620187e762a1bcc487bfb2a7187fa52936232963eea7c363fc353fb2","swim","swim","4755","","EE2","4","","","","swim-engagement","","","","","","","","","","","","","","5","emo-engage","",""
"html-button-response","59","1095438","0.0-7.0-0.0-5.0-0.17","0aa81ea1620187e762a1bcc487bfb2a7187fa52936232963eea7c363fc353fb2","swim","swim","2852","","E10","3","","","","swim-engagement","","","","","","","","","","","","","","4","enjoyment","",""
"html-keyboard-response","60","1134509","0.0-7.0-1.0","0aa81ea1620187e762a1bcc487bfb2a7187fa52936232963eea7c363fc353fb2","swim","swim","38819","","<p>Thank you for your responses. You will now listen to the second story.</p><p>Remember, as you listen to the story you will see letters appear on the screen.</br>As quickly as possible, press <b>&lt;x&gt;</b> if the letter is lowercase and <b>&lt;m&gt;</b> if the letter is uppercase.</p><p>Press <b>&lt;x&gt;</b> or <b>&lt;m&gt;</b> to begin listening!</p>","","77","","","","","","","","","","","","","","","","","","","",""
"html-keyboard-response","61","1135010","0.0-7.0-2.0-0.0","0aa81ea1620187e762a1bcc487bfb2a7187fa52936232963eea7c363fc353fb2","swim","swim","null","","<div style=""font-size:60px;"" tabindex=""0"">+</div>","","null","","","","","","","","","","","","","","","","","","","",""
"dual-task","null","null","null","","swim","swim","530","","F","null","77","77","1","arctic-dual-task","","F","uppercase","18000","0","5","0aa81ea1620187e762a1bcc487bfb2a7187fa52936232963eea7c363fc353fb2","18000.299999952316","530","77","1","arctic","","","","",""
"dual-task","null","null","null","","swim","swim","554.8000001907349","","h","null","88","88","1","arctic-dual-task","","h","lowercase","32000","0","5","0aa81ea1620187e762a1bcc487bfb2a7187fa52936232963eea7c363fc353fb2","32000.099999904633","554.8000001907349","88","1","arctic","","","","",""
"dual-task","null","null","null","","swim","swim","602.9000000953674","","B","null","77","77","1","arctic-dual-task","","B","uppercase","42000","0","5","0aa81ea1620187e762a1bcc487bfb2a7187fa52936232963eea7c363fc353fb2","42000.09999990463","602.9000000953674","77","1","arctic","","","","",""
"dual-task","null","null","null","","swim","swim","475.2999999523163","","f","null","88","88","1","arctic-dual-task","","f","lowercase","56000","0","5","0aa81ea1620187e762a1bcc487bfb2a7187fa52936232963eea7c363fc353fb2","55999.89999985695","475.2999999523163","88","1","arctic","","","","",""
"dual-task","null","null","null","","swim","swim","562.7999999523163","","A","null","77","77","1","arctic-dual-task","","A","uppercase","68000","0","5","0aa81ea1620187e762a1bcc487bfb2a7187fa52936232963eea7c363fc353fb2","68000","562.7999999523163","77","1","arctic","","","","",""
"dual-task","null","null","null","","swim","swim","522.2000000476837","","H","null","77","77","1","arctic-dual-task","","H","uppercase","82000","0","5","0aa81ea1620187e762a1bcc487bfb2a7187fa52936232963eea7c363fc353fb2","82000.59999990463","522.2000000476837","77","1","arctic","","","","",""
"dual-task","null","null","null","","swim","swim","497.7000000476837","","e","null","77","88","0","arctic-dual-task","","e","lowercase","88000","0","5","0aa81ea1620187e762a1bcc487bfb2a7187fa52936232963eea7c363fc353fb2","88000.09999990463","497.7000000476837","77","0","arctic","","","","",""
"dual-task","null","null","null","","swim","swim","474","","G","null","77","77","1","arctic-dual-task","","G","uppercase","100000","0","5","0aa81ea1620187e762a1bcc487bfb2a7187fa52936232963eea7c363fc353fb2","100000.69999980927","474","77","1","arctic","","","","",""
"dual-task","null","null","null","","swim","swim","497.2000000476837","","h","null","88","88","1","arctic-dual-task","","h","lowercase","108000","0","5","0aa81ea1620187e762a1bcc487bfb2a7187fa52936232963eea7c363fc353fb2","108000.29999995232","497.2000000476837","88","1","arctic","","","","",""
"dual-task","null","null","null","","swim","swim","562.7999999523163","","d","null","88","88","1","arctic-dual-task","","d","lowercase","116000","0","5","0aa81ea1620187e762a1bcc487bfb2a7187fa52936232963eea7c363fc353fb2","116000.09999990463","562.7999999523163","88","1","arctic","","","","",""
"dual-task","null","null","null","","swim","swim","521.3999998569489","","T","null","77","77","1","arctic-dual-task","","T","uppercase","124000","0","5","0aa81ea1620187e762a1bcc487bfb2a7187fa52936232963eea7c363fc353fb2","124000.39999985695","521.3999998569489","77","1","arctic","","","","",""
"dual-task","null","null","null","","swim","swim","497.7999999523163","","b","null","88","88","1","arctic-dual-task","","b","lowercase","134000","0","5","0aa81ea1620187e762a1bcc487bfb2a7187fa52936232963eea7c363fc353fb2","134001","497.7999999523163","88","1","arctic","","","","",""
"dual-task","null","null","null","","swim","swim","522.2999999523163","","R","null","77","77","1","arctic-dual-task","","R","uppercase","144000","0","5","0aa81ea1620187e762a1bcc487bfb2a7187fa52936232963eea7c363fc353fb2","144000.59999990463","522.2999999523163","77","1","arctic","","","","",""
"dual-task","null","null","null","","swim","swim","634","","h","null","88","88","1","arctic-dual-task","","h","lowercase","150000","0","5","0aa81ea1620187e762a1bcc487bfb2a7187fa52936232963eea7c363fc353fb2","149999.89999985695","634","88","1","arctic","","","","",""
"dual-task","null","null","null","","swim","swim","601.7999999523163","","t","null","88","88","1","arctic-dual-task","","t","lowercase","160000","0","5","0aa81ea1620187e762a1bcc487bfb2a7187fa52936232963eea7c363fc353fb2","160000.79999995232","601.7999999523163","88","1","arctic","","","","",""
"dual-task","null","null","null","","swim","swim","489.59999990463257","","R","null","77","77","1","arctic-dual-task","","R","uppercase","170000","0","5","0aa81ea1620187e762a1bcc487bfb2a7187fa52936232963eea7c363fc353fb2","170000.19999980927","489.59999990463257","77","1","arctic","","","","",""
"dual-task","null","null","null","","swim","swim","522.2999999523163","","G","null","77","77","1","arctic-dual-task","","G","uppercase","176000","0","5","0aa81ea1620187e762a1bcc487bfb2a7187fa52936232963eea7c363fc353fb2","176000.39999985695","522.2999999523163","77","1","arctic","","","","",""
"dual-task","null","null","null","","swim","swim","474.5","","a","null","88","88","1","arctic-dual-task","","a","lowercase","188000","0","5","0aa81ea1620187e762a1bcc487bfb2a7187fa52936232963eea7c363fc353fb2","188000.19999980927","474.5","88","1","arctic","","","","",""
"dual-task","null","null","null","","swim","swim","632.7999999523163","","f","null","88","88","1","arctic-dual-task","","f","lowercase","194000","0","5","0aa81ea1620187e762a1bcc487bfb2a7187fa52936232963eea7c363fc353fb2","194000.89999985695","632.7999999523163","88","1","arctic","","","","",""
"dual-task","null","null","null","","swim","swim","425.40000009536743","","N","null","77","77","1","arctic-dual-task","","N","uppercase","204000","0","5","0aa81ea1620187e762a1bcc487bfb2a7187fa52936232963eea7c363fc353fb2","204001.29999995232","425.40000009536743","77","1","arctic","","","","",""
"dual-task","null","null","null","","swim","swim","457.7999999523163","","D","null","77","77","1","arctic-dual-task","","D","uppercase","214000","0","5","0aa81ea1620187e762a1bcc487bfb2a7187fa52936232963eea7c363fc353fb2","214000.89999985695","457.7999999523163","77","1","arctic","","","","",""
"dual-task","null","null","null","","swim","swim","433.09999990463257","","Q","null","77","77","1","arctic-dual-task","","Q","uppercase","224000","0","5","0aa81ea1620187e762a1bcc487bfb2a7187fa52936232963eea7c363fc353fb2","224000.79999995232","433.09999990463257","77","1","arctic","","","","",""
"dual-task","null","null","null","","swim","swim","489.69999980926514","","H","null","77","77","1","arctic-dual-task","","H","uppercase","230000","0","5","0aa81ea1620187e762a1bcc487bfb2a7187fa52936232963eea7c363fc353fb2","230001","489.69999980926514","77","1","arctic","","","","",""
"dual-task","null","null","null","","swim","swim","586","","r","null","88","88","1","arctic-dual-task","","r","lowercase","244000","0","5","0aa81ea1620187e762a1bcc487bfb2a7187fa52936232963eea7c363fc353fb2","244000.59999990463","586","88","1","arctic","","","","",""
"dual-task","null","null","null","","swim","swim","498.2999999523163","","D","null","77","77","1","arctic-dual-task","","D","uppercase","258000","0","5","0aa81ea1620187e762a1bcc487bfb2a7187fa52936232963eea7c363fc353fb2","258000.29999995232","498.2999999523163","77","1","arctic","","","","",""
"dual-task","null","null","null","","swim","swim","545.4000000953674","","a","null","88","88","1","arctic-dual-task","","a","lowercase","266000","0","5","0aa81ea1620187e762a1bcc487bfb2a7187fa52936232963eea7c363fc353fb2","266000.69999980927","545.4000000953674","88","1","arctic","","","","",""
"dual-task","null","null","null","","swim","swim","442.19999980926514","","E","null","77","77","1","arctic-dual-task","","E","uppercase","276000","0","5","0aa81ea1620187e762a1bcc487bfb2a7187fa52936232963eea7c363fc353fb2","276000.5","442.19999980926514","77","1","arctic","","","","",""
"dual-task","null","null","null","","swim","swim","569.5","","A","null","77","77","1","arctic-dual-task","","A","uppercase","290000","0","5","0aa81ea1620187e762a1bcc487bfb2a7187fa52936232963eea7c363fc353fb2","290001.39999985695","569.5","77","1","arctic","","","","",""
"dual-task","null","null","null","","swim","swim","513.0999999046326","","B","null","77","77","1","arctic-dual-task","","B","uppercase","298000","0","5","0aa81ea1620187e762a1bcc487bfb2a7187fa52936232963eea7c363fc353fb2","298000.5","513.0999999046326","77","1","arctic","","","","",""
"dual-task","null","null","null","","swim","swim","633.0999999046326","","t","null","88","88","1","arctic-dual-task","","t","lowercase","306000","0","5","0aa81ea1620187e762a1bcc487bfb2a7187fa52936232963eea7c363fc353fb2","306001.39999985695","633.0999999046326","88","1","arctic","","","","",""
"dual-task","null","null","null","","swim","swim","577.5999999046326","","b","null","88","88","1","arctic-dual-task","","b","lowercase","316000","0","5","0aa81ea1620187e762a1bcc487bfb2a7187fa52936232963eea7c363fc353fb2","316000.09999990463","577.5999999046326","88","1","arctic","","","","",""
"dual-task","null","null","null","","swim","swim","586.2000000476837","","a","null","88","88","1","arctic-dual-task","","a","lowercase","328000","0","5","0aa81ea1620187e762a1bcc487bfb2a7187fa52936232963eea7c363fc353fb2","328000.59999990463","586.2000000476837","88","1","arctic","","","","",""
"dual-task","null","null","null","","swim","swim","505.90000009536743","","t","null","88","88","1","arctic-dual-task","","t","lowercase","342000","0","5","0aa81ea1620187e762a1bcc487bfb2a7187fa52936232963eea7c363fc353fb2","342000.69999980927","505.90000009536743","88","1","arctic","","","","",""
"dual-task","null","null","null","","swim","swim","522.2000000476837","","n","null","88","88","1","arctic-dual-task","","n","lowercase","354000","0","5","0aa81ea1620187e762a1bcc487bfb2a7187fa52936232963eea7c363fc353fb2","354000.39999985695","522.2000000476837","88","1","arctic","","","","",""
"dual-task","null","null","null","","swim","swim","578","","g","null","88","88","1","arctic-dual-task","","g","lowercase","364000","0","5","0aa81ea1620187e762a1bcc487bfb2a7187fa52936232963eea7c363fc353fb2","364000.5","578","88","1","arctic","","","","",""
"dual-task","null","null","null","","swim","swim","528.8999998569489","","t","null","88","88","1","arctic-dual-task","","t","lowercase","372000","0","5","0aa81ea1620187e762a1bcc487bfb2a7187fa52936232963eea7c363fc353fb2","372000.59999990463","528.8999998569489","88","1","arctic","","","","",""
"dual-task","null","null","null","","swim","swim","473.90000009536743","","g","null","88","88","1","arctic-dual-task","","g","lowercase","378000","0","5","0aa81ea1620187e762a1bcc487bfb2a7187fa52936232963eea7c363fc353fb2","378000.5","473.90000009536743","88","1","arctic","","","","",""
"dual-task","null","null","null","","swim","swim","504.80000019073486","","q","null","88","88","1","arctic-dual-task","","q","lowercase","388000","0","5","0aa81ea1620187e762a1bcc487bfb2a7187fa52936232963eea7c363fc353fb2","388001.69999980927","504.80000019073486","88","1","arctic","","","","",""
"dual-task","null","null","null","","swim","swim","513.2000000476837","","g","null","88","88","1","arctic-dual-task","","g","lowercase","394000","0","5","0aa81ea1620187e762a1bcc487bfb2a7187fa52936232963eea7c363fc353fb2","394000.39999985695","513.2000000476837","88","1","arctic","","","","",""
"dual-task","null","null","null","","swim","swim","553.2000000476837","","B","null","77","77","1","arctic-dual-task","","B","uppercase","406000","0","5","0aa81ea1620187e762a1bcc487bfb2a7187fa52936232963eea7c363fc353fb2","406001.39999985695","553.2000000476837","77","1","arctic","","","","",""
"dual-task","null","null","null","","swim","swim","504.7000000476837","","H","null","77","77","1","arctic-dual-task","","H","uppercase","412000","0","5","0aa81ea1620187e762a1bcc487bfb2a7187fa52936232963eea7c363fc353fb2","412001","504.7000000476837","77","1","arctic","","","","",""
"dual-task","null","null","null","","swim","swim","473.5","","T","null","77","77","1","arctic-dual-task","","T","uppercase","426000","0","5","0aa81ea1620187e762a1bcc487bfb2a7187fa52936232963eea7c363fc353fb2","426000.7999999523","473.5","77","1","arctic","","","","",""
"dual-task","null","null","null","","swim","swim","522.4000000953674","","n","null","88","88","1","arctic-dual-task","","n","lowercase","438000","0","5","0aa81ea1620187e762a1bcc487bfb2a7187fa52936232963eea7c363fc353fb2","438000.09999990463","522.4000000953674","88","1","arctic","","","","",""
"dual-task","null","null","null","","swim","swim","472.90000009536743","","e","null","88","88","1","arctic-dual-task","","e","lowercase","450000","0","5","0aa81ea1620187e762a1bcc487bfb2a7187fa52936232963eea7c363fc353fb2","450001.5","472.90000009536743","88","1","arctic","","","","",""
"dual-task","null","null","null","","swim","swim","546","","E","null","77","77","1","arctic-dual-task","","E","uppercase","462000","0","5","0aa81ea1620187e762a1bcc487bfb2a7187fa52936232963eea7c363fc353fb2","462000.89999985695","546","77","1","arctic","","","","",""
"dual-task","null","null","null","","swim","swim","561.6000001430511","","r","null","88","88","1","arctic-dual-task","","r","lowercase","474000","0","5","0aa81ea1620187e762a1bcc487bfb2a7187fa52936232963eea7c363fc353fb2","474000.89999985695","561.6000001430511","88","1","arctic","","","","",""
"dual-task","null","null","null","","swim","swim","544.7999999523163","","d","null","88","88","1","arctic-dual-task","","d","lowercase","482000","0","5","0aa81ea1620187e762a1bcc487bfb2a7187fa52936232963eea7c363fc353fb2","482000.7999999523","544.7999999523163","88","1","arctic","","","","",""
"dual-task","null","null","null","","swim","swim","489.39999985694885","","G","null","77","77","1","arctic-dual-task","","G","uppercase","488000","0","5","0aa81ea1620187e762a1bcc487bfb2a7187fa52936232963eea7c363fc353fb2","488001","489.39999985694885","77","1","arctic","","","","",""
"dual-task","null","null","null","","swim","swim","673.2999999523163","","n","null","88","88","1","arctic-dual-task","","n","lowercase","494000","0","5","0aa81ea1620187e762a1bcc487bfb2a7187fa52936232963eea7c363fc353fb2","494000.39999985695","673.2999999523163","88","1","arctic","","","","",""
"dual-task","null","null","null","","swim","swim","634.3000001907349","","q","null","88","88","1","arctic-dual-task","","q","lowercase","500000","0","5","0aa81ea1620187e762a1bcc487bfb2a7187fa52936232963eea7c363fc353fb2","500000.09999990463","634.3000001907349","88","1","arctic","","","","",""
"dual-task","null","null","null","","swim","swim","537.4000000953674","","D","null","77","77","1","arctic-dual-task","","D","uppercase","508000","0","5","0aa81ea1620187e762a1bcc487bfb2a7187fa52936232963eea7c363fc353fb2","508000.09999990463","537.4000000953674","77","1","arctic","","","","",""
"dual-task","null","null","null","","swim","swim","546","","n","null","88","88","1","arctic-dual-task","","n","lowercase","522000","0","5","0aa81ea1620187e762a1bcc487bfb2a7187fa52936232963eea7c363fc353fb2","522000.39999985695","546","88","1","arctic","","","","",""
"dual-task","null","null","null","","swim","swim","681.1000001430511","","g","null","88","88","1","arctic-dual-task","","g","lowercase","534000","0","5","0aa81ea1620187e762a1bcc487bfb2a7187fa52936232963eea7c363fc353fb2","534001.1999998093","681.1000001430511","88","1","arctic","","","","",""
"dual-task","null","null","null","","swim","swim","602.3000001907349","","E","null","77","77","1","arctic-dual-task","","E","uppercase","546000","0","5","0aa81ea1620187e762a1bcc487bfb2a7187fa52936232963eea7c363fc353fb2","546000.0999999046","602.3000001907349","77","1","arctic","","","","",""
"dual-task","null","null","null","","swim","swim","561.7999999523163","","T","null","77","77","1","arctic-dual-task","","T","uppercase","560000","0","5","0aa81ea1620187e762a1bcc487bfb2a7187fa52936232963eea7c363fc353fb2","560000.5","561.7999999523163","77","1","arctic","","","","",""
"dual-task","null","null","null","","swim","swim","521.9000000953674","","G","null","77","77","1","arctic-dual-task","","G","uppercase","574000","0","5","0aa81ea1620187e762a1bcc487bfb2a7187fa52936232963eea7c363fc353fb2","574000.2999999523","521.9000000953674","77","1","arctic","","","","",""
"dual-task","null","null","null","","swim","swim","529.2999999523163","","q","null","88","88","1","arctic-dual-task","","q","lowercase","588000","0","5","0aa81ea1620187e762a1bcc487bfb2a7187fa52936232963eea7c363fc353fb2","588001","529.2999999523163","88","1","arctic","","","","",""
"dual-task","null","null","null","","swim","swim","497.5","","R","null","77","77","1","arctic-dual-task","","R","uppercase","602000","0","5","0aa81ea1620187e762a1bcc487bfb2a7187fa52936232963eea7c363fc353fb2","602000.899999857","497.5","77","1","arctic","","","","",""
"dual-task","null","null","null","","swim","swim","593.0999999046326","","f","null","88","88","1","arctic-dual-task","","f","lowercase","610000","0","5","0aa81ea1620187e762a1bcc487bfb2a7187fa52936232963eea7c363fc353fb2","610000.399999857","593.0999999046326","88","1","arctic","","","","",""
"dual-task","null","null","null","","swim","swim","609.8999998569489","","e","null","88","88","1","arctic-dual-task","","e","lowercase","620000","0","5","0aa81ea1620187e762a1bcc487bfb2a7187fa52936232963eea7c363fc353fb2","620000.399999857","609.8999998569489","88","1","arctic","","","","",""
"dual-task","null","null","null","","swim","swim","553.7999999523163","","F","null","77","77","1","arctic-dual-task","","F","uppercase","634000","0","5","0aa81ea1620187e762a1bcc487bfb2a7187fa52936232963eea7c363fc353fb2","634000.399999857","553.7999999523163","77","1","arctic","","","","",""
"dual-task","null","null","null","","swim","swim","553.8999998569489","","f","null","88","88","1","arctic-dual-task","","f","lowercase","648000","0","5","0aa81ea1620187e762a1bcc487bfb2a7187fa52936232963eea7c363fc353fb2","648000.2999999523","553.8999998569489","88","1","arctic","","","","",""
"dual-task","null","null","null","","swim","swim","560.4000000953674","","e","null","88","88","1","arctic-dual-task","","e","lowercase","656000","0","5","0aa81ea1620187e762a1bcc487bfb2a7187fa52936232963eea7c363fc353fb2","656001.0999999046","560.4000000953674","88","1","arctic","","","","",""
"dual-task","null","null","null","","swim","swim","537.0999999046326","","N","null","77","77","1","arctic-dual-task","","N","uppercase","668000","0","5","0aa81ea1620187e762a1bcc487bfb2a7187fa52936232963eea7c363fc353fb2","668001","537.0999999046326","77","1","arctic","","","","",""
"dual-task","null","null","null","","swim","swim","520.2000000476837","","F","null","77","77","1","arctic-dual-task","","F","uppercase","676000","0","5","0aa81ea1620187e762a1bcc487bfb2a7187fa52936232963eea7c363fc353fb2","676001.0999999046","520.2000000476837","77","1","arctic","","","","",""
"dual-task","null","null","null","","swim","swim","521.6999998092651","","T","null","77","77","1","arctic-dual-task","","T","uppercase","690000","0","5","0aa81ea1620187e762a1bcc487bfb2a7187fa52936232963eea7c363fc353fb2","690000.399999857","521.6999998092651","77","1","arctic","","","","",""
"dual-task","null","null","null","","swim","swim","680.5999999046326","","q","null","88","88","1","arctic-dual-task","","q","lowercase","700000","0","5","0aa81ea1620187e762a1bcc487bfb2a7187fa52936232963eea7c363fc353fb2","700001.5999999046","680.5999999046326","88","1","arctic","","","","",""
"dual-task","null","null","null","","swim","swim","536.5999999046326","","D","null","77","77","1","arctic-dual-task","","D","uppercase","708000","0","5","0aa81ea1620187e762a1bcc487bfb2a7187fa52936232963eea7c363fc353fb2","708000.7999999523","536.5999999046326","77","1","arctic","","","","",""
"dual-task","null","null","null","","swim","swim","641.6999998092651","","r","null","88","88","1","arctic-dual-task","","r","lowercase","720000","0","5","0aa81ea1620187e762a1bcc487bfb2a7187fa52936232963eea7c363fc353fb2","720000.399999857","641.6999998092651","88","1","arctic","","","","",""
"dual-task","null","null","null","","swim","swim","544.0999999046326","","A","null","77","77","1","arctic-dual-task","","A","uppercase","726000","0","5","0aa81ea1620187e762a1bcc487bfb2a7187fa52936232963eea7c363fc353fb2","726001.0999999046","544.0999999046326","77","1","arctic","","","","",""
"dual-task","null","null","null","","swim","swim","698","","A","null","77","77","1","arctic-dual-task","","A","uppercase","736000","0","5","0aa81ea1620187e762a1bcc487bfb2a7187fa52936232963eea7c363fc353fb2","736000.1999998093","698","77","1","arctic","","","","",""
"dual-task","null","null","null","","swim","swim","479.69999980926514","","R","null","77","77","1","arctic-dual-task","","R","uppercase","746000","0","5","0aa81ea1620187e762a1bcc487bfb2a7187fa52936232963eea7c363fc353fb2","746001.399999857","479.69999980926514","77","1","arctic","","","","",""
"dual-task","null","null","null","","swim","swim","577.8999998569489","","b","null","88","88","1","arctic-dual-task","","b","lowercase","758000","0","5","0aa81ea1620187e762a1bcc487bfb2a7187fa52936232963eea7c363fc353fb2","758000.2999999523","577.8999998569489","88","1","arctic","","","","",""
"dual-task","null","null","null","","swim","swim","768.7000000476837","","Q","null","77","77","1","arctic-dual-task","","Q","uppercase","764000","0","5","0aa81ea1620187e762a1bcc487bfb2a7187fa52936232963eea7c363fc353fb2","764000.5999999046","768.7000000476837","77","1","arctic","","","","",""
"dual-task","null","null","null","","swim","swim","488.7999999523163","","Q","null","77","77","1","arctic-dual-task","","Q","uppercase","774000","0","5","0aa81ea1620187e762a1bcc487bfb2a7187fa52936232963eea7c363fc353fb2","774001.1999998093","488.7999999523163","77","1","arctic","","","","",""
"dual-task","null","null","null","","swim","swim","537.5","","b","null","88","88","1","arctic-dual-task","","b","lowercase","786000","0","5","0aa81ea1620187e762a1bcc487bfb2a7187fa52936232963eea7c363fc353fb2","786000.5999999046","537.5","88","1","arctic","","","","",""
"audio-keyboard-response","62","1933061","0.0-7.0-2.0-1.0","0aa81ea1620187e762a1bcc487bfb2a7187fa52936232963eea7c363fc353fb2","swim","swim","null","","audio/story_arctic.mp3","","null","","","","","","","","","","","","","","","","","","","",""
"html-button-response","63","1934036","0.0-7.0-2.0-2.0","0aa81ea1620187e762a1bcc487bfb2a7187fa52936232963eea7c363fc353fb2","swim","swim","975","","<p>This concludes the story. Thank you for listening.</p><p>You will now answer some questions about the content of the story.</p>","0","","","","","","","","","","","","","","","","","","","","",""
"survey-multi-choice","64","1941093","0.0-7.0-2.0-3.0-0.0","0aa81ea1620187e762a1bcc487bfb2a7187fa52936232963eea7c363fc353fb2","swim","swim","7054","","<b>Which dog on the narrator&#39;s dog team never followed instructions?</b>","","","","1","arctic-comprehension","","","","","","","","","","","","","{""Q0"":""Robert""}","","","",""
"survey-multi-choice","65","1950205","0.0-7.0-2.0-3.0-0.1","0aa81ea1620187e762a1bcc487bfb2a7187fa52936232963eea7c363fc353fb2","swim","swim","8858","","<b>What did the narrator do for leisure while in her tent?</b>","","","","1","arctic-comprehension","","","","","","","","","","","","","{""Q0"":""Read""}","","","",""
"survey-multi-choice","66","1954500","0.0-7.0-2.0-3.0-0.2","0aa81ea1620187e762a1bcc487bfb2a7187fa52936232963eea7c363fc353fb2","swim","swim","4042","","<b>How many sponsorships did the narrator receive to support her expedition?</b>","","","","1","arctic-comprehension","","","","","","","","","","","","","{""Q0"":""None""}","","","",""
"survey-multi-choice","67","1959188","0.0-7.0-2.0-3.0-0.3","0aa81ea1620187e762a1bcc487bfb2a7187fa52936232963eea7c363fc353fb2","swim","swim","4435","","<b>What is the name of the narrator&#39;s neighbour?</b>","","","","1","arctic-comprehension","","","","","","","","","","","","","{""Q0"":""Dave""}","","","",""
"survey-multi-choice","68","1964764","0.0-7.0-2.0-3.0-0.4","0aa81ea1620187e762a1bcc487bfb2a7187fa52936232963eea7c363fc353fb2","swim","swim","5325","","<b>What was the objective of the narrator&#39;s expedition?</b>","","","","1","arctic-comprehension","","","","","","","","","","","","","{""Q0"":""Dogsled across Arctic America""}","","","",""
"survey-multi-choice","69","1974612","0.0-7.0-2.0-3.0-0.5","0aa81ea1620187e762a1bcc487bfb2a7187fa52936232963eea7c363fc353fb2","swim","swim","9595","","<b>How did the narrator&#39;s neighbour respond when she told him about her expedition?</b>","","","","1","arctic-comprehension","","","","","","","","","","","","","{""Q0"":""He said she was going to fail.""}","","","",""
"survey-multi-choice","70","1984884","0.0-7.0-2.0-3.0-0.6","0aa81ea1620187e762a1bcc487bfb2a7187fa52936232963eea7c363fc353fb2","swim","swim","10019","","<b>How did the narrator&#39;s encounter with the polar bears end?</b>","","","","1","arctic-comprehension","","","","","","","","","","","","","{""Q0"":""The bears walked back to their den.""}","","","",""
"survey-multi-choice","71","1993084","0.0-7.0-2.0-3.0-0.7","0aa81ea1620187e762a1bcc487bfb2a7187fa52936232963eea7c363fc353fb2","swim","swim","7947","","<b>What were the weather conditions in the Arctic like the winter of the narrator&#39;s expedition?</b>","","","","1","arctic-comprehension","","","","","","","","","","","","","{""Q0"":""There were more storms than any other winter in recorded history.""}","","","",""
"survey-multi-choice","72","2000452","0.0-7.0-2.0-3.0-0.8","0aa81ea1620187e762a1bcc487bfb2a7187fa52936232963eea7c363fc353fb2","swim","swim","7116","","<b>How did the narrator prepare for her expedition?</b>","","","","1","arctic-comprehension","","","","","","","","","","","","","{""Q0"":""Trained in Alaska learning how to dogsled""}","","","",""
"survey-multi-choice","73","2006980","0.0-7.0-2.0-3.0-0.9","0aa81ea1620187e762a1bcc487bfb2a7187fa52936232963eea7c363fc353fb2","swim","swim","6277","","<b>How did the dogs respond when they saw the bears?</b>","","","","1","arctic-comprehension","","","","","","","","","","","","","{""Q0"":""Approached them""}","","","",""
"html-button-response","74","2008108","0.0-7.0-2.0-4.0","0aa81ea1620187e762a1bcc487bfb2a7187fa52936232963eea7c363fc353fb2","swim","swim","876","","<p>Thank you for your responses.</p><p>You will now answer some questions about your impressions of the story.</p>","0","","","","","","","","","","","","","","","","","","","","",""
"html-button-response","75","2011548","0.0-7.0-2.0-5.0-0.0","0aa81ea1620187e762a1bcc487bfb2a7187fa52936232963eea7c363fc353fb2","swim","swim","3440","","A1","5","","","","arctic-engagement","","","","","","","","","","","","","","6","absorption","",""
"html-button-response","76","2013652","0.0-7.0-2.0-5.0-0.1","0aa81ea1620187e762a1bcc487bfb2a7187fa52936232963eea7c363fc353fb2","swim","swim","1853","","MS1","5","","","","arctic-engagement","","","","","","","","","","","","","","6","mental-sim","",""
"html-button-response","77","2017204","0.0-7.0-2.0-5.0-0.2","0aa81ea1620187e762a1bcc487bfb2a7187fa52936232963eea7c363fc353fb2","swim","swim","3301","","E10","6","","","","arctic-engagement","","","","","","","","","","","","","","7","enjoyment","",""
"html-button-response","78","2019796","0.0-7.0-2.0-5.0-0.3","0aa81ea1620187e762a1bcc487bfb2a7187fa52936232963eea7c363fc353fb2","swim","swim","2341","","MS2","4","","","","arctic-engagement","","","","","","","","","","","","","","5","mental-sim","",""
"html-button-response","79","2021564","0.0-7.0-2.0-5.0-0.4","0aa81ea1620187e762a1bcc487bfb2a7187fa52936232963eea7c363fc353fb2","swim","swim","1517","","E1","6","","","","arctic-engagement","","","","","","","","","","","","","","7","enjoyment","",""
"html-button-response","80","2024684","0.0-7.0-2.0-5.0-0.5","0aa81ea1620187e762a1bcc487bfb2a7187fa52936232963eea7c363fc353fb2","swim","swim","2869","","EE1","5","","","","arctic-engagement","","","","","","","","","","","","","","6","emo-engage","",""
"html-button-response","81","2026684","0.0-7.0-2.0-5.0-0.6","0aa81ea1620187e762a1bcc487bfb2a7187fa52936232963eea7c363fc353fb2","swim","swim","1749","","EE2","5","","","","arctic-engagement","","","","","","","","","","","","","","6","emo-engage","",""
"html-button-response","82","2028212","0.0-7.0-2.0-5.0-0.7","0aa81ea1620187e762a1bcc487bfb2a7187fa52936232963eea7c363fc353fb2","swim","swim","1277","","E8","6","","","","arctic-engagement","","","","","","","","","","","","","","7","enjoyment","",""
"html-button-response","83","2029916","0.0-7.0-2.0-5.0-0.8","0aa81ea1620187e762a1bcc487bfb2a7187fa52936232963eea7c363fc353fb2","swim","swim","1453","","E7","6","","","","arctic-engagement","","","","","","","","","","","","","","7","enjoyment","",""
"html-button-response","84","2031564","0.0-7.0-2.0-5.0-0.9","0aa81ea1620187e762a1bcc487bfb2a7187fa52936232963eea7c363fc353fb2","swim","swim","1397","","E6","6","","","","arctic-engagement","","","","","","","","","","","","","","7","enjoyment","",""
"html-button-response","85","2036020","0.0-7.0-2.0-5.0-0.10","0aa81ea1620187e762a1bcc487bfb2a7187fa52936232963eea7c363fc353fb2","swim","swim","4205","","A2","6","","","","arctic-engagement","","","","","","","","","","","","","","7","absorption","",""
"html-button-response","86","2037764","0.0-7.0-2.0-5.0-0.11","0aa81ea1620187e762a1bcc487bfb2a7187fa52936232963eea7c363fc353fb2","swim","swim","1493","","EE3","4","","","","arctic-engagement","","","","","","","","","","","","","","5","emo-engage","",""
"html-button-response","87","2040172","0.0-7.0-2.0-5.0-0.12","0aa81ea1620187e762a1bcc487bfb2a7187fa52936232963eea7c363fc353fb2","swim","swim","2156","","A5","5","","","","arctic-engagement","","","","","","","","","","","","","","6","absorption","",""
"html-button-response","88","2044308","0.0-7.0-2.0-5.0-0.13","0aa81ea1620187e762a1bcc487bfb2a7187fa52936232963eea7c363fc353fb2","swim","swim","3885","","MS3","5","","","","arctic-engagement","","","","","","","","","","","","","","6","mental-sim","",""
"html-button-response","89","2045836","0.0-7.0-2.0-5.0-0.14","0aa81ea1620187e762a1bcc487bfb2a7187fa52936232963eea7c363fc353fb2","swim","swim","1276","","A3","5","","","","arctic-engagement","","","","","","","","","","","","","","6","absorption","",""
"html-button-response","90","2049092","0.0-7.0-2.0-5.0-0.15","0aa81ea1620187e762a1bcc487bfb2a7187fa52936232963eea7c363fc353fb2","swim","swim","3005","","A4","5","","","","arctic-engagement","","","","","","","","","","","","","","6","absorption","",""
"html-button-response","91","2053268","0.0-7.0-2.0-5.0-0.16","0aa81ea1620187e762a1bcc487bfb2a7187fa52936232963eea7c363fc353fb2","swim","swim","3924","","EE4","5","","","","arctic-engagement","","","","","","","","","","","","","","6","emo-engage","",""
"html-button-response","92","2058076","0.0-7.0-2.0-5.0-0.17","0aa81ea1620187e762a1bcc487bfb2a7187fa52936232963eea7c363fc353fb2","swim","swim","4557","","EE5","3","","","","arctic-engagement","","","","","","","","","","","","","","4","emo-engage","",""
"html-button-response","93","2059612","0.0-8.0","0aa81ea1620187e762a1bcc487bfb2a7187fa52936232963eea7c363fc353fb2","swim","swim","1285","","<p>Thank you for your responses.</p><p>You will now answer some demographic, hearing, and general health questions.</p>","0","","","","","","","","","","","","","","","","","","","","",""
"survey-multi-choice","94","2062436","0.0-9.0-0.0","0aa81ea1620187e762a1bcc487bfb2a7187fa52936232963eea7c363fc353fb2","swim","swim","2822","","","","","","","survey","","","","","","","","","","","","","{""Q0"":""Chrome""}","","","browser",""
"survey-text","95","2064700","0.0-9.0-1.0","0aa81ea1620187e762a1bcc487bfb2a7187fa52936232963eea7c363fc353fb2","swim","swim","2010.2999999523163","","","","","","","survey","","","","","","","","","","","","","{""AGE"":""36""}","","","age","36"
"survey-multi-choice","96","2066468","0.0-9.0-2.0","0aa81ea1620187e762a1bcc487bfb2a7187fa52936232963eea7c363fc353fb2","swim","swim","1516","","","","","","","survey","","","","","","","","","","","","","{""Q0"":""Male""}","","","gender","Male"
"survey-multi-choice","97","2068356","0.0-9.0-4.0","0aa81ea1620187e762a1bcc487bfb2a7187fa52936232963eea7c363fc353fb2","swim","swim","1636","","","","","","","survey","","","","","","","","","","","","","{""Q0"":""Right""}","","","handedness","Right"
"survey-multi-choice","98","2072644","0.0-9.0-5.0","0aa81ea1620187e762a1bcc487bfb2a7187fa52936232963eea7c363fc353fb2","swim","swim","4036","","","","","","","survey","","","","","","","","","","","","","{""Q0"":""Some university undergraduate schooling""}","","","education","Some university undergraduate schooling"
"survey-text","99","2077340","0.0-10.0-0.0","0aa81ea1620187e762a1bcc487bfb2a7187fa52936232963eea7c363fc353fb2","swim","swim","4443.299999952316","","","","","","","survey","","","","","","","","","","","","","{""L1"":""english""}","","","first-language","english"
"survey-text","100","2100405","0.0-10.0-1.0","0aa81ea1620187e762a1bcc487bfb2a7187fa52936232963eea7c363fc353fb2","swim","swim","22805.299999952316","","","","","","","survey","","","","","","","","","","","","","{""L2name"":""spanish"",""L2fluency"":""6"",""L3name"":"""",""L3fluency"":"""",""L4name"":"""",""L4fluency"":""""}","","","additional-languages","{""L2name"":""spanish"",""L2fluency"":""6"",""L3name"":"""",""L3fluency"":"""",""L4name"":"""",""L4fluency"":""""}"
"survey-multi-choice","101","2102388","0.0-10.0-2.0","0aa81ea1620187e762a1bcc487bfb2a7187fa52936232963eea7c363fc353fb2","swim","swim","1731","","","","","","","survey","","","","","","","","","","","","","{""Q0"":""No""}","","","hearing-aid","No"
"survey-multi-choice","102","2108828","0.0-10.0-3.0","0aa81ea1620187e762a1bcc487bfb2a7187fa52936232963eea7c363fc353fb2","swim","swim","6188","","","","","","","survey","","","","","","","","","","","","","{""Q0"":""Never""}","","","ringing-ears","Never"
"survey-multi-choice","103","2113316","0.0-10.0-5.0","0aa81ea1620187e762a1bcc487bfb2a7187fa52936232963eea7c363fc353fb2","swim","swim","4237","","","","","","","survey","","","","","","","","","","","","","{""Q0"":""No""}","","","neuro-disease","No"
"survey-multi-choice","104","2116836","0.0-10.0-7.0","0aa81ea1620187e762a1bcc487bfb2a7187fa52936232963eea7c363fc353fb2","swim","swim","3268","","","","","","","survey","","","","","","","","","","","","","{""Q0"":""No""}","","","take-meds","No"
"survey-text","105","2120461","0.0-10.0-9.0","0aa81ea1620187e762a1bcc487bfb2a7187fa52936232963eea7c363fc353fb2","swim","swim","3366.5999999046326","","","","","","","survey","","","","","","","","","","","","","{""HC"":""""}","","","health-concerns",""
"html-button-response","106","2123156","0.0-11.0-0.0","0aa81ea1620187e762a1bcc487bfb2a7187fa52936232963eea7c363fc353fb2","swim","swim","2444","","<p>How would you describe your musical skills/experiences?</p>","1","","","","survey","","","","","","","","","","","","","","","","music-skill","2"
"survey-multi-choice","107","2127780","0.0-11.0-1.0","0aa81ea1620187e762a1bcc487bfb2a7187fa52936232963eea7c363fc353fb2","swim","swim","4371","","","","","","","survey","","","","","","","","","","","","","{""Q0"":""Yes""}","","","music-instrument","Yes"
"survey-text","108","2132084","0.0-11.0-2.0-0.0","0aa81ea1620187e762a1bcc487bfb2a7187fa52936232963eea7c363fc353fb2","swim","swim","4052","","","","","","","survey","","","","","","","","","","","","","{""MEXP"":""1""}","","","music-training-yrs","1"
"html-button-response","109","2136852","0.0-12.0-0.0","0aa81ea1620187e762a1bcc487bfb2a7187fa52936232963eea7c363fc353fb2","swim","swim","4515","","<p>How would you describe your general hearing abilities?</p>","5","","","","survey","","","","","","","","","","","","","","","","ssq-01","6"
"html-button-response","110","2145108","0.0-12.0-1.0","0aa81ea1620187e762a1bcc487bfb2a7187fa52936232963eea7c363fc353fb2","swim","swim","8005","","<p>When you talk with someone at a place that strongly reverberates/echoes (e.g., in a church or train station),</br>can you understand what the person says?</p>","9","","","","survey","","","","","","","","","","","","","","","","ssq-02","9"
"html-button-response","111","2148540","0.0-12.0-2.0","0aa81ea1620187e762a1bcc487bfb2a7187fa52936232963eea7c363fc353fb2","swim","swim","3181","","<p>When you are with a group (~5 people) in a lively restaurant, can you follow the group's conversation?</p>","9","","","","survey","","","","","","","","","","","","","","","","ssq-03","9"
"html-button-response","112","2156980","0.0-12.0-3.0","0aa81ea1620187e762a1bcc487bfb2a7187fa52936232963eea7c363fc353fb2","swim","swim","8189","","<p>Based on the sound of a bus or truck, can you tell whether it is moving towards or away from you?</p>","7","","","","survey","","","","","","","","","","","","","","","","ssq-04","7"
"html-button-response","113","2160653","0.0-12.0-4.0","0aa81ea1620187e762a1bcc487bfb2a7187fa52936232963eea7c363fc353fb2","swim","swim","3420","","<p>When you are in an unknown environment, can you tell from which direction a brief sound originates?</p>","8","","","","survey","","","","","","","","","","","","","","","","ssq-05","8"
"html-button-response","114","2168340","0.0-12.0-5.0","0aa81ea1620187e762a1bcc487bfb2a7187fa52936232963eea7c363fc353fb2","swim","swim","7437","","<p>Are you able to ignore distracting sounds when you concentrate on a specific aspect of your acoustic surrounding?</p>","8","","","","survey","","","","","","","","","","","","","","","","ssq-06","8"
"fullscreen","115","2169593","0.0-13.0","0aa81ea1620187e762a1bcc487bfb2a7187fa52936232963eea7c363fc353fb2","swim","swim","","","","","","","","","true","","","","","","","","","","","","","","","",""
