"trial_type","trial_index","time_elapsed","internal_node_id","ParticipantID","firstStory","scramStory","rt","url","stimulus","button_pressed","key_press","correctRESP","correct","designation","success","letterStim","letterType","ONSET","TIMEOUT","CONDITION","Participant","ONSET_ACTUAL","RT","RESP","ACC","STORY","responses","response","type","surveyQuestion","QRESP"
"pavlovia","0","7","0.0-0.0","f535bc7a1cc4c7f9e60871ca18cc5412674d1df850015e87058f6b89998a81df","arctic","swim","","","","","","","","","","","","","","","","","","","","","","","","",""
"external-html","1","1076452","0.0-1.0","f535bc7a1cc4c7f9e60871ca18cc5412674d1df850015e87058f6b89998a81df","arctic","swim","1076257","consent/consent_updated.html","","","","","","","","","","","","","","","","","","","","","","",""
"html-button-response","2","1106624","0.0-2.0-0.0","f535bc7a1cc4c7f9e60871ca18cc5412674d1df850015e87058f6b89998a81df","arctic","swim","30171","","<p>Before we begin the main task, you will complete a short volume calibration and headphone check.</p><p>Please make sure you are in a quiet listening environment, that you are wearing headphones, and that your computer's volume is turned on.<p></p>","0","","","","","","","","","","","","","","","","","","","","",""
"html-button-response","3","1112701","0.0-2.0-1.0","f535bc7a1cc4c7f9e60871ca18cc5412674d1df850015e87058f6b89998a81df","arctic","swim","5810","","<p>The volume calibration will be first.</p><p>You will hear a thirty-second noise. Please adjust your computer's volume so that this noise is being presented at a comfortable level.<p></p>","0","","","","","","","","","","","","","","","","","","","","",""
"audio-button-response","4","1120443","0.0-2.0-2.0","f535bc7a1cc4c7f9e60871ca18cc5412674d1df850015e87058f6b89998a81df","arctic","swim","7470","","audio/volumetest.mp3","0","","","","","","","","","","","","","","","","","","","","",""
"html-keyboard-response","5","1132243","0.0-3.0-0.0","f535bc7a1cc4c7f9e60871ca18cc5412674d1df850015e87058f6b89998a81df","arctic","swim","11799","","<p>You will now complete a short headphone check.</p><p>On each trial, you will hear three tones. One of these tones will be quieter than the others. Your task is to identify whether the quiet tone occurred first, second, or third.</p><p>There are six trials in total.<p></p><p></p>(Press SPACEBAR to begin)","","32","","","","","","","","","","","","","","","","","","","",""
"html-keyboard-response","6","1133020","0.0-3.0-1.0-0.0","f535bc7a1cc4c7f9e60871ca18cc5412674d1df850015e87058f6b89998a81df","arctic","swim","null","","<div style=""font-size:60px;"">+</div>","","null","","","","","","","","","","","","","","","","","","","",""
"audio-button-response","7","1137649","0.0-3.0-1.0-1.0","f535bc7a1cc4c7f9e60871ca18cc5412674d1df850015e87058f6b89998a81df","arctic","swim","4625","","audio/t1_2.mp3","0","","0","1","headphone-test","","","","","","","","","","","","","","","","",""
"html-keyboard-response","8","1138159","0.0-3.0-1.0-2.0","f535bc7a1cc4c7f9e60871ca18cc5412674d1df850015e87058f6b89998a81df","arctic","swim","null","","<p>Correct</p>","","null","","","","","","","","","","","","","","","","","","","",""
"html-keyboard-response","9","1138664","0.0-3.0-1.0-0.1","f535bc7a1cc4c7f9e60871ca18cc5412674d1df850015e87058f6b89998a81df","arctic","swim","null","","<div style=""font-size:60px;"">+</div>","","null","","","","","","","","","","","","","","","","","","","",""
"audio-button-response","10","1143189","0.0-3.0-1.0-1.1","f535bc7a1cc4c7f9e60871ca18cc5412674d1df850015e87058f6b89998a81df","arctic","swim","4523","","audio/t2_2.mp3","1","","1","1","headphone-test","","","","","","","","","","","","","","","","",""
"html-keyboard-response","11","1143690","0.0-3.0-1.0-2.1","f535bc7a1cc4c7f9e60871ca18cc5412674d1df850015e87058f6b89998a81df","arctic","swim","null","","<p>Correct</p>","","null","","","","","","","","","","","","","","","","","","","",""
"html-keyboard-response","12","1144205","0.0-3.0-1.0-0.2","f535bc7a1cc4c7f9e60871ca18cc5412674d1df850015e87058f6b89998a81df","arctic","swim","null","","<div style=""font-size:60px;"">+</div>","","null","","","","","","","","","","","","","","","","","","","",""
"audio-button-response","13","1148687","0.0-3.0-1.0-1.2","f535bc7a1cc4c7f9e60871ca18cc5412674d1df850015e87058f6b89998a81df","arctic","swim","4479","","audio/t3_2.mp3","2","","2","1","headphone-test","","","","","","","","","","","","","","","","",""
"html-keyboard-response","14","1149189","0.0-3.0-1.0-2.2","f535bc7a1cc4c7f9e60871ca18cc5412674d1df850015e87058f6b89998a81df","arctic","swim","null","","<p>Correct</p>","","null","","","","","","","","","","","","","","","","","","","",""
"html-keyboard-response","15","1149704","0.0-3.0-1.0-0.3","f535bc7a1cc4c7f9e60871ca18cc5412674d1df850015e87058f6b89998a81df","arctic","swim","null","","<div style=""font-size:60px;"">+</div>","","null","","","","","","","","","","","","","","","","","","","",""
"audio-button-response","16","1154259","0.0-3.0-1.0-1.3","f535bc7a1cc4c7f9e60871ca18cc5412674d1df850015e87058f6b89998a81df","arctic","swim","4552","","audio/t1_1.mp3","0","","0","1","headphone-test","","","","","","","","","","","","","","","","",""
"html-keyboard-response","17","1154774","0.0-3.0-1.0-2.3","f535bc7a1cc4c7f9e60871ca18cc5412674d1df850015e87058f6b89998a81df","arctic","swim","null","","<p>Correct</p>","","null","","","","","","","","","","","","","","","","","","","",""
"html-keyboard-response","18","1155284","0.0-3.0-1.0-0.4","f535bc7a1cc4c7f9e60871ca18cc5412674d1df850015e87058f6b89998a81df","arctic","swim","null","","<div style=""font-size:60px;"">+</div>","","null","","","","","","","","","","","","","","","","","","","",""
"audio-button-response","19","1159675","0.0-3.0-1.0-1.4","f535bc7a1cc4c7f9e60871ca18cc5412674d1df850015e87058f6b89998a81df","arctic","swim","4388","","audio/t2_1.mp3","1","","1","1","headphone-test","","","","","","","","","","","","","","","","",""
"html-keyboard-response","20","1160182","0.0-3.0-1.0-2.4","f535bc7a1cc4c7f9e60871ca18cc5412674d1df850015e87058f6b89998a81df","arctic","swim","null","","<p>Correct</p>","","null","","","","","","","","","","","","","","","","","","","",""
"html-keyboard-response","21","1160694","0.0-3.0-1.0-0.5","f535bc7a1cc4c7f9e60871ca18cc5412674d1df850015e87058f6b89998a81df","arctic","swim","null","","<div style=""font-size:60px;"">+</div>","","null","","","","","","","","","","","","","","","","","","","",""
"audio-button-response","22","1165307","0.0-3.0-1.0-1.5","f535bc7a1cc4c7f9e60871ca18cc5412674d1df850015e87058f6b89998a81df","arctic","swim","4611","","audio/t3_1.mp3","2","","2","1","headphone-test","","","","","","","","","","","","","","","","",""
"html-keyboard-response","23","1165808","0.0-3.0-1.0-2.5","f535bc7a1cc4c7f9e60871ca18cc5412674d1df850015e87058f6b89998a81df","arctic","swim","null","","<p>Correct</p>","","null","","","","","","","","","","","","","","","","","","","",""
"fullscreen","24","1170108","0.0-4.0","f535bc7a1cc4c7f9e60871ca18cc5412674d1df850015e87058f6b89998a81df","arctic","swim","","","","","","","","","true","","","","","","","","","","","","","","","",""
"html-button-response","25","1180827","0.0-5.0-0.0","f535bc7a1cc4c7f9e60871ca18cc5412674d1df850015e87058f6b89998a81df","arctic","swim","10718","","<p>There are two blocks to this experiment.</p><p>In each block, you will hear a ~13.5 minute story. One of the stories will be scrambled. Please listen carefully to both stories and understand them as best you can.</p><p>After each story, you will be asked some questions to assess your comprehension.</p>","0","","","","","","","","","","","","","","","","","","","","",""
"html-button-response","26","1199780","0.0-5.0-1.0","f535bc7a1cc4c7f9e60871ca18cc5412674d1df850015e87058f6b89998a81df","arctic","swim","18952","","<p>During each story, there will be an additional task.</p><p>A letter will occasionally appear on the screen.</br>Your job is to - as quickly as you can - decide whether the letter is lowercase or uppercase and press one of two keys on the keyboard:</p><p>If the letter is <b>lowercase</b>, press key &lt;<b>x</b>&gt;.</p><p>If the letter is <b>uppercase</b>, press key &lt;<b>m</b>&gt;.</p>","0","","","","","","","","","","","","","","","","","","","","",""
"html-keyboard-response","27","1208133","0.0-5.0-2.0","f535bc7a1cc4c7f9e60871ca18cc5412674d1df850015e87058f6b89998a81df","arctic","swim","8352","","<p>Because we want your responses to be as quick as possible, please keep your index fingers over the keys while listening.</p><p>Each block lasts about 20 minutes.</p><p><b>Press &lt;x&gt; or &lt;m&gt; to start the first block!</b></p>","","88","","","","","","","","","","","","","","","","","","","",""
"html-keyboard-response","28","1208635","0.0-6.0-0.0-0.0","f535bc7a1cc4c7f9e60871ca18cc5412674d1df850015e87058f6b89998a81df","arctic","swim","null","","<div style=""font-size:60px;"" tabindex=""0"">+</div>","","null","","","","","","","","","","","","","","","","","","","",""
"dual-task","null","null","null","","arctic","swim","1225.699999988079","","R","null","77","77","1","arctic-dual-task","","R","uppercase","10000","0","1","f535bc7a1cc4c7f9e60871ca18cc5412674d1df850015e87058f6b89998a81df","10004.300000011921","1225.699999988079","77","1","arctic","","","","",""
"dual-task","null","null","null","","arctic","swim","623.1000000238419","","G","null","77","77","1","arctic-dual-task","","G","uppercase","24000","0","1","f535bc7a1cc4c7f9e60871ca18cc5412674d1df850015e87058f6b89998a81df","24006.5","623.1000000238419","77","1","arctic","","","","",""
"dual-task","null","null","null","","arctic","swim","740.1999999880791","","T","null","77","77","1","arctic-dual-task","","T","uppercase","34000","0","1","f535bc7a1cc4c7f9e60871ca18cc5412674d1df850015e87058f6b89998a81df","33998.69999998808","740.1999999880791","77","1","arctic","","","","",""
"dual-task","null","null","null","","arctic","swim","670.8000000119209","","q","null","88","88","1","arctic-dual-task","","q","lowercase","44000","0","1","f535bc7a1cc4c7f9e60871ca18cc5412674d1df850015e87058f6b89998a81df","44001.69999998808","670.8000000119209","88","1","arctic","","","","",""
"dual-task","null","null","null","","arctic","swim","646.6999999880791","","A","null","77","77","1","arctic-dual-task","","A","uppercase","56000","0","1","f535bc7a1cc4c7f9e60871ca18cc5412674d1df850015e87058f6b89998a81df","56000.60000002384","646.6999999880791","77","1","arctic","","","","",""
"dual-task","null","null","null","","arctic","swim","691.4000000357628","","H","null","77","77","1","arctic-dual-task","","H","uppercase","64000","0","1","f535bc7a1cc4c7f9e60871ca18cc5412674d1df850015e87058f6b89998a81df","64012.90000003576","691.4000000357628","77","1","arctic","","","","",""
"dual-task","null","null","null","","arctic","swim","507.5","","A","null","77","77","1","arctic-dual-task","","A","uppercase","76000","0","1","f535bc7a1cc4c7f9e60871ca18cc5412674d1df850015e87058f6b89998a81df","76000.10000002384","507.5","77","1","arctic","","","","",""
"dual-task","null","null","null","","arctic","swim","723.1999999880791","","f","null","88","88","1","arctic-dual-task","","f","lowercase","86000","0","1","f535bc7a1cc4c7f9e60871ca18cc5412674d1df850015e87058f6b89998a81df","86005.19999998808","723.1999999880791","88","1","arctic","","","","",""
"dual-task","null","null","null","","arctic","swim","745.6000000238419","","r","null","88","88","1","arctic-dual-task","","r","lowercase","100000","0","1","f535bc7a1cc4c7f9e60871ca18cc5412674d1df850015e87058f6b89998a81df","100008.10000002384","745.6000000238419","88","1","arctic","","","","",""
"dual-task","null","null","null","","arctic","swim","817.4000000357628","","e","null","88","88","1","arctic-dual-task","","e","lowercase","110000","0","1","f535bc7a1cc4c7f9e60871ca18cc5412674d1df850015e87058f6b89998a81df","110013.90000003576","817.4000000357628","88","1","arctic","","","","",""
"dual-task","null","null","null","","arctic","swim","532.3999999761581","","R","null","77","77","1","arctic-dual-task","","R","uppercase","122000","0","1","f535bc7a1cc4c7f9e60871ca18cc5412674d1df850015e87058f6b89998a81df","121999.10000002384","532.3999999761581","77","1","arctic","","","","",""
"dual-task","null","null","null","","arctic","swim","1104.9000000357628","","D","null","77","77","1","arctic-dual-task","","D","uppercase","128000","0","1","f535bc7a1cc4c7f9e60871ca18cc5412674d1df850015e87058f6b89998a81df","127999.69999998808","1104.9000000357628","77","1","arctic","","","","",""
"dual-task","null","null","null","","arctic","swim","555","","T","null","77","77","1","arctic-dual-task","","T","uppercase","140000","0","1","f535bc7a1cc4c7f9e60871ca18cc5412674d1df850015e87058f6b89998a81df","140001.69999998808","555","77","1","arctic","","","","",""
"dual-task","null","null","null","","arctic","swim","586.5999999642372","","N","null","77","77","1","arctic-dual-task","","N","uppercase","152000","0","1","f535bc7a1cc4c7f9e60871ca18cc5412674d1df850015e87058f6b89998a81df","152008.90000003576","586.5999999642372","77","1","arctic","","","","",""
"dual-task","null","null","null","","arctic","swim","697.3000000119209","","H","null","77","77","1","arctic-dual-task","","H","uppercase","160000","0","1","f535bc7a1cc4c7f9e60871ca18cc5412674d1df850015e87058f6b89998a81df","160006.69999998808","697.3000000119209","77","1","arctic","","","","",""
"dual-task","null","null","null","","arctic","swim","642.8999999761581","","F","null","77","77","1","arctic-dual-task","","F","uppercase","172000","0","1","f535bc7a1cc4c7f9e60871ca18cc5412674d1df850015e87058f6b89998a81df","172007.90000003576","642.8999999761581","77","1","arctic","","","","",""
"dual-task","null","null","null","","arctic","swim","499.7999999523163","","F","null","77","77","1","arctic-dual-task","","F","uppercase","180000","0","1","f535bc7a1cc4c7f9e60871ca18cc5412674d1df850015e87058f6b89998a81df","180002.60000002384","499.7999999523163","77","1","arctic","","","","",""
"dual-task","null","null","null","","arctic","swim","557.0999999642372","","g","null","88","88","1","arctic-dual-task","","g","lowercase","188000","0","1","f535bc7a1cc4c7f9e60871ca18cc5412674d1df850015e87058f6b89998a81df","188010.60000002384","557.0999999642372","88","1","arctic","","","","",""
"dual-task","null","null","null","","arctic","swim","676.5999999642372","","F","null","77","77","1","arctic-dual-task","","F","uppercase","196000","0","1","f535bc7a1cc4c7f9e60871ca18cc5412674d1df850015e87058f6b89998a81df","196014.30000001192","676.5999999642372","77","1","arctic","","","","",""
"dual-task","null","null","null","","arctic","swim","573.3999999761581","","E","null","77","77","1","arctic-dual-task","","E","uppercase","208000","0","1","f535bc7a1cc4c7f9e60871ca18cc5412674d1df850015e87058f6b89998a81df","208011","573.3999999761581","77","1","arctic","","","","",""
"dual-task","null","null","null","","arctic","swim","812","","f","null","88","88","1","arctic-dual-task","","f","lowercase","218000","0","1","f535bc7a1cc4c7f9e60871ca18cc5412674d1df850015e87058f6b89998a81df","218011.90000003576","812","88","1","arctic","","","","",""
"dual-task","null","null","null","","arctic","swim","633.5","","g","null","88","88","1","arctic-dual-task","","g","lowercase","228000","0","1","f535bc7a1cc4c7f9e60871ca18cc5412674d1df850015e87058f6b89998a81df","228008.10000002384","633.5","88","1","arctic","","","","",""
"dual-task","null","null","null","","arctic","swim","496.0999999642372","","r","null","88","88","1","arctic-dual-task","","r","lowercase","242000","0","1","f535bc7a1cc4c7f9e60871ca18cc5412674d1df850015e87058f6b89998a81df","242011.80000001192","496.0999999642372","88","1","arctic","","","","",""
"dual-task","null","null","null","","arctic","swim","751.3999999761581","","Q","null","77","77","1","arctic-dual-task","","Q","uppercase","254000","0","1","f535bc7a1cc4c7f9e60871ca18cc5412674d1df850015e87058f6b89998a81df","254008.40000003576","751.3999999761581","77","1","arctic","","","","",""
"dual-task","null","null","null","","arctic","swim","660.6000000238419","","h","null","88","88","1","arctic-dual-task","","h","lowercase","260000","0","1","f535bc7a1cc4c7f9e60871ca18cc5412674d1df850015e87058f6b89998a81df","260008.30000001192","660.6000000238419","88","1","arctic","","","","",""
"dual-task","null","null","null","","arctic","swim","652.8000000119209","","f","null","88","88","1","arctic-dual-task","","f","lowercase","270000","0","1","f535bc7a1cc4c7f9e60871ca18cc5412674d1df850015e87058f6b89998a81df","270006.3000000119","652.8000000119209","88","1","arctic","","","","",""
"dual-task","null","null","null","","arctic","swim","534.1999999880791","","a","null","88","88","1","arctic-dual-task","","a","lowercase","282000","0","1","f535bc7a1cc4c7f9e60871ca18cc5412674d1df850015e87058f6b89998a81df","282011.10000002384","534.1999999880791","88","1","arctic","","","","",""
"dual-task","null","null","null","","arctic","swim","829.7999999523163","","t","null","88","88","1","arctic-dual-task","","t","lowercase","290000","0","1","f535bc7a1cc4c7f9e60871ca18cc5412674d1df850015e87058f6b89998a81df","290011","829.7999999523163","88","1","arctic","","","","",""
"dual-task","null","null","null","","arctic","swim","779","","d","null","88","88","1","arctic-dual-task","","d","lowercase","300000","0","1","f535bc7a1cc4c7f9e60871ca18cc5412674d1df850015e87058f6b89998a81df","300000.8000000119","779","88","1","arctic","","","","",""
"dual-task","null","null","null","","arctic","swim","653.5","","e","null","88","88","1","arctic-dual-task","","e","lowercase","312000","0","1","f535bc7a1cc4c7f9e60871ca18cc5412674d1df850015e87058f6b89998a81df","312001.3000000119","653.5","88","1","arctic","","","","",""
"dual-task","null","null","null","","arctic","swim","1729.6000000238419","","q","null","88","88","1","arctic-dual-task","","q","lowercase","320000","0","1","f535bc7a1cc4c7f9e60871ca18cc5412674d1df850015e87058f6b89998a81df","320011.1999999881","1729.6000000238419","88","1","arctic","","","","",""
"dual-task","null","null","null","","arctic","swim","547.6000000238419","","G","null","77","77","1","arctic-dual-task","","G","uppercase","332000","0","1","f535bc7a1cc4c7f9e60871ca18cc5412674d1df850015e87058f6b89998a81df","332000.6999999881","547.6000000238419","77","1","arctic","","","","",""
"dual-task","null","null","null","","arctic","swim","644.6000000238419","","E","null","77","77","1","arctic-dual-task","","E","uppercase","340000","0","1","f535bc7a1cc4c7f9e60871ca18cc5412674d1df850015e87058f6b89998a81df","340006.60000002384","644.6000000238419","77","1","arctic","","","","",""
"dual-task","null","null","null","","arctic","swim","626.7000000476837","","q","null","88","88","1","arctic-dual-task","","q","lowercase","352000","0","1","f535bc7a1cc4c7f9e60871ca18cc5412674d1df850015e87058f6b89998a81df","352000.6999999881","626.7000000476837","88","1","arctic","","","","",""
"dual-task","null","null","null","","arctic","swim","1390.199999988079","","D","null","77","77","1","arctic-dual-task","","D","uppercase","360000","0","1","f535bc7a1cc4c7f9e60871ca18cc5412674d1df850015e87058f6b89998a81df","360004.8000000119","1390.199999988079","77","1","arctic","","","","",""
"dual-task","null","null","null","","arctic","swim","1752.1000000238419","","r","null","77","88","0","arctic-dual-task","","r","lowercase","368000","0","1","f535bc7a1cc4c7f9e60871ca18cc5412674d1df850015e87058f6b89998a81df","368006.40000003576","1752.1000000238419","77","0","arctic","","","","",""
"dual-task","null","null","null","","arctic","swim","671.2000000476837","","H","null","77","77","1","arctic-dual-task","","H","uppercase","382000","0","1","f535bc7a1cc4c7f9e60871ca18cc5412674d1df850015e87058f6b89998a81df","382003.90000003576","671.2000000476837","77","1","arctic","","","","",""
"dual-task","null","null","null","","arctic","swim","938.3000000119209","","d","null","88","88","1","arctic-dual-task","","d","lowercase","396000","0","1","f535bc7a1cc4c7f9e60871ca18cc5412674d1df850015e87058f6b89998a81df","395999.90000003576","938.3000000119209","88","1","arctic","","","","",""
"dual-task","null","null","null","","arctic","swim","723.8999999761581","","B","null","77","77","1","arctic-dual-task","","B","uppercase","406000","0","1","f535bc7a1cc4c7f9e60871ca18cc5412674d1df850015e87058f6b89998a81df","406012.5","723.8999999761581","77","1","arctic","","","","",""
"dual-task","null","null","null","","arctic","swim","1426.699999988079","","n","null","88","88","1","arctic-dual-task","","n","lowercase","414000","0","1","f535bc7a1cc4c7f9e60871ca18cc5412674d1df850015e87058f6b89998a81df","414001.10000002384","1426.699999988079","88","1","arctic","","","","",""
"dual-task","null","null","null","","arctic","swim","710.8000000119209","","B","null","77","77","1","arctic-dual-task","","B","uppercase","422000","0","1","f535bc7a1cc4c7f9e60871ca18cc5412674d1df850015e87058f6b89998a81df","422001.40000003576","710.8000000119209","77","1","arctic","","","","",""
"dual-task","null","null","null","","arctic","swim","800.3000000119209","","e","null","88","88","1","arctic-dual-task","","e","lowercase","432000","0","1","f535bc7a1cc4c7f9e60871ca18cc5412674d1df850015e87058f6b89998a81df","432011.3000000119","800.3000000119209","88","1","arctic","","","","",""
"dual-task","null","null","null","","arctic","swim","1283.6000000238419","","e","null","88","88","1","arctic-dual-task","","e","lowercase","440000","0","1","f535bc7a1cc4c7f9e60871ca18cc5412674d1df850015e87058f6b89998a81df","440001.10000002384","1283.6000000238419","88","1","arctic","","","","",""
"dual-task","null","null","null","","arctic","swim","1222.4000000357628","","E","null","77","77","1","arctic-dual-task","","E","uppercase","454000","0","1","f535bc7a1cc4c7f9e60871ca18cc5412674d1df850015e87058f6b89998a81df","454001.40000003576","1222.4000000357628","77","1","arctic","","","","",""
"dual-task","null","null","null","","arctic","swim","1636.7999999523163","","d","null","88","88","1","arctic-dual-task","","d","lowercase","462000","0","1","f535bc7a1cc4c7f9e60871ca18cc5412674d1df850015e87058f6b89998a81df","462001.6999999881","1636.7999999523163","88","1","arctic","","","","",""
"dual-task","null","null","null","","arctic","swim","1362.5","","t","null","88","88","1","arctic-dual-task","","t","lowercase","472000","0","1","f535bc7a1cc4c7f9e60871ca18cc5412674d1df850015e87058f6b89998a81df","472001.10000002384","1362.5","88","1","arctic","","","","",""
"dual-task","null","null","null","","arctic","swim","627.1000000238419","","h","null","88","88","1","arctic-dual-task","","h","lowercase","480000","0","1","f535bc7a1cc4c7f9e60871ca18cc5412674d1df850015e87058f6b89998a81df","480001.1999999881","627.1000000238419","88","1","arctic","","","","",""
"dual-task","null","null","null","","arctic","swim","1045.6000000238419","","N","null","77","77","1","arctic-dual-task","","N","uppercase","486000","0","1","f535bc7a1cc4c7f9e60871ca18cc5412674d1df850015e87058f6b89998a81df","486001.10000002384","1045.6000000238419","77","1","arctic","","","","",""
"dual-task","null","null","null","","arctic","swim","983.1000000238419","","t","null","88","88","1","arctic-dual-task","","t","lowercase","496000","0","1","f535bc7a1cc4c7f9e60871ca18cc5412674d1df850015e87058f6b89998a81df","496011.10000002384","983.1000000238419","88","1","arctic","","","","",""
"dual-task","null","null","null","","arctic","swim","635.8000000119209","","A","null","77","77","1","arctic-dual-task","","A","uppercase","508000","0","1","f535bc7a1cc4c7f9e60871ca18cc5412674d1df850015e87058f6b89998a81df","508001.40000003576","635.8000000119209","77","1","arctic","","","","",""
"dual-task","null","null","null","","arctic","swim","669.3999999761581","","F","null","77","77","1","arctic-dual-task","","F","uppercase","514000","0","1","f535bc7a1cc4c7f9e60871ca18cc5412674d1df850015e87058f6b89998a81df","514011.10000002384","669.3999999761581","77","1","arctic","","","","",""
"dual-task","null","null","null","","arctic","swim","NA","","R","null","NA","77","0","arctic-dual-task","","R","uppercase","520000","1","1","f535bc7a1cc4c7f9e60871ca18cc5412674d1df850015e87058f6b89998a81df","520010.90000003576","NA","NA","0","arctic","","","","",""
"dual-task","null","null","null","","arctic","swim","598.0999999642372","","T","null","77","77","1","arctic-dual-task","","T","uppercase","530000","0","1","f535bc7a1cc4c7f9e60871ca18cc5412674d1df850015e87058f6b89998a81df","530011.6000000238","598.0999999642372","77","1","arctic","","","","",""
"dual-task","null","null","null","","arctic","swim","562.8999999761581","","G","null","77","77","1","arctic-dual-task","","G","uppercase","542000","0","1","f535bc7a1cc4c7f9e60871ca18cc5412674d1df850015e87058f6b89998a81df","542011.1999999881","562.8999999761581","77","1","arctic","","","","",""
"dual-task","null","null","null","","arctic","swim","659.3999999761581","","n","null","88","88","1","arctic-dual-task","","n","lowercase","554000","0","1","f535bc7a1cc4c7f9e60871ca18cc5412674d1df850015e87058f6b89998a81df","554001.3000000119","659.3999999761581","88","1","arctic","","","","",""
"dual-task","null","null","null","","arctic","swim","713.0999999642372","","b","null","88","88","1","arctic-dual-task","","b","lowercase","562000","0","1","f535bc7a1cc4c7f9e60871ca18cc5412674d1df850015e87058f6b89998a81df","562001.1999999881","713.0999999642372","88","1","arctic","","","","",""
"dual-task","null","null","null","","arctic","swim","696.5","","r","null","88","88","1","arctic-dual-task","","r","lowercase","570000","0","1","f535bc7a1cc4c7f9e60871ca18cc5412674d1df850015e87058f6b89998a81df","570011.5","696.5","88","1","arctic","","","","",""
"dual-task","null","null","null","","arctic","swim","766.7000000476837","","a","null","88","88","1","arctic-dual-task","","a","lowercase","578000","0","1","f535bc7a1cc4c7f9e60871ca18cc5412674d1df850015e87058f6b89998a81df","578011.4000000358","766.7000000476837","88","1","arctic","","","","",""
"dual-task","null","null","null","","arctic","swim","628.9000000357628","","Q","null","77","77","1","arctic-dual-task","","Q","uppercase","586000","0","1","f535bc7a1cc4c7f9e60871ca18cc5412674d1df850015e87058f6b89998a81df","586001.4000000358","628.9000000357628","77","1","arctic","","","","",""
"dual-task","null","null","null","","arctic","swim","927.5999999642372","","g","null","88","88","1","arctic-dual-task","","g","lowercase","594000","0","1","f535bc7a1cc4c7f9e60871ca18cc5412674d1df850015e87058f6b89998a81df","594001.5","927.5999999642372","88","1","arctic","","","","",""
"dual-task","null","null","null","","arctic","swim","685.1999999880791","","a","null","88","88","1","arctic-dual-task","","a","lowercase","608000","0","1","f535bc7a1cc4c7f9e60871ca18cc5412674d1df850015e87058f6b89998a81df","608000.6999999881","685.1999999880791","88","1","arctic","","","","",""
"dual-task","null","null","null","","arctic","swim","728.3000000119209","","h","null","88","88","1","arctic-dual-task","","h","lowercase","618000","0","1","f535bc7a1cc4c7f9e60871ca18cc5412674d1df850015e87058f6b89998a81df","618000.9000000358","728.3000000119209","88","1","arctic","","","","",""
"dual-task","null","null","null","","arctic","swim","687.5","","q","null","88","88","1","arctic-dual-task","","q","lowercase","626000","0","1","f535bc7a1cc4c7f9e60871ca18cc5412674d1df850015e87058f6b89998a81df","626011.5","687.5","88","1","arctic","","","","",""
"dual-task","null","null","null","","arctic","swim","647.1999999880791","","B","null","77","77","1","arctic-dual-task","","B","uppercase","638000","0","1","f535bc7a1cc4c7f9e60871ca18cc5412674d1df850015e87058f6b89998a81df","638001.1000000238","647.1999999880791","77","1","arctic","","","","",""
"dual-task","null","null","null","","arctic","swim","1548.199999988079","","t","null","88","88","1","arctic-dual-task","","t","lowercase","646000","0","1","f535bc7a1cc4c7f9e60871ca18cc5412674d1df850015e87058f6b89998a81df","646001.6000000238","1548.199999988079","88","1","arctic","","","","",""
"dual-task","null","null","null","","arctic","swim","600.1999999880791","","Q","null","77","77","1","arctic-dual-task","","Q","uppercase","658000","0","1","f535bc7a1cc4c7f9e60871ca18cc5412674d1df850015e87058f6b89998a81df","658001.6999999881","600.1999999880791","77","1","arctic","","","","",""
"dual-task","null","null","null","","arctic","swim","594.5","","D","null","77","77","1","arctic-dual-task","","D","uppercase","670000","0","1","f535bc7a1cc4c7f9e60871ca18cc5412674d1df850015e87058f6b89998a81df","670011.6999999881","594.5","77","1","arctic","","","","",""
"dual-task","null","null","null","","arctic","swim","615.1999999880791","","G","null","77","77","1","arctic-dual-task","","G","uppercase","680000","0","1","f535bc7a1cc4c7f9e60871ca18cc5412674d1df850015e87058f6b89998a81df","680011.6999999881","615.1999999880791","77","1","arctic","","","","",""
"dual-task","null","null","null","","arctic","swim","708.1000000238419","","Q","null","77","77","1","arctic-dual-task","","Q","uppercase","688000","0","1","f535bc7a1cc4c7f9e60871ca18cc5412674d1df850015e87058f6b89998a81df","688002.3000000119","708.1000000238419","77","1","arctic","","","","",""
"dual-task","null","null","null","","arctic","swim","639.1000000238419","","H","null","77","77","1","arctic-dual-task","","H","uppercase","702000","0","1","f535bc7a1cc4c7f9e60871ca18cc5412674d1df850015e87058f6b89998a81df","702001.4000000358","639.1000000238419","77","1","arctic","","","","",""
"dual-task","null","null","null","","arctic","swim","618.8999999761581","","T","null","77","77","1","arctic-dual-task","","T","uppercase","716000","0","1","f535bc7a1cc4c7f9e60871ca18cc5412674d1df850015e87058f6b89998a81df","716011.3000000119","618.8999999761581","77","1","arctic","","","","",""
"dual-task","null","null","null","","arctic","swim","635.1000000238419","","f","null","88","88","1","arctic-dual-task","","f","lowercase","724000","0","1","f535bc7a1cc4c7f9e60871ca18cc5412674d1df850015e87058f6b89998a81df","724009.1999999881","635.1000000238419","88","1","arctic","","","","",""
"dual-task","null","null","null","","arctic","swim","1267.2999999523163","","b","null","88","88","1","arctic-dual-task","","b","lowercase","734000","0","1","f535bc7a1cc4c7f9e60871ca18cc5412674d1df850015e87058f6b89998a81df","734002.1999999881","1267.2999999523163","88","1","arctic","","","","",""
"dual-task","null","null","null","","arctic","swim","603.8000000119209","","n","null","88","88","1","arctic-dual-task","","n","lowercase","744000","0","1","f535bc7a1cc4c7f9e60871ca18cc5412674d1df850015e87058f6b89998a81df","744008.6000000238","603.8000000119209","88","1","arctic","","","","",""
"dual-task","null","null","null","","arctic","swim","1318.0999999642372","","E","null","77","77","1","arctic-dual-task","","E","uppercase","754000","0","1","f535bc7a1cc4c7f9e60871ca18cc5412674d1df850015e87058f6b89998a81df","754001.4000000358","1318.0999999642372","77","1","arctic","","","","",""
"dual-task","null","null","null","","arctic","swim","643.8999999761581","","h","null","88","88","1","arctic-dual-task","","h","lowercase","766000","0","1","f535bc7a1cc4c7f9e60871ca18cc5412674d1df850015e87058f6b89998a81df","766001.9000000358","643.8999999761581","88","1","arctic","","","","",""
"dual-task","null","null","null","","arctic","swim","880.6999999880791","","D","null","77","77","1","arctic-dual-task","","D","uppercase","778000","0","1","f535bc7a1cc4c7f9e60871ca18cc5412674d1df850015e87058f6b89998a81df","778013.1999999881","880.6999999880791","77","1","arctic","","","","",""
"dual-task","null","null","null","","arctic","swim","640.3000000119209","","g","null","88","88","1","arctic-dual-task","","g","lowercase","788000","0","1","f535bc7a1cc4c7f9e60871ca18cc5412674d1df850015e87058f6b89998a81df","788001.4000000358","640.3000000119209","88","1","arctic","","","","",""
"audio-keyboard-response","29","2007702","0.0-6.0-0.0-1.0","f535bc7a1cc4c7f9e60871ca18cc5412674d1df850015e87058f6b89998a81df","arctic","swim","null","","audio/story_arctic.mp3","","null","","","","","","","","","","","","","","","","","","","",""
"html-button-response","30","2013118","0.0-6.0-0.0-2.0","f535bc7a1cc4c7f9e60871ca18cc5412674d1df850015e87058f6b89998a81df","arctic","swim","5413","","<p>This concludes the story. Thank you for listening.</p><p>You will now answer some questions about the content of the story.</p>","0","","","","","","","","","","","","","","","","","","","","",""
"survey-multi-choice","31","2025356","0.0-6.0-0.0-3.0-0.0","f535bc7a1cc4c7f9e60871ca18cc5412674d1df850015e87058f6b89998a81df","arctic","swim","12222","","<b>What did the narrator do for leisure while in her tent?</b>","","","","0","arctic-comprehension","","","","","","","","","","","","","{""Q0"":""Paint""}","","","",""
"survey-multi-choice","32","2030244","0.0-6.0-0.0-3.0-0.1","f535bc7a1cc4c7f9e60871ca18cc5412674d1df850015e87058f6b89998a81df","arctic","swim","4615","","<b>How many sponsorships did the narrator receive to support her expedition?</b>","","","","1","arctic-comprehension","","","","","","","","","","","","","{""Q0"":""None""}","","","",""
"survey-multi-choice","33","2037255","0.0-6.0-0.0-3.0-0.2","f535bc7a1cc4c7f9e60871ca18cc5412674d1df850015e87058f6b89998a81df","arctic","swim","6750","","<b>What were the weather conditions in the Arctic like the winter of the narrator&#39;s expedition?</b>","","","","1","arctic-comprehension","","","","","","","","","","","","","{""Q0"":""There were more storms than any other winter in recorded history.""}","","","",""
"survey-multi-choice","34","2042944","0.0-6.0-0.0-3.0-0.3","f535bc7a1cc4c7f9e60871ca18cc5412674d1df850015e87058f6b89998a81df","arctic","swim","5427","","<b>How did the narrator prepare for her expedition?</b>","","","","1","arctic-comprehension","","","","","","","","","","","","","{""Q0"":""Trained in Alaska learning how to dogsled""}","","","",""
"survey-multi-choice","35","2047624","0.0-6.0-0.0-3.0-0.4","f535bc7a1cc4c7f9e60871ca18cc5412674d1df850015e87058f6b89998a81df","arctic","swim","4421","","<b>Which dog on the narrator&#39;s dog team never followed instructions?</b>","","","","1","arctic-comprehension","","","","","","","","","","","","","{""Q0"":""Robert""}","","","",""
"survey-multi-choice","36","2052101","0.0-6.0-0.0-3.0-0.5","f535bc7a1cc4c7f9e60871ca18cc5412674d1df850015e87058f6b89998a81df","arctic","swim","4211","","<b>What is the name of the narrator&#39;s neighbour?</b>","","","","1","arctic-comprehension","","","","","","","","","","","","","{""Q0"":""Dave""}","","","",""
"survey-multi-choice","37","2058141","0.0-6.0-0.0-3.0-0.6","f535bc7a1cc4c7f9e60871ca18cc5412674d1df850015e87058f6b89998a81df","arctic","swim","5782","","<b>What was the objective of the narrator&#39;s expedition?</b>","","","","1","arctic-comprehension","","","","","","","","","","","","","{""Q0"":""Dogsled across Arctic America""}","","","",""
"survey-multi-choice","38","2063857","0.0-6.0-0.0-3.0-0.7","f535bc7a1cc4c7f9e60871ca18cc5412674d1df850015e87058f6b89998a81df","arctic","swim","5456","","<b>How did the narrator&#39;s encounter with the polar bears end?</b>","","","","1","arctic-comprehension","","","","","","","","","","","","","{""Q0"":""The bears walked back to their den.""}","","","",""
"survey-multi-choice","39","2071382","0.0-6.0-0.0-3.0-0.8","f535bc7a1cc4c7f9e60871ca18cc5412674d1df850015e87058f6b89998a81df","arctic","swim","7258","","<b>How did the narrator&#39;s neighbour respond when she told him about her expedition?</b>","","","","1","arctic-comprehension","","","","","","","","","","","","","{""Q0"":""He said she was going to fail.""}","","","",""
"survey-multi-choice","40","2083013","0.0-6.0-0.0-3.0-0.9","f535bc7a1cc4c7f9e60871ca18cc5412674d1df850015e87058f6b89998a81df","arctic","swim","11370","","<b>How did the dogs respond when they saw the bears?</b>","","","","1","arctic-comprehension","","","","","","","","","","","","","{""Q0"":""Approached them""}","","","",""
"html-button-response","41","2085081","0.0-6.0-0.0-4.0","f535bc7a1cc4c7f9e60871ca18cc5412674d1df850015e87058f6b89998a81df","arctic","swim","1813","","<p>Thank you for your responses.</p><p>You will now answer some questions about your impressions of the story.</p>","0","","","","","","","","","","","","","","","","","","","","",""
"html-button-response","42","2089170","0.0-6.0-0.0-5.0-0.0","f535bc7a1cc4c7f9e60871ca18cc5412674d1df850015e87058f6b89998a81df","arctic","swim","4085","","A1","3","","","","arctic-engagement","","","","","","","","","","","","","","4","absorption","",""
"html-button-response","43","2095869","0.0-6.0-0.0-5.0-0.1","f535bc7a1cc4c7f9e60871ca18cc5412674d1df850015e87058f6b89998a81df","arctic","swim","6441","","EE1","4","","","","arctic-engagement","","","","","","","","","","","","","","5","emo-engage","",""
"html-button-response","44","2097848","0.0-6.0-0.0-5.0-0.2","f535bc7a1cc4c7f9e60871ca18cc5412674d1df850015e87058f6b89998a81df","arctic","swim","1718","","E6","3","","","","arctic-engagement","","","","","","","","","","","","","","4","enjoyment","",""
"html-button-response","45","2099871","0.0-6.0-0.0-5.0-0.3","f535bc7a1cc4c7f9e60871ca18cc5412674d1df850015e87058f6b89998a81df","arctic","swim","1764","","A3","4","","","","arctic-engagement","","","","","","","","","","","","","","5","absorption","",""
"html-button-response","46","2103339","0.0-6.0-0.0-5.0-0.4","f535bc7a1cc4c7f9e60871ca18cc5412674d1df850015e87058f6b89998a81df","arctic","swim","3214","","EE5","4","","","","arctic-engagement","","","","","","","","","","","","","","5","emo-engage","",""
"html-button-response","47","2107089","0.0-6.0-0.0-5.0-0.5","f535bc7a1cc4c7f9e60871ca18cc5412674d1df850015e87058f6b89998a81df","arctic","swim","3492","","E7","3","","","","arctic-engagement","","","","","","","","","","","","","","4","enjoyment","",""
"html-button-response","48","2109394","0.0-6.0-0.0-5.0-0.6","f535bc7a1cc4c7f9e60871ca18cc5412674d1df850015e87058f6b89998a81df","arctic","swim","2051","","EE4","3","","","","arctic-engagement","","","","","","","","","","","","","","4","emo-engage","",""
"html-button-response","49","2111132","0.0-6.0-0.0-5.0-0.7","f535bc7a1cc4c7f9e60871ca18cc5412674d1df850015e87058f6b89998a81df","arctic","swim","1480","","EE3","3","","","","arctic-engagement","","","","","","","","","","","","","","4","emo-engage","",""
"html-button-response","50","2116657","0.0-6.0-0.0-5.0-0.8","f535bc7a1cc4c7f9e60871ca18cc5412674d1df850015e87058f6b89998a81df","arctic","swim","5261","","A2","4","","","","arctic-engagement","","","","","","","","","","","","","","5","absorption","",""
"html-button-response","51","2119170","0.0-6.0-0.0-5.0-0.9","f535bc7a1cc4c7f9e60871ca18cc5412674d1df850015e87058f6b89998a81df","arctic","swim","2252","","MS3","4","","","","arctic-engagement","","","","","","","","","","","","","","5","mental-sim","",""
"html-button-response","52","2122599","0.0-6.0-0.0-5.0-0.10","f535bc7a1cc4c7f9e60871ca18cc5412674d1df850015e87058f6b89998a81df","arctic","swim","3168","","A5","3","","","","arctic-engagement","","","","","","","","","","","","","","4","absorption","",""
"html-button-response","53","2125300","0.0-6.0-0.0-5.0-0.11","f535bc7a1cc4c7f9e60871ca18cc5412674d1df850015e87058f6b89998a81df","arctic","swim","2446","","E10","4","","","","arctic-engagement","","","","","","","","","","","","","","5","enjoyment","",""
"html-button-response","54","2126972","0.0-6.0-0.0-5.0-0.12","f535bc7a1cc4c7f9e60871ca18cc5412674d1df850015e87058f6b89998a81df","arctic","swim","1416","","EE2","4","","","","arctic-engagement","","","","","","","","","","","","","","5","emo-engage","",""
"html-button-response","55","2130991","0.0-6.0-0.0-5.0-0.13","f535bc7a1cc4c7f9e60871ca18cc5412674d1df850015e87058f6b89998a81df","arctic","swim","3760","","MS1","3","","","","arctic-engagement","","","","","","","","","","","","","","4","mental-sim","",""
"html-button-response","56","2132862","0.0-6.0-0.0-5.0-0.14","f535bc7a1cc4c7f9e60871ca18cc5412674d1df850015e87058f6b89998a81df","arctic","swim","1609","","E8","3","","","","arctic-engagement","","","","","","","","","","","","","","4","enjoyment","",""
"html-button-response","57","2135391","0.0-6.0-0.0-5.0-0.15","f535bc7a1cc4c7f9e60871ca18cc5412674d1df850015e87058f6b89998a81df","arctic","swim","2272","","E1","4","","","","arctic-engagement","","","","","","","","","","","","","","5","enjoyment","",""
"html-button-response","58","2141173","0.0-6.0-0.0-5.0-0.16","f535bc7a1cc4c7f9e60871ca18cc5412674d1df850015e87058f6b89998a81df","arctic","swim","5522","","A4","3","","","","arctic-engagement","","","","","","","","","","","","","","4","absorption","",""
"html-button-response","59","2146271","0.0-6.0-0.0-5.0-0.17","f535bc7a1cc4c7f9e60871ca18cc5412674d1df850015e87058f6b89998a81df","arctic","swim","4843","","MS2","3","","","","arctic-engagement","","","","","","","","","","","","","","4","mental-sim","",""
"html-keyboard-response","60","2150497","0.0-6.0-1.0","f535bc7a1cc4c7f9e60871ca18cc5412674d1df850015e87058f6b89998a81df","arctic","swim","3970","","<p>Thank you for your responses. You will now listen to the second story.</p><p>Remember, as you listen to the story you will see letters appear on the screen.</br>As quickly as possible, press <b>&lt;x&gt;</b> if the letter is lowercase and <b>&lt;m&gt;</b> if the letter is uppercase.</p><p>Press <b>&lt;x&gt;</b> or <b>&lt;m&gt;</b> to begin listening!</p>","","88","","","","","","","","","","","","","","","","","","","",""
"html-keyboard-response","61","2151006","0.0-6.0-2.0-0.0","f535bc7a1cc4c7f9e60871ca18cc5412674d1df850015e87058f6b89998a81df","arctic","swim","null","","<div style=""font-size:60px;"" tabindex=""0"">+</div>","","null","","","","","","","","","","","","","","","","","","","",""
"dual-task","null","null","null","","arctic","swim","700.7000000476837","","H","null","77","77","1","swim-dual-task","","H","uppercase","10000","0","1","f535bc7a1cc4c7f9e60871ca18cc5412674d1df850015e87058f6b89998a81df","10005.800000011921","700.7000000476837","77","1","swim","","","","",""
"dual-task","null","null","null","","arctic","swim","743.3999999761581","","b","null","88","88","1","swim-dual-task","","b","lowercase","18000","0","1","f535bc7a1cc4c7f9e60871ca18cc5412674d1df850015e87058f6b89998a81df","18004.899999976158","743.3999999761581","88","1","swim","","","","",""
"dual-task","null","null","null","","arctic","swim","781.8999999761581","","t","null","88","88","1","swim-dual-task","","t","lowercase","28000","0","1","f535bc7a1cc4c7f9e60871ca18cc5412674d1df850015e87058f6b89998a81df","28005","781.8999999761581","88","1","swim","","","","",""
"dual-task","null","null","null","","arctic","swim","595.5","","A","null","77","77","1","swim-dual-task","","A","uppercase","40000","0","1","f535bc7a1cc4c7f9e60871ca18cc5412674d1df850015e87058f6b89998a81df","39999.89999997616","595.5","77","1","swim","","","","",""
"dual-task","null","null","null","","arctic","swim","625.8999999761581","","f","null","88","88","1","swim-dual-task","","f","lowercase","54000","0","1","f535bc7a1cc4c7f9e60871ca18cc5412674d1df850015e87058f6b89998a81df","54000.59999996424","625.8999999761581","88","1","swim","","","","",""
"dual-task","null","null","null","","arctic","swim","668.1000000238419","","G","null","77","77","1","swim-dual-task","","G","uppercase","62000","0","1","f535bc7a1cc4c7f9e60871ca18cc5412674d1df850015e87058f6b89998a81df","62005.19999998808","668.1000000238419","77","1","swim","","","","",""
"dual-task","null","null","null","","arctic","swim","873.0999999642372","","f","null","88","88","1","swim-dual-task","","f","lowercase","72000","0","1","f535bc7a1cc4c7f9e60871ca18cc5412674d1df850015e87058f6b89998a81df","72005","873.0999999642372","88","1","swim","","","","",""
"dual-task","null","null","null","","arctic","swim","497.69999998807907","","G","null","77","77","1","swim-dual-task","","G","uppercase","82000","0","1","f535bc7a1cc4c7f9e60871ca18cc5412674d1df850015e87058f6b89998a81df","82005","497.69999998807907","77","1","swim","","","","",""
"dual-task","null","null","null","","arctic","swim","710.8999999761581","","B","null","77","77","1","swim-dual-task","","B","uppercase","94000","0","1","f535bc7a1cc4c7f9e60871ca18cc5412674d1df850015e87058f6b89998a81df","94005.19999998808","710.8999999761581","77","1","swim","","","","",""
"dual-task","null","null","null","","arctic","swim","611.6000000238419","","G","null","77","77","1","swim-dual-task","","G","uppercase","108000","0","1","f535bc7a1cc4c7f9e60871ca18cc5412674d1df850015e87058f6b89998a81df","108014.69999998808","611.6000000238419","77","1","swim","","","","",""
"dual-task","null","null","null","","arctic","swim","577.5","","D","null","77","77","1","swim-dual-task","","D","uppercase","116000","0","1","f535bc7a1cc4c7f9e60871ca18cc5412674d1df850015e87058f6b89998a81df","116010.39999997616","577.5","77","1","swim","","","","",""
"dual-task","null","null","null","","arctic","swim","655.6000000238419","","D","null","77","77","1","swim-dual-task","","D","uppercase","124000","0","1","f535bc7a1cc4c7f9e60871ca18cc5412674d1df850015e87058f6b89998a81df","124004.5","655.6000000238419","77","1","swim","","","","",""
"dual-task","null","null","null","","arctic","swim","616.3000000119209","","t","null","88","88","1","swim-dual-task","","t","lowercase","136000","0","1","f535bc7a1cc4c7f9e60871ca18cc5412674d1df850015e87058f6b89998a81df","136005.19999998808","616.3000000119209","88","1","swim","","","","",""
"dual-task","null","null","null","","arctic","swim","658.8999999761581","","n","null","88","88","1","swim-dual-task","","n","lowercase","150000","0","1","f535bc7a1cc4c7f9e60871ca18cc5412674d1df850015e87058f6b89998a81df","150015","658.8999999761581","88","1","swim","","","","",""
"dual-task","null","null","null","","arctic","swim","660.7999999523163","","H","null","77","77","1","swim-dual-task","","H","uppercase","162000","0","1","f535bc7a1cc4c7f9e60871ca18cc5412674d1df850015e87058f6b89998a81df","162004.5","660.7999999523163","77","1","swim","","","","",""
"dual-task","null","null","null","","arctic","swim","601","","B","null","77","77","1","swim-dual-task","","B","uppercase","174000","0","1","f535bc7a1cc4c7f9e60871ca18cc5412674d1df850015e87058f6b89998a81df","174004.09999996424","601","77","1","swim","","","","",""
"dual-task","null","null","null","","arctic","swim","591.1999999880791","","H","null","77","77","1","swim-dual-task","","H","uppercase","184000","0","1","f535bc7a1cc4c7f9e60871ca18cc5412674d1df850015e87058f6b89998a81df","184005","591.1999999880791","77","1","swim","","","","",""
"dual-task","null","null","null","","arctic","swim","762.6000000238419","","d","null","88","88","1","swim-dual-task","","d","lowercase","196000","0","1","f535bc7a1cc4c7f9e60871ca18cc5412674d1df850015e87058f6b89998a81df","196005.39999997616","762.6000000238419","88","1","swim","","","","",""
"dual-task","null","null","null","","arctic","swim","516.5","","R","null","77","77","1","swim-dual-task","","R","uppercase","210000","0","1","f535bc7a1cc4c7f9e60871ca18cc5412674d1df850015e87058f6b89998a81df","210015.19999998808","516.5","77","1","swim","","","","",""
"dual-task","null","null","null","","arctic","swim","595.8000000119209","","g","null","88","88","1","swim-dual-task","","g","lowercase","220000","0","1","f535bc7a1cc4c7f9e60871ca18cc5412674d1df850015e87058f6b89998a81df","220015.19999998808","595.8000000119209","88","1","swim","","","","",""
"dual-task","null","null","null","","arctic","swim","726.1000000238419","","F","null","77","77","1","swim-dual-task","","F","uppercase","230000","0","1","f535bc7a1cc4c7f9e60871ca18cc5412674d1df850015e87058f6b89998a81df","230005.09999996424","726.1000000238419","77","1","swim","","","","",""
"dual-task","null","null","null","","arctic","swim","663.1000000238419","","D","null","77","77","1","swim-dual-task","","D","uppercase","238000","0","1","f535bc7a1cc4c7f9e60871ca18cc5412674d1df850015e87058f6b89998a81df","238005.19999998808","663.1000000238419","77","1","swim","","","","",""
"dual-task","null","null","null","","arctic","swim","571.1000000238419","","q","null","88","88","1","swim-dual-task","","q","lowercase","246000","0","1","f535bc7a1cc4c7f9e60871ca18cc5412674d1df850015e87058f6b89998a81df","246005.19999998808","571.1000000238419","88","1","swim","","","","",""
"dual-task","null","null","null","","arctic","swim","663.4000000357628","","r","null","88","88","1","swim-dual-task","","r","lowercase","258000","0","1","f535bc7a1cc4c7f9e60871ca18cc5412674d1df850015e87058f6b89998a81df","258014.69999998808","663.4000000357628","88","1","swim","","","","",""
"dual-task","null","null","null","","arctic","swim","685.0999999642372","","n","null","88","88","1","swim-dual-task","","n","lowercase","268000","0","1","f535bc7a1cc4c7f9e60871ca18cc5412674d1df850015e87058f6b89998a81df","268015.1999999881","685.0999999642372","88","1","swim","","","","",""
"dual-task","null","null","null","","arctic","swim","743.4000000357628","","F","null","77","77","1","swim-dual-task","","F","uppercase","282000","0","1","f535bc7a1cc4c7f9e60871ca18cc5412674d1df850015e87058f6b89998a81df","282000.6999999881","743.4000000357628","77","1","swim","","","","",""
"dual-task","null","null","null","","arctic","swim","1768.5999999642372","","Q","null","77","77","1","swim-dual-task","","Q","uppercase","288000","0","1","f535bc7a1cc4c7f9e60871ca18cc5412674d1df850015e87058f6b89998a81df","288005.1999999881","1768.5999999642372","77","1","swim","","","","",""
"dual-task","null","null","null","","arctic","swim","664.1000000238419","","T","null","77","77","1","swim-dual-task","","T","uppercase","302000","0","1","f535bc7a1cc4c7f9e60871ca18cc5412674d1df850015e87058f6b89998a81df","302015.1999999881","664.1000000238419","77","1","swim","","","","",""
"dual-task","null","null","null","","arctic","swim","666.8000000119209","","r","null","88","88","1","swim-dual-task","","r","lowercase","312000","0","1","f535bc7a1cc4c7f9e60871ca18cc5412674d1df850015e87058f6b89998a81df","312005.5","666.8000000119209","88","1","swim","","","","",""
"dual-task","null","null","null","","arctic","swim","922.7999999523163","","t","null","88","88","1","swim-dual-task","","t","lowercase","322000","0","1","f535bc7a1cc4c7f9e60871ca18cc5412674d1df850015e87058f6b89998a81df","322015.39999997616","922.7999999523163","88","1","swim","","","","",""
"dual-task","null","null","null","","arctic","swim","747.3000000119209","","N","null","77","77","1","swim-dual-task","","N","uppercase","330000","0","1","f535bc7a1cc4c7f9e60871ca18cc5412674d1df850015e87058f6b89998a81df","330015.39999997616","747.3000000119209","77","1","swim","","","","",""
"dual-task","null","null","null","","arctic","swim","633.5999999642372","","D","null","77","77","1","swim-dual-task","","D","uppercase","340000","0","1","f535bc7a1cc4c7f9e60871ca18cc5412674d1df850015e87058f6b89998a81df","340005.39999997616","633.5999999642372","77","1","swim","","","","",""
"dual-task","null","null","null","","arctic","swim","713.5999999642372","","d","null","88","88","1","swim-dual-task","","d","lowercase","350000","0","1","f535bc7a1cc4c7f9e60871ca18cc5412674d1df850015e87058f6b89998a81df","350005.3000000119","713.5999999642372","88","1","swim","","","","",""
"dual-task","null","null","null","","arctic","swim","616.5","","E","null","77","77","1","swim-dual-task","","E","uppercase","362000","0","1","f535bc7a1cc4c7f9e60871ca18cc5412674d1df850015e87058f6b89998a81df","362005.1999999881","616.5","77","1","swim","","","","",""
"dual-task","null","null","null","","arctic","swim","680.1999999880791","","a","null","88","88","1","swim-dual-task","","a","lowercase","372000","0","1","f535bc7a1cc4c7f9e60871ca18cc5412674d1df850015e87058f6b89998a81df","372014.39999997616","680.1999999880791","88","1","swim","","","","",""
"dual-task","null","null","null","","arctic","swim","1523","","h","null","88","88","1","swim-dual-task","","h","lowercase","380000","0","1","f535bc7a1cc4c7f9e60871ca18cc5412674d1df850015e87058f6b89998a81df","380004.89999997616","1523","88","1","swim","","","","",""
"dual-task","null","null","null","","arctic","swim","832.1000000238419","","F","null","77","77","1","swim-dual-task","","F","uppercase","390000","0","1","f535bc7a1cc4c7f9e60871ca18cc5412674d1df850015e87058f6b89998a81df","390015.5","832.1000000238419","77","1","swim","","","","",""
"dual-task","null","null","null","","arctic","swim","653.8999999761581","","T","null","77","77","1","swim-dual-task","","T","uppercase","396000","0","1","f535bc7a1cc4c7f9e60871ca18cc5412674d1df850015e87058f6b89998a81df","396014.89999997616","653.8999999761581","77","1","swim","","","","",""
"dual-task","null","null","null","","arctic","swim","657.3999999761581","","a","null","88","88","1","swim-dual-task","","a","lowercase","406000","0","1","f535bc7a1cc4c7f9e60871ca18cc5412674d1df850015e87058f6b89998a81df","406000.8000000119","657.3999999761581","88","1","swim","","","","",""
"dual-task","null","null","null","","arctic","swim","1099","","A","null","77","77","1","swim-dual-task","","A","uppercase","416000","0","1","f535bc7a1cc4c7f9e60871ca18cc5412674d1df850015e87058f6b89998a81df","416005.09999996424","1099","77","1","swim","","","","",""
"dual-task","null","null","null","","arctic","swim","738.3000000119209","","T","null","77","77","1","swim-dual-task","","T","uppercase","422000","0","1","f535bc7a1cc4c7f9e60871ca18cc5412674d1df850015e87058f6b89998a81df","422005.1999999881","738.3000000119209","77","1","swim","","","","",""
"dual-task","null","null","null","","arctic","swim","650.1000000238419","","R","null","77","77","1","swim-dual-task","","R","uppercase","428000","0","1","f535bc7a1cc4c7f9e60871ca18cc5412674d1df850015e87058f6b89998a81df","428005.39999997616","650.1000000238419","77","1","swim","","","","",""
"dual-task","null","null","null","","arctic","swim","811.8999999761581","","B","null","77","77","1","swim-dual-task","","B","uppercase","438000","0","1","f535bc7a1cc4c7f9e60871ca18cc5412674d1df850015e87058f6b89998a81df","438015.5","811.8999999761581","77","1","swim","","","","",""
"dual-task","null","null","null","","arctic","swim","728.8000000119209","","R","null","77","77","1","swim-dual-task","","R","uppercase","444000","0","1","f535bc7a1cc4c7f9e60871ca18cc5412674d1df850015e87058f6b89998a81df","444005.5","728.8000000119209","77","1","swim","","","","",""
"dual-task","null","null","null","","arctic","swim","649.6000000238419","","E","null","77","77","1","swim-dual-task","","E","uppercase","452000","0","1","f535bc7a1cc4c7f9e60871ca18cc5412674d1df850015e87058f6b89998a81df","452015.6999999881","649.6000000238419","77","1","swim","","","","",""
"dual-task","null","null","null","","arctic","swim","680.3999999761581","","q","null","88","88","1","swim-dual-task","","q","lowercase","460000","0","1","f535bc7a1cc4c7f9e60871ca18cc5412674d1df850015e87058f6b89998a81df","460005.39999997616","680.3999999761581","88","1","swim","","","","",""
"dual-task","null","null","null","","arctic","swim","576.8000000119209","","G","null","77","77","1","swim-dual-task","","G","uppercase","474000","0","1","f535bc7a1cc4c7f9e60871ca18cc5412674d1df850015e87058f6b89998a81df","474005.5","576.8000000119209","77","1","swim","","","","",""
"dual-task","null","null","null","","arctic","swim","793.4000000357628","","f","null","88","88","1","swim-dual-task","","f","lowercase","486000","0","1","f535bc7a1cc4c7f9e60871ca18cc5412674d1df850015e87058f6b89998a81df","486005.5","793.4000000357628","88","1","swim","","","","",""
"dual-task","null","null","null","","arctic","swim","1058.5999999642372","","b","null","88","88","1","swim-dual-task","","b","lowercase","494000","0","1","f535bc7a1cc4c7f9e60871ca18cc5412674d1df850015e87058f6b89998a81df","494005.59999996424","1058.5999999642372","88","1","swim","","","","",""
"dual-task","null","null","null","","arctic","swim","601.6999999880791","","e","null","88","88","1","swim-dual-task","","e","lowercase","508000","0","1","f535bc7a1cc4c7f9e60871ca18cc5412674d1df850015e87058f6b89998a81df","508015.6999999881","601.6999999880791","88","1","swim","","","","",""
"dual-task","null","null","null","","arctic","swim","607.6999999880791","","q","null","88","88","1","swim-dual-task","","q","lowercase","522000","0","1","f535bc7a1cc4c7f9e60871ca18cc5412674d1df850015e87058f6b89998a81df","522015.5","607.6999999880791","88","1","swim","","","","",""
"dual-task","null","null","null","","arctic","swim","661.8999999761581","","H","null","77","77","1","swim-dual-task","","H","uppercase","532000","0","1","f535bc7a1cc4c7f9e60871ca18cc5412674d1df850015e87058f6b89998a81df","532005.5999999642","661.8999999761581","77","1","swim","","","","",""
"dual-task","null","null","null","","arctic","swim","663.8000000119209","","h","null","88","88","1","swim-dual-task","","h","lowercase","544000","0","1","f535bc7a1cc4c7f9e60871ca18cc5412674d1df850015e87058f6b89998a81df","544006","663.8000000119209","88","1","swim","","","","",""
"dual-task","null","null","null","","arctic","swim","689.6999999880791","","t","null","88","88","1","swim-dual-task","","t","lowercase","558000","0","1","f535bc7a1cc4c7f9e60871ca18cc5412674d1df850015e87058f6b89998a81df","558005.6999999881","689.6999999880791","88","1","swim","","","","",""
"dual-task","null","null","null","","arctic","swim","680.3999999761581","","A","null","77","77","1","swim-dual-task","","A","uppercase","564000","0","1","f535bc7a1cc4c7f9e60871ca18cc5412674d1df850015e87058f6b89998a81df","564015.6999999881","680.3999999761581","77","1","swim","","","","",""
"dual-task","null","null","null","","arctic","swim","582.6000000238419","","F","null","77","77","1","swim-dual-task","","F","uppercase","574000","0","1","f535bc7a1cc4c7f9e60871ca18cc5412674d1df850015e87058f6b89998a81df","574005.8000000119","582.6000000238419","77","1","swim","","","","",""
"dual-task","null","null","null","","arctic","swim","958.3000000119209","","E","null","77","77","1","swim-dual-task","","E","uppercase","582000","0","1","f535bc7a1cc4c7f9e60871ca18cc5412674d1df850015e87058f6b89998a81df","582005.6999999881","958.3000000119209","77","1","swim","","","","",""
"dual-task","null","null","null","","arctic","swim","538.6999999880791","","N","null","77","77","1","swim-dual-task","","N","uppercase","592000","0","1","f535bc7a1cc4c7f9e60871ca18cc5412674d1df850015e87058f6b89998a81df","592005.6999999881","538.6999999880791","77","1","swim","","","","",""
"dual-task","null","null","null","","arctic","swim","748.3000000119209","","e","null","88","88","1","swim-dual-task","","e","lowercase","606000","0","1","f535bc7a1cc4c7f9e60871ca18cc5412674d1df850015e87058f6b89998a81df","606015.1999999881","748.3000000119209","88","1","swim","","","","",""
"dual-task","null","null","null","","arctic","swim","652.1999999880791","","e","null","77","88","0","swim-dual-task","","e","lowercase","612000","0","1","f535bc7a1cc4c7f9e60871ca18cc5412674d1df850015e87058f6b89998a81df","612005.8000000119","652.1999999880791","77","0","swim","","","","",""
"dual-task","null","null","null","","arctic","swim","796.8000000119209","","q","null","88","88","1","swim-dual-task","","q","lowercase","620000","0","1","f535bc7a1cc4c7f9e60871ca18cc5412674d1df850015e87058f6b89998a81df","620015.6999999881","796.8000000119209","88","1","swim","","","","",""
"dual-task","null","null","null","","arctic","swim","700.5999999642372","","n","null","88","88","1","swim-dual-task","","n","lowercase","628000","0","1","f535bc7a1cc4c7f9e60871ca18cc5412674d1df850015e87058f6b89998a81df","628015.3000000119","700.5999999642372","88","1","swim","","","","",""
"dual-task","null","null","null","","arctic","swim","683","","a","null","88","88","1","swim-dual-task","","a","lowercase","636000","0","1","f535bc7a1cc4c7f9e60871ca18cc5412674d1df850015e87058f6b89998a81df","636015.5999999642","683","88","1","swim","","","","",""
"dual-task","null","null","null","","arctic","swim","961.5","","e","null","88","88","1","swim-dual-task","","e","lowercase","646000","0","1","f535bc7a1cc4c7f9e60871ca18cc5412674d1df850015e87058f6b89998a81df","646005.3999999762","961.5","88","1","swim","","","","",""
"dual-task","null","null","null","","arctic","swim","630.9000000357628","","N","null","77","77","1","swim-dual-task","","N","uppercase","656000","0","1","f535bc7a1cc4c7f9e60871ca18cc5412674d1df850015e87058f6b89998a81df","656015.8999999762","630.9000000357628","77","1","swim","","","","",""
"dual-task","null","null","null","","arctic","swim","651.7000000476837","","N","null","77","77","1","swim-dual-task","","N","uppercase","664000","0","1","f535bc7a1cc4c7f9e60871ca18cc5412674d1df850015e87058f6b89998a81df","664005.8999999762","651.7000000476837","77","1","swim","","","","",""
"dual-task","null","null","null","","arctic","swim","752.3000000119209","","g","null","88","88","1","swim-dual-task","","g","lowercase","676000","0","1","f535bc7a1cc4c7f9e60871ca18cc5412674d1df850015e87058f6b89998a81df","676002.6999999881","752.3000000119209","88","1","swim","","","","",""
"dual-task","null","null","null","","arctic","swim","621.1999999880791","","a","null","88","88","1","swim-dual-task","","a","lowercase","688000","0","1","f535bc7a1cc4c7f9e60871ca18cc5412674d1df850015e87058f6b89998a81df","688012.5","621.1999999880791","88","1","swim","","","","",""
"dual-task","null","null","null","","arctic","swim","664","","g","null","88","88","1","swim-dual-task","","g","lowercase","694000","0","1","f535bc7a1cc4c7f9e60871ca18cc5412674d1df850015e87058f6b89998a81df","694013.1999999881","664","88","1","swim","","","","",""
"dual-task","null","null","null","","arctic","swim","630.5","","Q","null","77","77","1","swim-dual-task","","Q","uppercase","704000","0","1","f535bc7a1cc4c7f9e60871ca18cc5412674d1df850015e87058f6b89998a81df","704005.1999999881","630.5","77","1","swim","","","","",""
"dual-task","null","null","null","","arctic","swim","677","","r","null","88","88","1","swim-dual-task","","r","lowercase","712000","0","1","f535bc7a1cc4c7f9e60871ca18cc5412674d1df850015e87058f6b89998a81df","712009.1999999881","677","88","1","swim","","","","",""
"dual-task","null","null","null","","arctic","swim","587.4000000357628","","Q","null","77","77","1","swim-dual-task","","Q","uppercase","722000","0","1","f535bc7a1cc4c7f9e60871ca18cc5412674d1df850015e87058f6b89998a81df","722005.8000000119","587.4000000357628","77","1","swim","","","","",""
"dual-task","null","null","null","","arctic","swim","922.6000000238419","","n","null","88","88","1","swim-dual-task","","n","lowercase","734000","0","1","f535bc7a1cc4c7f9e60871ca18cc5412674d1df850015e87058f6b89998a81df","734005.8999999762","922.6000000238419","88","1","swim","","","","",""
"dual-task","null","null","null","","arctic","swim","673.1999999880791","","Q","null","77","77","1","swim-dual-task","","Q","uppercase","746000","0","1","f535bc7a1cc4c7f9e60871ca18cc5412674d1df850015e87058f6b89998a81df","746013.5","673.1999999880791","77","1","swim","","","","",""
"dual-task","null","null","null","","arctic","swim","738.1999999880791","","g","null","88","88","1","swim-dual-task","","g","lowercase","760000","0","1","f535bc7a1cc4c7f9e60871ca18cc5412674d1df850015e87058f6b89998a81df","760006","738.1999999880791","88","1","swim","","","","",""
"dual-task","null","null","null","","arctic","swim","635.9000000357628","","h","null","88","88","1","swim-dual-task","","h","lowercase","766000","0","1","f535bc7a1cc4c7f9e60871ca18cc5412674d1df850015e87058f6b89998a81df","766015.3000000119","635.9000000357628","88","1","swim","","","","",""
"dual-task","null","null","null","","arctic","swim","713.8999999761581","","f","null","88","88","1","swim-dual-task","","f","lowercase","778000","0","1","f535bc7a1cc4c7f9e60871ca18cc5412674d1df850015e87058f6b89998a81df","778015.8000000119","713.8999999761581","88","1","swim","","","","",""
"dual-task","null","null","null","","arctic","swim","597.6999999880791","","T","null","77","77","1","swim-dual-task","","T","uppercase","788000","0","1","f535bc7a1cc4c7f9e60871ca18cc5412674d1df850015e87058f6b89998a81df","788015.8999999762","597.6999999880791","77","1","swim","","","","",""
"dual-task","null","null","null","","arctic","swim","648","","R","null","77","77","1","swim-dual-task","","R","uppercase","794000","0","1","f535bc7a1cc4c7f9e60871ca18cc5412674d1df850015e87058f6b89998a81df","794015.8999999762","648","77","1","swim","","","","",""
"audio-keyboard-response","62","2961988","0.0-6.0-2.0-1.0","f535bc7a1cc4c7f9e60871ca18cc5412674d1df850015e87058f6b89998a81df","arctic","swim","null","","audio/story_swim_scrambled.mp3","","null","","","","","","","","","","","","","","","","","","","",""
"html-button-response","63","2964425","0.0-6.0-2.0-2.0","f535bc7a1cc4c7f9e60871ca18cc5412674d1df850015e87058f6b89998a81df","arctic","swim","2436","","<p>This concludes the story. Thank you for listening.</p><p>You will now answer some questions about the content of the story.</p>","0","","","","","","","","","","","","","","","","","","","","",""
"survey-multi-choice","64","2980590","0.0-6.0-2.0-3.0-0.0","f535bc7a1cc4c7f9e60871ca18cc5412674d1df850015e87058f6b89998a81df","arctic","swim","16158","","<b>How often does the narrator swim, now that he is a good swimmer?</b>","","","","1","swim-comprehension","","","","","","","","","","","","","{""Q0"":""Never swam again in his life""}","","","",""
"survey-multi-choice","65","2987191","0.0-6.0-2.0-3.0-0.1","f535bc7a1cc4c7f9e60871ca18cc5412674d1df850015e87058f6b89998a81df","arctic","swim","6339","","<b>What gave the narrator his greatest feeling of accomplishment?</b>","","","","1","swim-comprehension","","","","","","","","","","","","","{""Q0"":""Passing the water survival course""}","","","",""
"survey-multi-choice","66","2991609","0.0-6.0-2.0-3.0-0.2","f535bc7a1cc4c7f9e60871ca18cc5412674d1df850015e87058f6b89998a81df","arctic","swim","4146","","<b>What is the narrator afraid of, aside from the water?</b>","","","","1","swim-comprehension","","","","","","","","","","","","","{""Q0"":""Heights""}","","","",""
"survey-multi-choice","67","3005245","0.0-6.0-2.0-3.0-0.3","f535bc7a1cc4c7f9e60871ca18cc5412674d1df850015e87058f6b89998a81df","arctic","swim","13364","","<b>What were the astronaut candidates trained to do at the naval air station?</b>","","","","1","swim-comprehension","","","","","","","","","","","","","{""Q0"":""Eject out of aircraft and survive in water long enough to be rescued""}","","","",""
"survey-multi-choice","68","3010227","0.0-6.0-2.0-3.0-0.4","f535bc7a1cc4c7f9e60871ca18cc5412674d1df850015e87058f6b89998a81df","arctic","swim","4721","","<b>Where is the home of naval aviation?</b>","","","","1","swim-comprehension","","","","","","","","","","","","","{""Q0"":""Pensacola""}","","","",""
"survey-multi-choice","69","3018595","0.0-6.0-2.0-3.0-0.5","f535bc7a1cc4c7f9e60871ca18cc5412674d1df850015e87058f6b89998a81df","arctic","swim","8106","","<b>How did the narrator train for his swim test?</b>","","","","0","swim-comprehension","","","","","","","","","","","","","{""Q0"":""Signed up for a swim class""}","","","",""
"survey-multi-choice","70","3024543","0.0-6.0-2.0-3.0-0.6","f535bc7a1cc4c7f9e60871ca18cc5412674d1df850015e87058f6b89998a81df","arctic","swim","5685","","<b>How many astronaut candidates reported for duty at the Johnson Space Center?</b>","","","","0","swim-comprehension","","","","","","","","","","","","","{""Q0"":""One hundred""}","","","",""
"survey-multi-choice","71","3030364","0.0-6.0-2.0-3.0-0.7","f535bc7a1cc4c7f9e60871ca18cc5412674d1df850015e87058f6b89998a81df","arctic","swim","5558","","<b>How many times did the astronaut candidates have to complete the final exercise to pass?</b>","","","","1","swim-comprehension","","","","","","","","","","","","","{""Q0"":""Two""}","","","",""
"survey-multi-choice","72","3034835","0.0-6.0-2.0-3.0-0.8","f535bc7a1cc4c7f9e60871ca18cc5412674d1df850015e87058f6b89998a81df","arctic","swim","4213","","<b>How many astronaut candidates passed the first swim test?</b>","","","","1","swim-comprehension","","","","","","","","","","","","","{""Q0"":""All of them""}","","","",""
"survey-multi-choice","73","3043552","0.0-6.0-2.0-3.0-0.9","f535bc7a1cc4c7f9e60871ca18cc5412674d1df850015e87058f6b89998a81df","arctic","swim","8453","","<b>What was the final step of the first swim test in the pool?</b>","","","","1","swim-comprehension","","","","","","","","","","","","","{""Q0"":""Tread water with hands above the water""}","","","",""
"html-button-response","74","3045559","0.0-6.0-2.0-4.0","f535bc7a1cc4c7f9e60871ca18cc5412674d1df850015e87058f6b89998a81df","arctic","swim","1750","","<p>Thank you for your responses.</p><p>You will now answer some questions about your impressions of the story.</p>","0","","","","","","","","","","","","","","","","","","","","",""
"html-button-response","75","3049161","0.0-6.0-2.0-5.0-0.0","f535bc7a1cc4c7f9e60871ca18cc5412674d1df850015e87058f6b89998a81df","arctic","swim","3600","","EE5","3","","","","swim-engagement","","","","","","","","","","","","","","4","emo-engage","",""
"html-button-response","76","3052826","0.0-6.0-2.0-5.0-0.1","f535bc7a1cc4c7f9e60871ca18cc5412674d1df850015e87058f6b89998a81df","arctic","swim","3409","","MS2","3","","","","swim-engagement","","","","","","","","","","","","","","4","mental-sim","",""
"html-button-response","77","3055260","0.0-6.0-2.0-5.0-0.2","f535bc7a1cc4c7f9e60871ca18cc5412674d1df850015e87058f6b89998a81df","arctic","swim","2176","","A4","3","","","","swim-engagement","","","","","","","","","","","","","","4","absorption","",""
"html-button-response","78","3057974","0.0-6.0-2.0-5.0-0.3","f535bc7a1cc4c7f9e60871ca18cc5412674d1df850015e87058f6b89998a81df","arctic","swim","2460","","EE1","3","","","","swim-engagement","","","","","","","","","","","","","","4","emo-engage","",""
"html-button-response","79","3059907","0.0-6.0-2.0-5.0-0.4","f535bc7a1cc4c7f9e60871ca18cc5412674d1df850015e87058f6b89998a81df","arctic","swim","1674","","E1","3","","","","swim-engagement","","","","","","","","","","","","","","4","enjoyment","",""
"html-button-response","80","3062720","0.0-6.0-2.0-5.0-0.5","f535bc7a1cc4c7f9e60871ca18cc5412674d1df850015e87058f6b89998a81df","arctic","swim","2552","","A3","2","","","","swim-engagement","","","","","","","","","","","","","","3","absorption","",""
"html-button-response","81","3065467","0.0-6.0-2.0-5.0-0.6","f535bc7a1cc4c7f9e60871ca18cc5412674d1df850015e87058f6b89998a81df","arctic","swim","2494","","A1","2","","","","swim-engagement","","","","","","","","","","","","","","3","absorption","",""
"html-button-response","82","3067892","0.0-6.0-2.0-5.0-0.7","f535bc7a1cc4c7f9e60871ca18cc5412674d1df850015e87058f6b89998a81df","arctic","swim","2165","","A2","2","","","","swim-engagement","","","","","","","","","","","","","","3","absorption","",""
"html-button-response","83","3070089","0.0-6.0-2.0-5.0-0.8","f535bc7a1cc4c7f9e60871ca18cc5412674d1df850015e87058f6b89998a81df","arctic","swim","1936","","E7","2","","","","swim-engagement","","","","","","","","","","","","","","3","enjoyment","",""
"html-button-response","84","3073720","0.0-6.0-2.0-5.0-0.9","f535bc7a1cc4c7f9e60871ca18cc5412674d1df850015e87058f6b89998a81df","arctic","swim","3377","","MS3","3","","","","swim-engagement","","","","","","","","","","","","","","4","mental-sim","",""
"html-button-response","85","3076357","0.0-6.0-2.0-5.0-0.10","f535bc7a1cc4c7f9e60871ca18cc5412674d1df850015e87058f6b89998a81df","arctic","swim","2382","","E10","2","","","","swim-engagement","","","","","","","","","","","","","","3","enjoyment","",""
"html-button-response","86","3078712","0.0-6.0-2.0-5.0-0.11","f535bc7a1cc4c7f9e60871ca18cc5412674d1df850015e87058f6b89998a81df","arctic","swim","2101","","E8","3","","","","swim-engagement","","","","","","","","","","","","","","4","enjoyment","",""
"html-button-response","87","3080872","0.0-6.0-2.0-5.0-0.12","f535bc7a1cc4c7f9e60871ca18cc5412674d1df850015e87058f6b89998a81df","arctic","swim","1906","","EE4","3","","","","swim-engagement","","","","","","","","","","","","","","4","emo-engage","",""
"html-button-response","88","3083295","0.0-6.0-2.0-5.0-0.13","f535bc7a1cc4c7f9e60871ca18cc5412674d1df850015e87058f6b89998a81df","arctic","swim","2160","","E6","3","","","","swim-engagement","","","","","","","","","","","","","","4","enjoyment","",""
"html-button-response","89","3085166","0.0-6.0-2.0-5.0-0.14","f535bc7a1cc4c7f9e60871ca18cc5412674d1df850015e87058f6b89998a81df","arctic","swim","1611","","EE2","3","","","","swim-engagement","","","","","","","","","","","","","","4","emo-engage","",""
"html-button-response","90","3087342","0.0-6.0-2.0-5.0-0.15","f535bc7a1cc4c7f9e60871ca18cc5412674d1df850015e87058f6b89998a81df","arctic","swim","1921","","MS1","3","","","","swim-engagement","","","","","","","","","","","","","","4","mental-sim","",""
"html-button-response","91","3089788","0.0-6.0-2.0-5.0-0.16","f535bc7a1cc4c7f9e60871ca18cc5412674d1df850015e87058f6b89998a81df","arctic","swim","2193","","EE3","2","","","","swim-engagement","","","","","","","","","","","","","","3","emo-engage","",""
"html-button-response","92","3093202","0.0-6.0-2.0-5.0-0.17","f535bc7a1cc4c7f9e60871ca18cc5412674d1df850015e87058f6b89998a81df","arctic","swim","3160","","A5","2","","","","swim-engagement","","","","","","","","","","","","","","3","absorption","",""
"html-button-response","93","3094644","0.0-8.0","f535bc7a1cc4c7f9e60871ca18cc5412674d1df850015e87058f6b89998a81df","arctic","swim","1185","","<p>Thank you for your responses.</p><p>You will now answer some demographic, hearing, and general health questions.</p>","0","","","","","","","","","","","","","","","","","","","","",""
"survey-multi-choice","94","3098496","0.0-9.0-0.0","f535bc7a1cc4c7f9e60871ca18cc5412674d1df850015e87058f6b89998a81df","arctic","swim","3847","","","","","","","survey","","","","","","","","","","","","","{""Q0"":""Chrome""}","","","browser",""
"survey-text","95","3102501","0.0-9.0-1.0","f535bc7a1cc4c7f9e60871ca18cc5412674d1df850015e87058f6b89998a81df","arctic","swim","3743.800000011921","","","","","","","survey","","","","","","","","","","","","","{""AGE"":""35""}","","","age","35"
"survey-multi-choice","96","3106403","0.0-9.0-2.0","f535bc7a1cc4c7f9e60871ca18cc5412674d1df850015e87058f6b89998a81df","arctic","swim","3637","","","","","","","survey","","","","","","","","","","","","","{""Q0"":""Male""}","","","gender","Male"
"survey-multi-choice","97","3109325","0.0-9.0-4.0","f535bc7a1cc4c7f9e60871ca18cc5412674d1df850015e87058f6b89998a81df","arctic","swim","2659","","","","","","","survey","","","","","","","","","","","","","{""Q0"":""Right""}","","","handedness","Right"
"survey-multi-choice","98","3113120","0.0-9.0-5.0","f535bc7a1cc4c7f9e60871ca18cc5412674d1df850015e87058f6b89998a81df","arctic","swim","3533","","","","","","","survey","","","","","","","","","","","","","{""Q0"":""Bachelor's Degree""}","","","education","Bachelor's Degree"
"survey-text","99","3121156","0.0-10.0-0.0","f535bc7a1cc4c7f9e60871ca18cc5412674d1df850015e87058f6b89998a81df","arctic","swim","7772.400000035763","","","","","","","survey","","","","","","","","","","","","","{""L1"":""English""}","","","first-language","English"
"survey-text","100","3126964","0.0-10.0-1.0","f535bc7a1cc4c7f9e60871ca18cc5412674d1df850015e87058f6b89998a81df","arctic","swim","5536.800000011921","","","","","","","survey","","","","","","","","","","","","","{""L2name"":"""",""L2fluency"":"""",""L3name"":"""",""L3fluency"":"""",""L4name"":"""",""L4fluency"":""""}","","","additional-languages","{""L2name"":"""",""L2fluency"":"""",""L3name"":"""",""L3fluency"":"""",""L4name"":"""",""L4fluency"":""""}"
"survey-multi-choice","101","3130401","0.0-10.0-2.0","f535bc7a1cc4c7f9e60871ca18cc5412674d1df850015e87058f6b89998a81df","arctic","swim","3174","","","","","","","survey","","","","","","","","","","","","","{""Q0"":""No""}","","","hearing-aid","No"
"survey-multi-choice","102","3133372","0.0-10.0-3.0","f535bc7a1cc4c7f9e60871ca18cc5412674d1df850015e87058f6b89998a81df","arctic","swim","2714","","","","","","","survey","","","","","","","","","","","","","{""Q0"":""Never""}","","","ringing-ears","Never"
"survey-multi-choice","103","3136379","0.0-10.0-5.0","f535bc7a1cc4c7f9e60871ca18cc5412674d1df850015e87058f6b89998a81df","arctic","swim","2741","","","","","","","survey","","","","","","","","","","","","","{""Q0"":""No""}","","","neuro-disease","No"
"survey-multi-choice","104","3141423","0.0-10.0-7.0","f535bc7a1cc4c7f9e60871ca18cc5412674d1df850015e87058f6b89998a81df","arctic","swim","4784","","","","","","","survey","","","","","","","","","","","","","{""Q0"":""Yes""}","","","take-meds","Yes"
"survey-text","105","3160704","0.0-10.0-8.0-0.0","f535bc7a1cc4c7f9e60871ca18cc5412674d1df850015e87058f6b89998a81df","arctic","swim","19018.099999964237","","","","","","","survey","","","","","","","","","","","","","{""MED"":""levothyroxine, amlodipine""}","","","take-meds-clarify","levothyroxine, amlodipine"
"survey-text","106","3165870","0.0-10.0-9.0","f535bc7a1cc4c7f9e60871ca18cc5412674d1df850015e87058f6b89998a81df","arctic","swim","4866.599999964237","","","","","","","survey","","","","","","","","","","","","","{""HC"":""""}","","","health-concerns",""
"html-button-response","107","3169967","0.0-11.0-0.0","f535bc7a1cc4c7f9e60871ca18cc5412674d1df850015e87058f6b89998a81df","arctic","swim","3836","","<p>How would you describe your musical skills/experiences?</p>","3","","","","survey","","","","","","","","","","","","","","","","music-skill","4"
"survey-multi-choice","108","3172523","0.0-11.0-1.0","f535bc7a1cc4c7f9e60871ca18cc5412674d1df850015e87058f6b89998a81df","arctic","swim","2297","","","","","","","survey","","","","","","","","","","","","","{""Q0"":""Yes""}","","","music-instrument","Yes"
"survey-text","109","3177547","0.0-11.0-2.0-0.0","f535bc7a1cc4c7f9e60871ca18cc5412674d1df850015e87058f6b89998a81df","arctic","swim","4768.800000011921","","","","","","","survey","","","","","","","","","","","","","{""MEXP"":""2""}","","","music-training-yrs","2"
"html-button-response","110","3180652","0.0-12.0-0.0","f535bc7a1cc4c7f9e60871ca18cc5412674d1df850015e87058f6b89998a81df","arctic","swim","2850","","<p>How would you describe your general hearing abilities?</p>","3","","","","survey","","","","","","","","","","","","","","","","ssq-01","4"
"html-button-response","111","3185459","0.0-12.0-1.0","f535bc7a1cc4c7f9e60871ca18cc5412674d1df850015e87058f6b89998a81df","arctic","swim","4551","","<p>When you talk with someone at a place that strongly reverberates/echoes (e.g., in a church or train station),</br>can you understand what the person says?</p>","5","","","","survey","","","","","","","","","","","","","","","","ssq-02","5"
"html-button-response","112","3189359","0.0-12.0-2.0","f535bc7a1cc4c7f9e60871ca18cc5412674d1df850015e87058f6b89998a81df","arctic","swim","3644","","<p>When you are with a group (~5 people) in a lively restaurant, can you follow the group's conversation?</p>","5","","","","survey","","","","","","","","","","","","","","","","ssq-03","5"
"html-button-response","113","3194107","0.0-12.0-3.0","f535bc7a1cc4c7f9e60871ca18cc5412674d1df850015e87058f6b89998a81df","arctic","swim","4487","","<p>Based on the sound of a bus or truck, can you tell whether it is moving towards or away from you?</p>","6","","","","survey","","","","","","","","","","","","","","","","ssq-04","6"
"html-button-response","114","3198660","0.0-12.0-4.0","f535bc7a1cc4c7f9e60871ca18cc5412674d1df850015e87058f6b89998a81df","arctic","swim","4294","","<p>When you are in an unknown environment, can you tell from which direction a brief sound originates?</p>","6","","","","survey","","","","","","","","","","","","","","","","ssq-05","6"
"html-button-response","115","3202073","0.0-12.0-5.0","f535bc7a1cc4c7f9e60871ca18cc5412674d1df850015e87058f6b89998a81df","arctic","swim","3150","","<p>Are you able to ignore distracting sounds when you concentrate on a specific aspect of your acoustic surrounding?</p>","6","","","","survey","","","","","","","","","","","","","","","","ssq-06","6"
"fullscreen","116","3203340","0.0-13.0","f535bc7a1cc4c7f9e60871ca18cc5412674d1df850015e87058f6b89998a81df","arctic","swim","","","","","","","","","true","","","","","","","","","","","","","","","",""
