"trial_type","trial_index","time_elapsed","internal_node_id","ParticipantID","firstStory","scramStory","rt","url","stimulus","button_pressed","key_press","correctRESP","correct","designation","success","letterStim","letterType","ONSET","TIMEOUT","CONDITION","Participant","ONSET_ACTUAL","RT","RESP","ACC","STORY","responses","response","type","surveyQuestion","QRESP"
"pavlovia","0","6","0.0-0.0","b717ea380466c1c38bb847234acf71dcb7f3901a0ef1f00baf9b75f825076525","swim","swim","","","","","","","","","","","","","","","","","","","","","","","","",""
"external-html","1","20487","0.0-1.0","b717ea380466c1c38bb847234acf71dcb7f3901a0ef1f00baf9b75f825076525","swim","swim","20035","consent/consent_updated.html","","","","","","","","","","","","","","","","","","","","","","",""
"html-button-response","2","171630","0.0-2.0-0.0","b717ea380466c1c38bb847234acf71dcb7f3901a0ef1f00baf9b75f825076525","swim","swim","151141","","<p>Before we begin the main task, you will complete a short volume calibration and headphone check.</p><p>Please make sure you are in a quiet listening environment, that you are wearing headphones, and that your computer's volume is turned on.<p></p>","0","","","","","","","","","","","","","","","","","","","","",""
"html-button-response","3","183881","0.0-2.0-1.0","b717ea380466c1c38bb847234acf71dcb7f3901a0ef1f00baf9b75f825076525","swim","swim","11986","","<p>The volume calibration will be first.</p><p>You will hear a thirty-second noise. Please adjust your computer's volume so that this noise is being presented at a comfortable level.<p></p>","0","","","","","","","","","","","","","","","","","","","","",""
"audio-button-response","4","196255","0.0-2.0-2.0","b717ea380466c1c38bb847234acf71dcb7f3901a0ef1f00baf9b75f825076525","swim","swim","12108","","audio/volumetest.mp3","0","","","","","","","","","","","","","","","","","","","","",""
"html-keyboard-response","5","205803","0.0-3.0-0.0","b717ea380466c1c38bb847234acf71dcb7f3901a0ef1f00baf9b75f825076525","swim","swim","9546","","<p>You will now complete a short headphone check.</p><p>On each trial, you will hear three tones. One of these tones will be quieter than the others. Your task is to identify whether the quiet tone occurred first, second, or third.</p><p>There are six trials in total.<p></p><p></p>(Press SPACEBAR to begin)","","32","","","","","","","","","","","","","","","","","","","",""
"html-keyboard-response","6","206569","0.0-3.0-1.0-0.0","b717ea380466c1c38bb847234acf71dcb7f3901a0ef1f00baf9b75f825076525","swim","swim","null","","<div style=""font-size:60px;"">+</div>","","null","","","","","","","","","","","","","","","","","","","",""
"audio-button-response","7","210850","0.0-3.0-1.0-1.0","b717ea380466c1c38bb847234acf71dcb7f3901a0ef1f00baf9b75f825076525","swim","swim","4279","","audio/t2_1.mp3","1","","1","1","headphone-test","","","","","","","","","","","","","","","","",""
"html-keyboard-response","8","211351","0.0-3.0-1.0-2.0","b717ea380466c1c38bb847234acf71dcb7f3901a0ef1f00baf9b75f825076525","swim","swim","null","","<p>Correct</p>","","null","","","","","","","","","","","","","","","","","","","",""
"html-keyboard-response","9","211859","0.0-3.0-1.0-0.1","b717ea380466c1c38bb847234acf71dcb7f3901a0ef1f00baf9b75f825076525","swim","swim","null","","<div style=""font-size:60px;"">+</div>","","null","","","","","","","","","","","","","","","","","","","",""
"audio-button-response","10","216220","0.0-3.0-1.0-1.1","b717ea380466c1c38bb847234acf71dcb7f3901a0ef1f00baf9b75f825076525","swim","swim","4359","","audio/t1_1.mp3","0","","0","1","headphone-test","","","","","","","","","","","","","","","","",""
"html-keyboard-response","11","216724","0.0-3.0-1.0-2.1","b717ea380466c1c38bb847234acf71dcb7f3901a0ef1f00baf9b75f825076525","swim","swim","null","","<p>Correct</p>","","null","","","","","","","","","","","","","","","","","","","",""
"html-keyboard-response","12","217229","0.0-3.0-1.0-0.2","b717ea380466c1c38bb847234acf71dcb7f3901a0ef1f00baf9b75f825076525","swim","swim","null","","<div style=""font-size:60px;"">+</div>","","null","","","","","","","","","","","","","","","","","","","",""
"audio-button-response","13","221264","0.0-3.0-1.0-1.2","b717ea380466c1c38bb847234acf71dcb7f3901a0ef1f00baf9b75f825076525","swim","swim","4033","","audio/t3_2.mp3","2","","2","1","headphone-test","","","","","","","","","","","","","","","","",""
"html-keyboard-response","14","221766","0.0-3.0-1.0-2.2","b717ea380466c1c38bb847234acf71dcb7f3901a0ef1f00baf9b75f825076525","swim","swim","null","","<p>Correct</p>","","null","","","","","","","","","","","","","","","","","","","",""
"html-keyboard-response","15","222269","0.0-3.0-1.0-0.3","b717ea380466c1c38bb847234acf71dcb7f3901a0ef1f00baf9b75f825076525","swim","swim","null","","<div style=""font-size:60px;"">+</div>","","null","","","","","","","","","","","","","","","","","","","",""
"audio-button-response","16","226774","0.0-3.0-1.0-1.3","b717ea380466c1c38bb847234acf71dcb7f3901a0ef1f00baf9b75f825076525","swim","swim","4502","","audio/t2_2.mp3","1","","1","1","headphone-test","","","","","","","","","","","","","","","","",""
"html-keyboard-response","17","227289","0.0-3.0-1.0-2.3","b717ea380466c1c38bb847234acf71dcb7f3901a0ef1f00baf9b75f825076525","swim","swim","null","","<p>Correct</p>","","null","","","","","","","","","","","","","","","","","","","",""
"html-keyboard-response","18","227809","0.0-3.0-1.0-0.4","b717ea380466c1c38bb847234acf71dcb7f3901a0ef1f00baf9b75f825076525","swim","swim","null","","<div style=""font-size:60px;"">+</div>","","null","","","","","","","","","","","","","","","","","","","",""
"audio-button-response","19","232235","0.0-3.0-1.0-1.4","b717ea380466c1c38bb847234acf71dcb7f3901a0ef1f00baf9b75f825076525","swim","swim","4424","","audio/t1_2.mp3","0","","0","1","headphone-test","","","","","","","","","","","","","","","","",""
"html-keyboard-response","20","232739","0.0-3.0-1.0-2.4","b717ea380466c1c38bb847234acf71dcb7f3901a0ef1f00baf9b75f825076525","swim","swim","null","","<p>Correct</p>","","null","","","","","","","","","","","","","","","","","","","",""
"html-keyboard-response","21","233248","0.0-3.0-1.0-0.5","b717ea380466c1c38bb847234acf71dcb7f3901a0ef1f00baf9b75f825076525","swim","swim","null","","<div style=""font-size:60px;"">+</div>","","null","","","","","","","","","","","","","","","","","","","",""
"audio-button-response","22","238115","0.0-3.0-1.0-1.5","b717ea380466c1c38bb847234acf71dcb7f3901a0ef1f00baf9b75f825076525","swim","swim","4864","","audio/t3_1.mp3","2","","2","1","headphone-test","","","","","","","","","","","","","","","","",""
"html-keyboard-response","23","238629","0.0-3.0-1.0-2.5","b717ea380466c1c38bb847234acf71dcb7f3901a0ef1f00baf9b75f825076525","swim","swim","null","","<p>Correct</p>","","null","","","","","","","","","","","","","","","","","","","",""
"fullscreen","24","251089","0.0-4.0","b717ea380466c1c38bb847234acf71dcb7f3901a0ef1f00baf9b75f825076525","swim","swim","","","","","","","","","true","","","","","","","","","","","","","","","",""
"html-button-response","25","266446","0.0-5.0-0.0","b717ea380466c1c38bb847234acf71dcb7f3901a0ef1f00baf9b75f825076525","swim","swim","15355","","<p>There are two blocks to this experiment.</p><p>In each block, you will hear a ~13.5 minute story. One of the stories will be scrambled. Please listen carefully to both stories and understand them as best you can.</p><p>After each story, you will be asked some questions to assess your comprehension.</p>","0","","","","","","","","","","","","","","","","","","","","",""
"html-button-response","26","279055","0.0-5.0-1.0","b717ea380466c1c38bb847234acf71dcb7f3901a0ef1f00baf9b75f825076525","swim","swim","12609","","<p>During each story, there will be an additional task.</p><p>A letter will occasionally appear on the screen.</br>Your job is to - as quickly as you can - decide whether the letter is lowercase or uppercase and press one of two keys on the keyboard:</p><p>If the letter is <b>lowercase</b>, press key &lt;<b>x</b>&gt;.</p><p>If the letter is <b>uppercase</b>, press key &lt;<b>m</b>&gt;.</p>","0","","","","","","","","","","","","","","","","","","","","",""
"html-keyboard-response","27","292348","0.0-5.0-2.0","b717ea380466c1c38bb847234acf71dcb7f3901a0ef1f00baf9b75f825076525","swim","swim","13292","","<p>Because we want your responses to be as quick as possible, please keep your index fingers over the keys while listening.</p><p>Each block lasts about 20 minutes.</p><p><b>Press &lt;x&gt; or &lt;m&gt; to start the first block!</b></p>","","88","","","","","","","","","","","","","","","","","","","",""
"html-keyboard-response","28","292854","0.0-7.0-0.0-0.0","b717ea380466c1c38bb847234acf71dcb7f3901a0ef1f00baf9b75f825076525","swim","swim","null","","<div style=""font-size:60px;"" tabindex=""0"">+</div>","","null","","","","","","","","","","","","","","","","","","","",""
"dual-task","null","null","null","","swim","swim","512.1000000238419","","H","null","77","77","1","swim-dual-task","","H","uppercase","14000","0","3","b717ea380466c1c38bb847234acf71dcb7f3901a0ef1f00baf9b75f825076525","14010","512.1000000238419","77","1","swim","","","","",""
"dual-task","null","null","null","","swim","swim","753.6000000238419","","F","null","77","77","1","swim-dual-task","","F","uppercase","20000","0","3","b717ea380466c1c38bb847234acf71dcb7f3901a0ef1f00baf9b75f825076525","20014.200000047684","753.6000000238419","77","1","swim","","","","",""
"dual-task","null","null","null","","swim","swim","661.8000000715256","","h","null","88","88","1","swim-dual-task","","h","lowercase","32000","0","3","b717ea380466c1c38bb847234acf71dcb7f3901a0ef1f00baf9b75f825076525","32003.600000023842","661.8000000715256","88","1","swim","","","","",""
"dual-task","null","null","null","","swim","swim","607","","D","null","77","77","1","swim-dual-task","","D","uppercase","44000","0","3","b717ea380466c1c38bb847234acf71dcb7f3901a0ef1f00baf9b75f825076525","44003.800000071526","607","77","1","swim","","","","",""
"dual-task","null","null","null","","swim","swim","575.1999999284744","","e","null","88","88","1","swim-dual-task","","e","lowercase","56000","0","3","b717ea380466c1c38bb847234acf71dcb7f3901a0ef1f00baf9b75f825076525","55999.90000009537","575.1999999284744","88","1","swim","","","","",""
"dual-task","null","null","null","","swim","swim","588.1000000238419","","e","null","88","88","1","swim-dual-task","","e","lowercase","66000","0","3","b717ea380466c1c38bb847234acf71dcb7f3901a0ef1f00baf9b75f825076525","66003.70000004768","588.1000000238419","88","1","swim","","","","",""
"dual-task","null","null","null","","swim","swim","547.2000000476837","","H","null","77","77","1","swim-dual-task","","H","uppercase","80000","0","3","b717ea380466c1c38bb847234acf71dcb7f3901a0ef1f00baf9b75f825076525","80013.80000007153","547.2000000476837","77","1","swim","","","","",""
"dual-task","null","null","null","","swim","swim","681.3999999761581","","d","null","88","88","1","swim-dual-task","","d","lowercase","88000","0","3","b717ea380466c1c38bb847234acf71dcb7f3901a0ef1f00baf9b75f825076525","88001.70000004768","681.3999999761581","88","1","swim","","","","",""
"dual-task","null","null","null","","swim","swim","594.8000000715256","","q","null","88","88","1","swim-dual-task","","q","lowercase","96000","0","3","b717ea380466c1c38bb847234acf71dcb7f3901a0ef1f00baf9b75f825076525","96005.70000004768","594.8000000715256","88","1","swim","","","","",""
"dual-task","null","null","null","","swim","swim","570.3999999761581","","d","null","88","88","1","swim-dual-task","","d","lowercase","106000","0","3","b717ea380466c1c38bb847234acf71dcb7f3901a0ef1f00baf9b75f825076525","106013.80000007153","570.3999999761581","88","1","swim","","","","",""
"dual-task","null","null","null","","swim","swim","854.2000000476837","","N","null","77","77","1","swim-dual-task","","N","uppercase","112000","0","3","b717ea380466c1c38bb847234acf71dcb7f3901a0ef1f00baf9b75f825076525","112002.10000002384","854.2000000476837","77","1","swim","","","","",""
"dual-task","null","null","null","","swim","swim","572.1999999284744","","g","null","88","88","1","swim-dual-task","","g","lowercase","120000","0","3","b717ea380466c1c38bb847234acf71dcb7f3901a0ef1f00baf9b75f825076525","120000.70000004768","572.1999999284744","88","1","swim","","","","",""
"dual-task","null","null","null","","swim","swim","549","","d","null","88","88","1","swim-dual-task","","d","lowercase","134000","0","3","b717ea380466c1c38bb847234acf71dcb7f3901a0ef1f00baf9b75f825076525","134014","549","88","1","swim","","","","",""
"dual-task","null","null","null","","swim","swim","733.1999999284744","","Q","null","77","77","1","swim-dual-task","","Q","uppercase","144000","0","3","b717ea380466c1c38bb847234acf71dcb7f3901a0ef1f00baf9b75f825076525","144005.30000007153","733.1999999284744","77","1","swim","","","","",""
"dual-task","null","null","null","","swim","swim","658.8000000715256","","q","null","88","88","1","swim-dual-task","","q","lowercase","152000","0","3","b717ea380466c1c38bb847234acf71dcb7f3901a0ef1f00baf9b75f825076525","152007.10000002384","658.8000000715256","88","1","swim","","","","",""
"dual-task","null","null","null","","swim","swim","549.2999999523163","","h","null","88","88","1","swim-dual-task","","h","lowercase","164000","0","3","b717ea380466c1c38bb847234acf71dcb7f3901a0ef1f00baf9b75f825076525","164013.70000004768","549.2999999523163","88","1","swim","","","","",""
"dual-task","null","null","null","","swim","swim","595.8999999761581","","B","null","77","77","1","swim-dual-task","","B","uppercase","176000","0","3","b717ea380466c1c38bb847234acf71dcb7f3901a0ef1f00baf9b75f825076525","176014.10000002384","595.8999999761581","77","1","swim","","","","",""
"dual-task","null","null","null","","swim","swim","786.6000000238419","","b","null","88","88","1","swim-dual-task","","b","lowercase","188000","0","3","b717ea380466c1c38bb847234acf71dcb7f3901a0ef1f00baf9b75f825076525","188004.10000002384","786.6000000238419","88","1","swim","","","","",""
"dual-task","null","null","null","","swim","swim","529.3999999761581","","A","null","77","77","1","swim-dual-task","","A","uppercase","198000","0","3","b717ea380466c1c38bb847234acf71dcb7f3901a0ef1f00baf9b75f825076525","198003.5","529.3999999761581","77","1","swim","","","","",""
"dual-task","null","null","null","","swim","swim","574.1000000238419","","N","null","77","77","1","swim-dual-task","","N","uppercase","208000","0","3","b717ea380466c1c38bb847234acf71dcb7f3901a0ef1f00baf9b75f825076525","208014.20000004768","574.1000000238419","77","1","swim","","","","",""
"dual-task","null","null","null","","swim","swim","679.5","","f","null","88","88","1","swim-dual-task","","f","lowercase","218000","0","3","b717ea380466c1c38bb847234acf71dcb7f3901a0ef1f00baf9b75f825076525","218003.70000004768","679.5","88","1","swim","","","","",""
"dual-task","null","null","null","","swim","swim","686.6999999284744","","a","null","88","88","1","swim-dual-task","","a","lowercase","228000","0","3","b717ea380466c1c38bb847234acf71dcb7f3901a0ef1f00baf9b75f825076525","228003.5","686.6999999284744","88","1","swim","","","","",""
"dual-task","null","null","null","","swim","swim","594.5","","H","null","77","77","1","swim-dual-task","","H","uppercase","240000","0","3","b717ea380466c1c38bb847234acf71dcb7f3901a0ef1f00baf9b75f825076525","240013.90000009537","594.5","77","1","swim","","","","",""
"dual-task","null","null","null","","swim","swim","552","","R","null","77","77","1","swim-dual-task","","R","uppercase","252000","0","3","b717ea380466c1c38bb847234acf71dcb7f3901a0ef1f00baf9b75f825076525","252003.70000004768","552","77","1","swim","","","","",""
"dual-task","null","null","null","","swim","swim","544.3999999761581","","A","null","77","77","1","swim-dual-task","","A","uppercase","260000","0","3","b717ea380466c1c38bb847234acf71dcb7f3901a0ef1f00baf9b75f825076525","260013.80000007153","544.3999999761581","77","1","swim","","","","",""
"dual-task","null","null","null","","swim","swim","627.6999999284744","","T","null","77","77","1","swim-dual-task","","T","uppercase","274000","0","3","b717ea380466c1c38bb847234acf71dcb7f3901a0ef1f00baf9b75f825076525","274013.5","627.6999999284744","77","1","swim","","","","",""
"dual-task","null","null","null","","swim","swim","669.7000000476837","","r","null","88","88","1","swim-dual-task","","r","lowercase","284000","0","3","b717ea380466c1c38bb847234acf71dcb7f3901a0ef1f00baf9b75f825076525","284003.7000000477","669.7000000476837","88","1","swim","","","","",""
"dual-task","null","null","null","","swim","swim","575.8999999761581","","F","null","77","77","1","swim-dual-task","","F","uppercase","296000","0","3","b717ea380466c1c38bb847234acf71dcb7f3901a0ef1f00baf9b75f825076525","296004","575.8999999761581","77","1","swim","","","","",""
"dual-task","null","null","null","","swim","swim","552.6000000238419","","g","null","88","88","1","swim-dual-task","","g","lowercase","310000","0","3","b717ea380466c1c38bb847234acf71dcb7f3901a0ef1f00baf9b75f825076525","310003.8000000715","552.6000000238419","88","1","swim","","","","",""
"dual-task","null","null","null","","swim","swim","591.5","","r","null","88","88","1","swim-dual-task","","r","lowercase","318000","0","3","b717ea380466c1c38bb847234acf71dcb7f3901a0ef1f00baf9b75f825076525","318013.90000009537","591.5","88","1","swim","","","","",""
"dual-task","null","null","null","","swim","swim","490.7999999523163","","G","null","77","77","1","swim-dual-task","","G","uppercase","328000","0","3","b717ea380466c1c38bb847234acf71dcb7f3901a0ef1f00baf9b75f825076525","328003.60000002384","490.7999999523163","77","1","swim","","","","",""
"dual-task","null","null","null","","swim","swim","555.6000000238419","","h","null","88","88","1","swim-dual-task","","h","lowercase","334000","0","3","b717ea380466c1c38bb847234acf71dcb7f3901a0ef1f00baf9b75f825076525","334003.7000000477","555.6000000238419","88","1","swim","","","","",""
"dual-task","null","null","null","","swim","swim","634.2999999523163","","Q","null","77","77","1","swim-dual-task","","Q","uppercase","344000","0","3","b717ea380466c1c38bb847234acf71dcb7f3901a0ef1f00baf9b75f825076525","344003.60000002384","634.2999999523163","77","1","swim","","","","",""
"dual-task","null","null","null","","swim","swim","559.1000000238419","","G","null","77","77","1","swim-dual-task","","G","uppercase","352000","0","3","b717ea380466c1c38bb847234acf71dcb7f3901a0ef1f00baf9b75f825076525","352005.10000002384","559.1000000238419","77","1","swim","","","","",""
"dual-task","null","null","null","","swim","swim","488.8000000715256","","E","null","77","77","1","swim-dual-task","","E","uppercase","366000","0","3","b717ea380466c1c38bb847234acf71dcb7f3901a0ef1f00baf9b75f825076525","366015.7000000477","488.8000000715256","77","1","swim","","","","",""
"dual-task","null","null","null","","swim","swim","513","","T","null","77","77","1","swim-dual-task","","T","uppercase","374000","0","3","b717ea380466c1c38bb847234acf71dcb7f3901a0ef1f00baf9b75f825076525","374013.3000000715","513","77","1","swim","","","","",""
"dual-task","null","null","null","","swim","swim","611.3999999761581","","t","null","88","88","1","swim-dual-task","","t","lowercase","382000","0","3","b717ea380466c1c38bb847234acf71dcb7f3901a0ef1f00baf9b75f825076525","382013.5","611.3999999761581","88","1","swim","","","","",""
"dual-task","null","null","null","","swim","swim","675.6000000238419","","q","null","88","88","1","swim-dual-task","","q","lowercase","392000","0","3","b717ea380466c1c38bb847234acf71dcb7f3901a0ef1f00baf9b75f825076525","392014.3000000715","675.6000000238419","88","1","swim","","","","",""
"dual-task","null","null","null","","swim","swim","502.1999999284744","","b","null","88","88","1","swim-dual-task","","b","lowercase","400000","0","3","b717ea380466c1c38bb847234acf71dcb7f3901a0ef1f00baf9b75f825076525","400003.5","502.1999999284744","88","1","swim","","","","",""
"dual-task","null","null","null","","swim","swim","491.7000000476837","","B","null","77","77","1","swim-dual-task","","B","uppercase","414000","0","3","b717ea380466c1c38bb847234acf71dcb7f3901a0ef1f00baf9b75f825076525","414001.3000000715","491.7000000476837","77","1","swim","","","","",""
"dual-task","null","null","null","","swim","swim","687.8000000715256","","e","null","88","88","1","swim-dual-task","","e","lowercase","424000","0","3","b717ea380466c1c38bb847234acf71dcb7f3901a0ef1f00baf9b75f825076525","424013.7000000477","687.8000000715256","88","1","swim","","","","",""
"dual-task","null","null","null","","swim","swim","597","","n","null","88","88","1","swim-dual-task","","n","lowercase","434000","0","3","b717ea380466c1c38bb847234acf71dcb7f3901a0ef1f00baf9b75f825076525","434003.2000000477","597","88","1","swim","","","","",""
"dual-task","null","null","null","","swim","swim","576","","B","null","77","77","1","swim-dual-task","","B","uppercase","446000","0","3","b717ea380466c1c38bb847234acf71dcb7f3901a0ef1f00baf9b75f825076525","446003.5","576","77","1","swim","","","","",""
"dual-task","null","null","null","","swim","swim","618.3999999761581","","Q","null","77","77","1","swim-dual-task","","Q","uppercase","456000","0","3","b717ea380466c1c38bb847234acf71dcb7f3901a0ef1f00baf9b75f825076525","456004","618.3999999761581","77","1","swim","","","","",""
"dual-task","null","null","null","","swim","swim","632","","F","null","77","77","1","swim-dual-task","","F","uppercase","466000","0","3","b717ea380466c1c38bb847234acf71dcb7f3901a0ef1f00baf9b75f825076525","466004.3000000715","632","77","1","swim","","","","",""
"dual-task","null","null","null","","swim","swim","499.39999997615814","","n","null","88","88","1","swim-dual-task","","n","lowercase","478000","0","3","b717ea380466c1c38bb847234acf71dcb7f3901a0ef1f00baf9b75f825076525","478013.90000009537","499.39999997615814","88","1","swim","","","","",""
"dual-task","null","null","null","","swim","swim","552.8000000715256","","a","null","88","88","1","swim-dual-task","","a","lowercase","488000","0","3","b717ea380466c1c38bb847234acf71dcb7f3901a0ef1f00baf9b75f825076525","488000.90000009537","552.8000000715256","88","1","swim","","","","",""
"dual-task","null","null","null","","swim","swim","421.5","","T","null","77","77","1","swim-dual-task","","T","uppercase","498000","0","3","b717ea380466c1c38bb847234acf71dcb7f3901a0ef1f00baf9b75f825076525","498003.7000000477","421.5","77","1","swim","","","","",""
"dual-task","null","null","null","","swim","swim","607.2000000476837","","g","null","88","88","1","swim-dual-task","","g","lowercase","512000","0","3","b717ea380466c1c38bb847234acf71dcb7f3901a0ef1f00baf9b75f825076525","512009","607.2000000476837","88","1","swim","","","","",""
"dual-task","null","null","null","","swim","swim","437.89999997615814","","b","null","88","88","1","swim-dual-task","","b","lowercase","518000","0","3","b717ea380466c1c38bb847234acf71dcb7f3901a0ef1f00baf9b75f825076525","518009","437.89999997615814","88","1","swim","","","","",""
"dual-task","null","null","null","","swim","swim","399.3000000715256","","d","null","88","88","1","swim-dual-task","","d","lowercase","524000","0","3","b717ea380466c1c38bb847234acf71dcb7f3901a0ef1f00baf9b75f825076525","524009.2000000477","399.3000000715256","88","1","swim","","","","",""
"dual-task","null","null","null","","swim","swim","509.7999999523163","","a","null","88","88","1","swim-dual-task","","a","lowercase","536000","0","3","b717ea380466c1c38bb847234acf71dcb7f3901a0ef1f00baf9b75f825076525","536013.6000000238","509.7999999523163","88","1","swim","","","","",""
"dual-task","null","null","null","","swim","swim","441.1999999284744","","B","null","77","77","1","swim-dual-task","","B","uppercase","550000","0","3","b717ea380466c1c38bb847234acf71dcb7f3901a0ef1f00baf9b75f825076525","550005.3000000715","441.1999999284744","77","1","swim","","","","",""
"dual-task","null","null","null","","swim","swim","712.7999999523163","","t","null","88","88","1","swim-dual-task","","t","lowercase","556000","0","3","b717ea380466c1c38bb847234acf71dcb7f3901a0ef1f00baf9b75f825076525","556003.8000000715","712.7999999523163","88","1","swim","","","","",""
"dual-task","null","null","null","","swim","swim","547.8000000715256","","e","null","88","88","1","swim-dual-task","","e","lowercase","562000","0","3","b717ea380466c1c38bb847234acf71dcb7f3901a0ef1f00baf9b75f825076525","562004.7000000477","547.8000000715256","88","1","swim","","","","",""
"dual-task","null","null","null","","swim","swim","661.7999999523163","","R","null","77","77","1","swim-dual-task","","R","uppercase","568000","0","3","b717ea380466c1c38bb847234acf71dcb7f3901a0ef1f00baf9b75f825076525","568014","661.7999999523163","77","1","swim","","","","",""
"dual-task","null","null","null","","swim","swim","471.10000002384186","","g","null","88","88","1","swim-dual-task","","g","lowercase","580000","0","3","b717ea380466c1c38bb847234acf71dcb7f3901a0ef1f00baf9b75f825076525","580001.6000000238","471.10000002384186","88","1","swim","","","","",""
"dual-task","null","null","null","","swim","swim","507","","E","null","77","77","1","swim-dual-task","","E","uppercase","590000","0","3","b717ea380466c1c38bb847234acf71dcb7f3901a0ef1f00baf9b75f825076525","590004","507","77","1","swim","","","","",""
"dual-task","null","null","null","","swim","swim","582.6999999284744","","t","null","88","88","1","swim-dual-task","","t","lowercase","604000","0","3","b717ea380466c1c38bb847234acf71dcb7f3901a0ef1f00baf9b75f825076525","604013.6000000238","582.6999999284744","88","1","swim","","","","",""
"dual-task","null","null","null","","swim","swim","567.3999999761581","","H","null","77","77","1","swim-dual-task","","H","uppercase","614000","0","3","b717ea380466c1c38bb847234acf71dcb7f3901a0ef1f00baf9b75f825076525","614013.6000000238","567.3999999761581","77","1","swim","","","","",""
"dual-task","null","null","null","","swim","swim","580.8999999761581","","r","null","88","88","1","swim-dual-task","","r","lowercase","624000","0","3","b717ea380466c1c38bb847234acf71dcb7f3901a0ef1f00baf9b75f825076525","624013.5","580.8999999761581","88","1","swim","","","","",""
"dual-task","null","null","null","","swim","swim","540","","n","null","88","88","1","swim-dual-task","","n","lowercase","632000","0","3","b717ea380466c1c38bb847234acf71dcb7f3901a0ef1f00baf9b75f825076525","632013.9000000954","540","88","1","swim","","","","",""
"dual-task","null","null","null","","swim","swim","566.7000000476837","","A","null","77","77","1","swim-dual-task","","A","uppercase","642000","0","3","b717ea380466c1c38bb847234acf71dcb7f3901a0ef1f00baf9b75f825076525","642006.4000000954","566.7000000476837","77","1","swim","","","","",""
"dual-task","null","null","null","","swim","swim","522.6000000238419","","a","null","88","88","1","swim-dual-task","","a","lowercase","648000","0","3","b717ea380466c1c38bb847234acf71dcb7f3901a0ef1f00baf9b75f825076525","648003.6000000238","522.6000000238419","88","1","swim","","","","",""
"dual-task","null","null","null","","swim","swim","516.5999999046326","","R","null","77","77","1","swim-dual-task","","R","uppercase","660000","0","3","b717ea380466c1c38bb847234acf71dcb7f3901a0ef1f00baf9b75f825076525","660003.6000000238","516.5999999046326","77","1","swim","","","","",""
"dual-task","null","null","null","","swim","swim","659.5","","Q","null","77","77","1","swim-dual-task","","Q","uppercase","670000","0","3","b717ea380466c1c38bb847234acf71dcb7f3901a0ef1f00baf9b75f825076525","670013.9000000954","659.5","77","1","swim","","","","",""
"dual-task","null","null","null","","swim","swim","683.0999999046326","","f","null","88","88","1","swim-dual-task","","f","lowercase","680000","0","3","b717ea380466c1c38bb847234acf71dcb7f3901a0ef1f00baf9b75f825076525","680003.6000000238","683.0999999046326","88","1","swim","","","","",""
"dual-task","null","null","null","","swim","swim","618.6999999284744","","D","null","77","77","1","swim-dual-task","","D","uppercase","692000","0","3","b717ea380466c1c38bb847234acf71dcb7f3901a0ef1f00baf9b75f825076525","692013.6000000238","618.6999999284744","77","1","swim","","","","",""
"dual-task","null","null","null","","swim","swim","501.60000002384186","","N","null","77","77","1","swim-dual-task","","N","uppercase","702000","0","3","b717ea380466c1c38bb847234acf71dcb7f3901a0ef1f00baf9b75f825076525","702003.5","501.60000002384186","77","1","swim","","","","",""
"dual-task","null","null","null","","swim","swim","704.2999999523163","","D","null","77","77","1","swim-dual-task","","D","uppercase","710000","0","3","b717ea380466c1c38bb847234acf71dcb7f3901a0ef1f00baf9b75f825076525","710004.9000000954","704.2999999523163","77","1","swim","","","","",""
"dual-task","null","null","null","","swim","swim","625.5","","f","null","88","88","1","swim-dual-task","","f","lowercase","718000","0","3","b717ea380466c1c38bb847234acf71dcb7f3901a0ef1f00baf9b75f825076525","718003.8000000715","625.5","88","1","swim","","","","",""
"dual-task","null","null","null","","swim","swim","514.3999999761581","","T","null","77","77","1","swim-dual-task","","T","uppercase","730000","0","3","b717ea380466c1c38bb847234acf71dcb7f3901a0ef1f00baf9b75f825076525","730005","514.3999999761581","77","1","swim","","","","",""
"dual-task","null","null","null","","swim","swim","501.60000002384186","","D","null","77","77","1","swim-dual-task","","D","uppercase","742000","0","3","b717ea380466c1c38bb847234acf71dcb7f3901a0ef1f00baf9b75f825076525","742003.9000000954","501.60000002384186","77","1","swim","","","","",""
"dual-task","null","null","null","","swim","swim","646.2999999523163","","r","null","88","88","1","swim-dual-task","","r","lowercase","748000","0","3","b717ea380466c1c38bb847234acf71dcb7f3901a0ef1f00baf9b75f825076525","748003.4000000954","646.2999999523163","88","1","swim","","","","",""
"dual-task","null","null","null","","swim","swim","704.6000000238419","","E","null","77","77","1","swim-dual-task","","E","uppercase","762000","0","3","b717ea380466c1c38bb847234acf71dcb7f3901a0ef1f00baf9b75f825076525","762003.6000000238","704.6000000238419","77","1","swim","","","","",""
"dual-task","null","null","null","","swim","swim","865.3000000715256","","f","null","88","88","1","swim-dual-task","","f","lowercase","772000","0","3","b717ea380466c1c38bb847234acf71dcb7f3901a0ef1f00baf9b75f825076525","772003.7000000477","865.3000000715256","88","1","swim","","","","",""
"dual-task","null","null","null","","swim","swim","437.39999997615814","","R","null","77","77","1","swim-dual-task","","R","uppercase","784000","0","3","b717ea380466c1c38bb847234acf71dcb7f3901a0ef1f00baf9b75f825076525","784013.5","437.39999997615814","77","1","swim","","","","",""
"dual-task","null","null","null","","swim","swim","663.6000000238419","","F","null","77","77","1","swim-dual-task","","F","uppercase","792000","0","3","b717ea380466c1c38bb847234acf71dcb7f3901a0ef1f00baf9b75f825076525","792005.3000000715","663.6000000238419","77","1","swim","","","","",""
"audio-keyboard-response","29","1103492","0.0-7.0-0.0-1.0","b717ea380466c1c38bb847234acf71dcb7f3901a0ef1f00baf9b75f825076525","swim","swim","null","","audio/story_swim_scrambled.mp3","","null","","","","","","","","","","","","","","","","","","","",""
"html-button-response","30","1112401","0.0-7.0-0.0-2.0","b717ea380466c1c38bb847234acf71dcb7f3901a0ef1f00baf9b75f825076525","swim","swim","8908","","<p>This concludes the story. Thank you for listening.</p><p>You will now answer some questions about the content of the story.</p>","0","","","","","","","","","","","","","","","","","","","","",""
"survey-multi-choice","31","1121737","0.0-7.0-0.0-3.0-0.0","b717ea380466c1c38bb847234acf71dcb7f3901a0ef1f00baf9b75f825076525","swim","swim","9332","","<b>What were the astronaut candidates trained to do at the naval air station?</b>","","","","1","swim-comprehension","","","","","","","","","","","","","{""Q0"":""Eject out of aircraft and survive in water long enough to be rescued""}","","","",""
"survey-multi-choice","32","1124797","0.0-7.0-0.0-3.0-0.1","b717ea380466c1c38bb847234acf71dcb7f3901a0ef1f00baf9b75f825076525","swim","swim","2803","","<b>Where is the home of naval aviation?</b>","","","","1","swim-comprehension","","","","","","","","","","","","","{""Q0"":""Pensacola""}","","","",""
"survey-multi-choice","33","1137969","0.0-7.0-0.0-3.0-0.2","b717ea380466c1c38bb847234acf71dcb7f3901a0ef1f00baf9b75f825076525","swim","swim","12913","","<b>What was the final step of the first swim test in the pool?</b>","","","","1","swim-comprehension","","","","","","","","","","","","","{""Q0"":""Tread water with hands above the water""}","","","",""
"survey-multi-choice","34","1143453","0.0-7.0-0.0-3.0-0.3","b717ea380466c1c38bb847234acf71dcb7f3901a0ef1f00baf9b75f825076525","swim","swim","5222","","<b>How many times did the astronaut candidates have to complete the final exercise to pass?</b>","","","","1","swim-comprehension","","","","","","","","","","","","","{""Q0"":""Two""}","","","",""
"survey-multi-choice","35","1160473","0.0-7.0-0.0-3.0-0.4","b717ea380466c1c38bb847234acf71dcb7f3901a0ef1f00baf9b75f825076525","swim","swim","16763","","<b>How often does the narrator swim, now that he is a good swimmer?</b>","","","","0","swim-comprehension","","","","","","","","","","","","","{""Q0"":""Every weekend with his kids""}","","","",""
"survey-multi-choice","36","1166307","0.0-7.0-0.0-3.0-0.5","b717ea380466c1c38bb847234acf71dcb7f3901a0ef1f00baf9b75f825076525","swim","swim","5574","","<b>How many astronaut candidates passed the first swim test?</b>","","","","1","swim-comprehension","","","","","","","","","","","","","{""Q0"":""All of them""}","","","",""
"survey-multi-choice","37","1173619","0.0-7.0-0.0-3.0-0.6","b717ea380466c1c38bb847234acf71dcb7f3901a0ef1f00baf9b75f825076525","swim","swim","7056","","<b>How did the narrator train for his swim test?</b>","","","","1","swim-comprehension","","","","","","","","","","","","","{""Q0"":""Took his kids to the pool every day""}","","","",""
"survey-multi-choice","38","1186752","0.0-7.0-0.0-3.0-0.7","b717ea380466c1c38bb847234acf71dcb7f3901a0ef1f00baf9b75f825076525","swim","swim","12878","","<b>What gave the narrator his greatest feeling of accomplishment?</b>","","","","1","swim-comprehension","","","","","","","","","","","","","{""Q0"":""Passing the water survival course""}","","","",""
"survey-multi-choice","39","1191810","0.0-7.0-0.0-3.0-0.8","b717ea380466c1c38bb847234acf71dcb7f3901a0ef1f00baf9b75f825076525","swim","swim","4801","","<b>What is the narrator afraid of, aside from the water?</b>","","","","1","swim-comprehension","","","","","","","","","","","","","{""Q0"":""Heights""}","","","",""
"survey-multi-choice","40","1199343","0.0-7.0-0.0-3.0-0.9","b717ea380466c1c38bb847234acf71dcb7f3901a0ef1f00baf9b75f825076525","swim","swim","7275","","<b>How many astronaut candidates reported for duty at the Johnson Space Center?</b>","","","","1","swim-comprehension","","","","","","","","","","","","","{""Q0"":""Forty-four""}","","","",""
"html-button-response","41","1203068","0.0-7.0-0.0-4.0","b717ea380466c1c38bb847234acf71dcb7f3901a0ef1f00baf9b75f825076525","swim","swim","3469","","<p>Thank you for your responses.</p><p>You will now answer some questions about your impressions of the story.</p>","0","","","","","","","","","","","","","","","","","","","","",""
"html-button-response","42","1210654","0.0-7.0-0.0-5.0-0.0","b717ea380466c1c38bb847234acf71dcb7f3901a0ef1f00baf9b75f825076525","swim","swim","7585","","A2","5","","","","swim-engagement","","","","","","","","","","","","","","6","absorption","",""
"html-button-response","43","1218829","0.0-7.0-0.0-5.0-0.1","b717ea380466c1c38bb847234acf71dcb7f3901a0ef1f00baf9b75f825076525","swim","swim","7922","","A4","4","","","","swim-engagement","","","","","","","","","","","","","","5","absorption","",""
"html-button-response","44","1222562","0.0-7.0-0.0-5.0-0.2","b717ea380466c1c38bb847234acf71dcb7f3901a0ef1f00baf9b75f825076525","swim","swim","3475","","E6","5","","","","swim-engagement","","","","","","","","","","","","","","6","enjoyment","",""
"html-button-response","45","1227978","0.0-7.0-0.0-5.0-0.3","b717ea380466c1c38bb847234acf71dcb7f3901a0ef1f00baf9b75f825076525","swim","swim","5161","","EE5","5","","","","swim-engagement","","","","","","","","","","","","","","6","emo-engage","",""
"html-button-response","46","1233899","0.0-7.0-0.0-5.0-0.4","b717ea380466c1c38bb847234acf71dcb7f3901a0ef1f00baf9b75f825076525","swim","swim","5663","","A1","4","","","","swim-engagement","","","","","","","","","","","","","","5","absorption","",""
"html-button-response","47","1237794","0.0-7.0-0.0-5.0-0.5","b717ea380466c1c38bb847234acf71dcb7f3901a0ef1f00baf9b75f825076525","swim","swim","3635","","E1","5","","","","swim-engagement","","","","","","","","","","","","","","6","enjoyment","",""
"html-button-response","48","1241895","0.0-7.0-0.0-5.0-0.6","b717ea380466c1c38bb847234acf71dcb7f3901a0ef1f00baf9b75f825076525","swim","swim","3847","","MS3","5","","","","swim-engagement","","","","","","","","","","","","","","6","mental-sim","",""
"html-button-response","49","1248227","0.0-7.0-0.0-5.0-0.7","b717ea380466c1c38bb847234acf71dcb7f3901a0ef1f00baf9b75f825076525","swim","swim","6070","","A5","4","","","","swim-engagement","","","","","","","","","","","","","","5","absorption","",""
"html-button-response","50","1251873","0.0-7.0-0.0-5.0-0.8","b717ea380466c1c38bb847234acf71dcb7f3901a0ef1f00baf9b75f825076525","swim","swim","3393","","EE3","5","","","","swim-engagement","","","","","","","","","","","","","","6","emo-engage","",""
"html-button-response","51","1254718","0.0-7.0-0.0-5.0-0.9","b717ea380466c1c38bb847234acf71dcb7f3901a0ef1f00baf9b75f825076525","swim","swim","2588","","E8","4","","","","swim-engagement","","","","","","","","","","","","","","5","enjoyment","",""
"html-button-response","52","1259529","0.0-7.0-0.0-5.0-0.10","b717ea380466c1c38bb847234acf71dcb7f3901a0ef1f00baf9b75f825076525","swim","swim","4553","","MS1","5","","","","swim-engagement","","","","","","","","","","","","","","6","mental-sim","",""
"html-button-response","53","1264487","0.0-7.0-0.0-5.0-0.11","b717ea380466c1c38bb847234acf71dcb7f3901a0ef1f00baf9b75f825076525","swim","swim","4704","","MS2","5","","","","swim-engagement","","","","","","","","","","","","","","6","mental-sim","",""
"html-button-response","54","1269609","0.0-7.0-0.0-5.0-0.12","b717ea380466c1c38bb847234acf71dcb7f3901a0ef1f00baf9b75f825076525","swim","swim","4867","","EE1","5","","","","swim-engagement","","","","","","","","","","","","","","6","emo-engage","",""
"html-button-response","55","1272591","0.0-7.0-0.0-5.0-0.13","b717ea380466c1c38bb847234acf71dcb7f3901a0ef1f00baf9b75f825076525","swim","swim","2720","","A3","5","","","","swim-engagement","","","","","","","","","","","","","","6","absorption","",""
"html-button-response","56","1277063","0.0-7.0-0.0-5.0-0.14","b717ea380466c1c38bb847234acf71dcb7f3901a0ef1f00baf9b75f825076525","swim","swim","4216","","EE4","5","","","","swim-engagement","","","","","","","","","","","","","","6","emo-engage","",""
"html-button-response","57","1279131","0.0-7.0-0.0-5.0-0.15","b717ea380466c1c38bb847234acf71dcb7f3901a0ef1f00baf9b75f825076525","swim","swim","1807","","E7","5","","","","swim-engagement","","","","","","","","","","","","","","6","enjoyment","",""
"html-button-response","58","1281121","0.0-7.0-0.0-5.0-0.16","b717ea380466c1c38bb847234acf71dcb7f3901a0ef1f00baf9b75f825076525","swim","swim","1732","","E10","5","","","","swim-engagement","","","","","","","","","","","","","","6","enjoyment","",""
"html-button-response","59","1284709","0.0-7.0-0.0-5.0-0.17","b717ea380466c1c38bb847234acf71dcb7f3901a0ef1f00baf9b75f825076525","swim","swim","3325","","EE2","4","","","","swim-engagement","","","","","","","","","","","","","","5","emo-engage","",""
"html-keyboard-response","60","1296255","0.0-7.0-1.0","b717ea380466c1c38bb847234acf71dcb7f3901a0ef1f00baf9b75f825076525","swim","swim","11287","","<p>Thank you for your responses. You will now listen to the second story.</p><p>Remember, as you listen to the story you will see letters appear on the screen.</br>As quickly as possible, press <b>&lt;x&gt;</b> if the letter is lowercase and <b>&lt;m&gt;</b> if the letter is uppercase.</p><p>Press <b>&lt;x&gt;</b> or <b>&lt;m&gt;</b> to begin listening!</p>","","88","","","","","","","","","","","","","","","","","","","",""
"html-keyboard-response","61","1296763","0.0-7.0-2.0-0.0","b717ea380466c1c38bb847234acf71dcb7f3901a0ef1f00baf9b75f825076525","swim","swim","null","","<div style=""font-size:60px;"" tabindex=""0"">+</div>","","null","","","","","","","","","","","","","","","","","","","",""
"dual-task","null","null","null","","swim","swim","788.3999999761581","","B","null","77","77","1","arctic-dual-task","","B","uppercase","14000","0","3","b717ea380466c1c38bb847234acf71dcb7f3901a0ef1f00baf9b75f825076525","14008.700000047684","788.3999999761581","77","1","arctic","","","","",""
"dual-task","null","null","null","","swim","swim","535.2000000476837","","r","null","88","88","1","arctic-dual-task","","r","lowercase","28000","0","3","b717ea380466c1c38bb847234acf71dcb7f3901a0ef1f00baf9b75f825076525","27998.300000071526","535.2000000476837","88","1","arctic","","","","",""
"dual-task","null","null","null","","swim","swim","455.5","","H","null","77","77","1","arctic-dual-task","","H","uppercase","38000","0","3","b717ea380466c1c38bb847234acf71dcb7f3901a0ef1f00baf9b75f825076525","38011.800000071526","455.5","77","1","arctic","","","","",""
"dual-task","null","null","null","","swim","swim","497.2000000476837","","G","null","88","77","0","arctic-dual-task","","G","uppercase","50000","0","3","b717ea380466c1c38bb847234acf71dcb7f3901a0ef1f00baf9b75f825076525","50001.300000071526","497.2000000476837","88","0","arctic","","","","",""
"dual-task","null","null","null","","swim","swim","459.60000002384186","","T","null","77","77","1","arctic-dual-task","","T","uppercase","58000","0","3","b717ea380466c1c38bb847234acf71dcb7f3901a0ef1f00baf9b75f825076525","58012.300000071526","459.60000002384186","77","1","arctic","","","","",""
"dual-task","null","null","null","","swim","swim","501.7999999523163","","B","null","77","77","1","arctic-dual-task","","B","uppercase","70000","0","3","b717ea380466c1c38bb847234acf71dcb7f3901a0ef1f00baf9b75f825076525","70001","501.7999999523163","77","1","arctic","","","","",""
"dual-task","null","null","null","","swim","swim","976.6000000238419","","f","null","88","88","1","arctic-dual-task","","f","lowercase","84000","0","3","b717ea380466c1c38bb847234acf71dcb7f3901a0ef1f00baf9b75f825076525","84001.5","976.6000000238419","88","1","arctic","","","","",""
"dual-task","null","null","null","","swim","swim","583.1000000238419","","R","null","77","77","1","arctic-dual-task","","R","uppercase","98000","0","3","b717ea380466c1c38bb847234acf71dcb7f3901a0ef1f00baf9b75f825076525","98006","583.1000000238419","77","1","arctic","","","","",""
"dual-task","null","null","null","","swim","swim","577.7000000476837","","f","null","88","88","1","arctic-dual-task","","f","lowercase","112000","0","3","b717ea380466c1c38bb847234acf71dcb7f3901a0ef1f00baf9b75f825076525","112001.80000007153","577.7000000476837","88","1","arctic","","","","",""
"dual-task","null","null","null","","swim","swim","513.8999999761581","","N","null","77","77","1","arctic-dual-task","","N","uppercase","120000","0","3","b717ea380466c1c38bb847234acf71dcb7f3901a0ef1f00baf9b75f825076525","120001.70000004768","513.8999999761581","77","1","arctic","","","","",""
"dual-task","null","null","null","","swim","swim","605.5","","e","null","77","88","0","arctic-dual-task","","e","lowercase","132000","0","3","b717ea380466c1c38bb847234acf71dcb7f3901a0ef1f00baf9b75f825076525","132011.30000007153","605.5","77","0","arctic","","","","",""
"dual-task","null","null","null","","swim","swim","501.39999997615814","","N","null","77","77","1","arctic-dual-task","","N","uppercase","146000","0","3","b717ea380466c1c38bb847234acf71dcb7f3901a0ef1f00baf9b75f825076525","146006.5","501.39999997615814","77","1","arctic","","","","",""
"dual-task","null","null","null","","swim","swim","445.89999997615814","","D","null","77","77","1","arctic-dual-task","","D","uppercase","154000","0","3","b717ea380466c1c38bb847234acf71dcb7f3901a0ef1f00baf9b75f825076525","154011.30000007153","445.89999997615814","77","1","arctic","","","","",""
"dual-task","null","null","null","","swim","swim","548.2999999523163","","e","null","88","88","1","arctic-dual-task","","e","lowercase","164000","0","3","b717ea380466c1c38bb847234acf71dcb7f3901a0ef1f00baf9b75f825076525","164001","548.2999999523163","88","1","arctic","","","","",""
"dual-task","null","null","null","","swim","swim","464.2999999523163","","q","null","88","88","1","arctic-dual-task","","q","lowercase","178000","0","3","b717ea380466c1c38bb847234acf71dcb7f3901a0ef1f00baf9b75f825076525","178001.40000009537","464.2999999523163","88","1","arctic","","","","",""
"dual-task","null","null","null","","swim","swim","549.2000000476837","","r","null","88","88","1","arctic-dual-task","","r","lowercase","186000","0","3","b717ea380466c1c38bb847234acf71dcb7f3901a0ef1f00baf9b75f825076525","186001.30000007153","549.2000000476837","88","1","arctic","","","","",""
"dual-task","null","null","null","","swim","swim","512.5","","Q","null","77","77","1","arctic-dual-task","","Q","uppercase","200000","0","3","b717ea380466c1c38bb847234acf71dcb7f3901a0ef1f00baf9b75f825076525","200011.80000007153","512.5","77","1","arctic","","","","",""
"dual-task","null","null","null","","swim","swim","735.2999999523163","","b","null","88","88","1","arctic-dual-task","","b","lowercase","212000","0","3","b717ea380466c1c38bb847234acf71dcb7f3901a0ef1f00baf9b75f825076525","212001.20000004768","735.2999999523163","88","1","arctic","","","","",""
"dual-task","null","null","null","","swim","swim","717.6999999284744","","D","null","77","77","1","arctic-dual-task","","D","uppercase","220000","0","3","b717ea380466c1c38bb847234acf71dcb7f3901a0ef1f00baf9b75f825076525","220001.60000002384","717.6999999284744","77","1","arctic","","","","",""
"dual-task","null","null","null","","swim","swim","489.10000002384186","","Q","null","77","77","1","arctic-dual-task","","Q","uppercase","234000","0","3","b717ea380466c1c38bb847234acf71dcb7f3901a0ef1f00baf9b75f825076525","233999.90000009537","489.10000002384186","77","1","arctic","","","","",""
"dual-task","null","null","null","","swim","swim","482.2999999523163","","R","null","77","77","1","arctic-dual-task","","R","uppercase","246000","0","3","b717ea380466c1c38bb847234acf71dcb7f3901a0ef1f00baf9b75f825076525","246010","482.2999999523163","77","1","arctic","","","","",""
"dual-task","null","null","null","","swim","swim","535.2000000476837","","d","null","88","88","1","arctic-dual-task","","d","lowercase","256000","0","3","b717ea380466c1c38bb847234acf71dcb7f3901a0ef1f00baf9b75f825076525","256011.5","535.2000000476837","88","1","arctic","","","","",""
"dual-task","null","null","null","","swim","swim","531.7000000476837","","G","null","77","77","1","arctic-dual-task","","G","uppercase","264000","0","3","b717ea380466c1c38bb847234acf71dcb7f3901a0ef1f00baf9b75f825076525","264001.3000000715","531.7000000476837","77","1","arctic","","","","",""
"dual-task","null","null","null","","swim","swim","507.39999997615814","","G","null","77","77","1","arctic-dual-task","","G","uppercase","274000","0","3","b717ea380466c1c38bb847234acf71dcb7f3901a0ef1f00baf9b75f825076525","274011.2000000477","507.39999997615814","77","1","arctic","","","","",""
"dual-task","null","null","null","","swim","swim","672.1999999284744","","H","null","77","77","1","arctic-dual-task","","H","uppercase","286000","0","3","b717ea380466c1c38bb847234acf71dcb7f3901a0ef1f00baf9b75f825076525","286000.60000002384","672.1999999284744","77","1","arctic","","","","",""
"dual-task","null","null","null","","swim","swim","490.5","","d","null","88","88","1","arctic-dual-task","","d","lowercase","296000","0","3","b717ea380466c1c38bb847234acf71dcb7f3901a0ef1f00baf9b75f825076525","296001.3000000715","490.5","88","1","arctic","","","","",""
"dual-task","null","null","null","","swim","swim","559.1000000238419","","t","null","88","88","1","arctic-dual-task","","t","lowercase","306000","0","3","b717ea380466c1c38bb847234acf71dcb7f3901a0ef1f00baf9b75f825076525","306013.40000009537","559.1000000238419","88","1","arctic","","","","",""
"dual-task","null","null","null","","swim","swim","500","","g","null","88","88","1","arctic-dual-task","","g","lowercase","314000","0","3","b717ea380466c1c38bb847234acf71dcb7f3901a0ef1f00baf9b75f825076525","314001.5","500","88","1","arctic","","","","",""
"dual-task","null","null","null","","swim","swim","397.8000000715256","","h","null","88","88","1","arctic-dual-task","","h","lowercase","326000","0","3","b717ea380466c1c38bb847234acf71dcb7f3901a0ef1f00baf9b75f825076525","326011.60000002384","397.8000000715256","88","1","arctic","","","","",""
"dual-task","null","null","null","","swim","swim","733.8999999761581","","E","null","77","77","1","arctic-dual-task","","E","uppercase","334000","0","3","b717ea380466c1c38bb847234acf71dcb7f3901a0ef1f00baf9b75f825076525","334001.7000000477","733.8999999761581","77","1","arctic","","","","",""
"dual-task","null","null","null","","swim","swim","519.7000000476837","","A","null","77","77","1","arctic-dual-task","","A","uppercase","346000","0","3","b717ea380466c1c38bb847234acf71dcb7f3901a0ef1f00baf9b75f825076525","346006.3000000715","519.7000000476837","77","1","arctic","","","","",""
"dual-task","null","null","null","","swim","swim","492.60000002384186","","q","null","88","88","1","arctic-dual-task","","q","lowercase","356000","0","3","b717ea380466c1c38bb847234acf71dcb7f3901a0ef1f00baf9b75f825076525","356001","492.60000002384186","88","1","arctic","","","","",""
"dual-task","null","null","null","","swim","swim","501","","a","null","88","88","1","arctic-dual-task","","a","lowercase","366000","0","3","b717ea380466c1c38bb847234acf71dcb7f3901a0ef1f00baf9b75f825076525","366001.3000000715","501","88","1","arctic","","","","",""
"dual-task","null","null","null","","swim","swim","481.8000000715256","","h","null","88","88","1","arctic-dual-task","","h","lowercase","376000","0","3","b717ea380466c1c38bb847234acf71dcb7f3901a0ef1f00baf9b75f825076525","376005.2000000477","481.8000000715256","88","1","arctic","","","","",""
"dual-task","null","null","null","","swim","swim","551.8999999761581","","T","null","77","77","1","arctic-dual-task","","T","uppercase","386000","0","3","b717ea380466c1c38bb847234acf71dcb7f3901a0ef1f00baf9b75f825076525","386001.40000009537","551.8999999761581","77","1","arctic","","","","",""
"dual-task","null","null","null","","swim","swim","511.39999997615814","","A","null","77","77","1","arctic-dual-task","","A","uppercase","398000","0","3","b717ea380466c1c38bb847234acf71dcb7f3901a0ef1f00baf9b75f825076525","398001.60000002384","511.39999997615814","77","1","arctic","","","","",""
"dual-task","null","null","null","","swim","swim","664.8999999761581","","a","null","88","88","1","arctic-dual-task","","a","lowercase","404000","0","3","b717ea380466c1c38bb847234acf71dcb7f3901a0ef1f00baf9b75f825076525","404011.10000002384","664.8999999761581","88","1","arctic","","","","",""
"dual-task","null","null","null","","swim","swim","436.5","","A","null","77","77","1","arctic-dual-task","","A","uppercase","418000","0","3","b717ea380466c1c38bb847234acf71dcb7f3901a0ef1f00baf9b75f825076525","418006.40000009537","436.5","77","1","arctic","","","","",""
"dual-task","null","null","null","","swim","swim","519.7999999523163","","t","null","88","88","1","arctic-dual-task","","t","lowercase","424000","0","3","b717ea380466c1c38bb847234acf71dcb7f3901a0ef1f00baf9b75f825076525","424001.2000000477","519.7999999523163","88","1","arctic","","","","",""
"dual-task","null","null","null","","swim","swim","511","","N","null","77","77","1","arctic-dual-task","","N","uppercase","436000","0","3","b717ea380466c1c38bb847234acf71dcb7f3901a0ef1f00baf9b75f825076525","436001.5","511","77","1","arctic","","","","",""
"dual-task","null","null","null","","swim","swim","707.6999999284744","","b","null","77","88","0","arctic-dual-task","","b","lowercase","446000","0","3","b717ea380466c1c38bb847234acf71dcb7f3901a0ef1f00baf9b75f825076525","446001.5","707.6999999284744","77","0","arctic","","","","",""
"dual-task","null","null","null","","swim","swim","844","","f","null","88","88","1","arctic-dual-task","","f","lowercase","452000","0","3","b717ea380466c1c38bb847234acf71dcb7f3901a0ef1f00baf9b75f825076525","452001.10000002384","844","88","1","arctic","","","","",""
"dual-task","null","null","null","","swim","swim","742.8999999761581","","N","null","77","77","1","arctic-dual-task","","N","uppercase","460000","0","3","b717ea380466c1c38bb847234acf71dcb7f3901a0ef1f00baf9b75f825076525","460001.40000009537","742.8999999761581","77","1","arctic","","","","",""
"dual-task","null","null","null","","swim","swim","499.7000000476837","","T","null","77","77","1","arctic-dual-task","","T","uppercase","468000","0","3","b717ea380466c1c38bb847234acf71dcb7f3901a0ef1f00baf9b75f825076525","468011.60000002384","499.7000000476837","77","1","arctic","","","","",""
"dual-task","null","null","null","","swim","swim","449.5","","A","null","77","77","1","arctic-dual-task","","A","uppercase","474000","0","3","b717ea380466c1c38bb847234acf71dcb7f3901a0ef1f00baf9b75f825076525","474001.3000000715","449.5","77","1","arctic","","","","",""
"dual-task","null","null","null","","swim","swim","567.8000000715256","","t","null","88","88","1","arctic-dual-task","","t","lowercase","484000","0","3","b717ea380466c1c38bb847234acf71dcb7f3901a0ef1f00baf9b75f825076525","484010.40000009537","567.8000000715256","88","1","arctic","","","","",""
"dual-task","null","null","null","","swim","swim","596.6999999284744","","n","null","88","88","1","arctic-dual-task","","n","lowercase","498000","0","3","b717ea380466c1c38bb847234acf71dcb7f3901a0ef1f00baf9b75f825076525","498001.10000002384","596.6999999284744","88","1","arctic","","","","",""
"dual-task","null","null","null","","swim","swim","553.9000000953674","","a","null","88","88","1","arctic-dual-task","","a","lowercase","504000","0","3","b717ea380466c1c38bb847234acf71dcb7f3901a0ef1f00baf9b75f825076525","504006.90000009537","553.9000000953674","88","1","arctic","","","","",""
"dual-task","null","null","null","","swim","swim","615.8999999761581","","r","null","88","88","1","arctic-dual-task","","r","lowercase","512000","0","3","b717ea380466c1c38bb847234acf71dcb7f3901a0ef1f00baf9b75f825076525","512001.7000000477","615.8999999761581","88","1","arctic","","","","",""
"dual-task","null","null","null","","swim","swim","505.10000002384186","","B","null","88","77","0","arctic-dual-task","","B","uppercase","518000","0","3","b717ea380466c1c38bb847234acf71dcb7f3901a0ef1f00baf9b75f825076525","518006.7000000477","505.10000002384186","88","0","arctic","","","","",""
"dual-task","null","null","null","","swim","swim","515.7000000476837","","h","null","88","88","1","arctic-dual-task","","h","lowercase","528000","0","3","b717ea380466c1c38bb847234acf71dcb7f3901a0ef1f00baf9b75f825076525","528001.3000000715","515.7000000476837","88","1","arctic","","","","",""
"dual-task","null","null","null","","swim","swim","427.39999997615814","","R","null","77","77","1","arctic-dual-task","","R","uppercase","536000","0","3","b717ea380466c1c38bb847234acf71dcb7f3901a0ef1f00baf9b75f825076525","536001.3000000715","427.39999997615814","77","1","arctic","","","","",""
"dual-task","null","null","null","","swim","swim","556.6999999284744","","d","null","88","88","1","arctic-dual-task","","d","lowercase","548000","0","3","b717ea380466c1c38bb847234acf71dcb7f3901a0ef1f00baf9b75f825076525","548011.4000000954","556.6999999284744","88","1","arctic","","","","",""
"dual-task","null","null","null","","swim","swim","570.2000000476837","","F","null","77","77","1","arctic-dual-task","","F","uppercase","556000","0","3","b717ea380466c1c38bb847234acf71dcb7f3901a0ef1f00baf9b75f825076525","556011.3000000715","570.2000000476837","77","1","arctic","","","","",""
"dual-task","null","null","null","","swim","swim","519.1000000238419","","H","null","77","77","1","arctic-dual-task","","H","uppercase","568000","0","3","b717ea380466c1c38bb847234acf71dcb7f3901a0ef1f00baf9b75f825076525","568001.6000000238","519.1000000238419","77","1","arctic","","","","",""
"dual-task","null","null","null","","swim","swim","519","","G","null","77","77","1","arctic-dual-task","","G","uppercase","576000","0","3","b717ea380466c1c38bb847234acf71dcb7f3901a0ef1f00baf9b75f825076525","576001.6000000238","519","77","1","arctic","","","","",""
"dual-task","null","null","null","","swim","swim","598.1999999284744","","E","null","77","77","1","arctic-dual-task","","E","uppercase","584000","0","3","b717ea380466c1c38bb847234acf71dcb7f3901a0ef1f00baf9b75f825076525","584000.5","598.1999999284744","77","1","arctic","","","","",""
"dual-task","null","null","null","","swim","swim","476.2000000476837","","Q","null","77","77","1","arctic-dual-task","","Q","uppercase","592000","0","3","b717ea380466c1c38bb847234acf71dcb7f3901a0ef1f00baf9b75f825076525","592000.9000000954","476.2000000476837","77","1","arctic","","","","",""
"dual-task","null","null","null","","swim","swim","443.7999999523163","","E","null","77","77","1","arctic-dual-task","","E","uppercase","600000","0","3","b717ea380466c1c38bb847234acf71dcb7f3901a0ef1f00baf9b75f825076525","600001.2000000477","443.7999999523163","77","1","arctic","","","","",""
"dual-task","null","null","null","","swim","swim","585.7000000476837","","E","null","77","77","1","arctic-dual-task","","E","uppercase","614000","0","3","b717ea380466c1c38bb847234acf71dcb7f3901a0ef1f00baf9b75f825076525","614001.5","585.7000000476837","77","1","arctic","","","","",""
"dual-task","null","null","null","","swim","swim","484.60000002384186","","R","null","77","77","1","arctic-dual-task","","R","uppercase","622000","0","3","b717ea380466c1c38bb847234acf71dcb7f3901a0ef1f00baf9b75f825076525","622001.4000000954","484.60000002384186","77","1","arctic","","","","",""
"dual-task","null","null","null","","swim","swim","457.5","","n","null","77","88","0","arctic-dual-task","","n","lowercase","628000","0","3","b717ea380466c1c38bb847234acf71dcb7f3901a0ef1f00baf9b75f825076525","628006.1000000238","457.5","77","0","arctic","","","","",""
"dual-task","null","null","null","","swim","swim","419.2999999523163","","n","null","88","88","1","arctic-dual-task","","n","lowercase","636000","0","3","b717ea380466c1c38bb847234acf71dcb7f3901a0ef1f00baf9b75f825076525","636001.2000000477","419.2999999523163","88","1","arctic","","","","",""
"dual-task","null","null","null","","swim","swim","787.6000000238419","","T","null","77","77","1","arctic-dual-task","","T","uppercase","642000","0","3","b717ea380466c1c38bb847234acf71dcb7f3901a0ef1f00baf9b75f825076525","642011.2000000477","787.6000000238419","77","1","arctic","","","","",""
"dual-task","null","null","null","","swim","swim","551.7000000476837","","g","null","88","88","1","arctic-dual-task","","g","lowercase","650000","0","3","b717ea380466c1c38bb847234acf71dcb7f3901a0ef1f00baf9b75f825076525","650011.3000000715","551.7000000476837","88","1","arctic","","","","",""
"dual-task","null","null","null","","swim","swim","478.1999999284744","","F","null","77","77","1","arctic-dual-task","","F","uppercase","662000","0","3","b717ea380466c1c38bb847234acf71dcb7f3901a0ef1f00baf9b75f825076525","662001","478.1999999284744","77","1","arctic","","","","",""
"dual-task","null","null","null","","swim","swim","724.5","","g","null","88","88","1","arctic-dual-task","","g","lowercase","668000","0","3","b717ea380466c1c38bb847234acf71dcb7f3901a0ef1f00baf9b75f825076525","668001.2000000477","724.5","88","1","arctic","","","","",""
"dual-task","null","null","null","","swim","swim","514.3999999761581","","q","null","88","88","1","arctic-dual-task","","q","lowercase","674000","0","3","b717ea380466c1c38bb847234acf71dcb7f3901a0ef1f00baf9b75f825076525","674000.7000000477","514.3999999761581","88","1","arctic","","","","",""
"dual-task","null","null","null","","swim","swim","498.8000000715256","","b","null","88","88","1","arctic-dual-task","","b","lowercase","682000","0","3","b717ea380466c1c38bb847234acf71dcb7f3901a0ef1f00baf9b75f825076525","682001.6000000238","498.8000000715256","88","1","arctic","","","","",""
"dual-task","null","null","null","","swim","swim","479.3000000715256","","D","null","77","77","1","arctic-dual-task","","D","uppercase","696000","0","3","b717ea380466c1c38bb847234acf71dcb7f3901a0ef1f00baf9b75f825076525","696010.8000000715","479.3000000715256","77","1","arctic","","","","",""
"dual-task","null","null","null","","swim","swim","482.6999999284744","","H","null","77","77","1","arctic-dual-task","","H","uppercase","704000","0","3","b717ea380466c1c38bb847234acf71dcb7f3901a0ef1f00baf9b75f825076525","704011.1000000238","482.6999999284744","77","1","arctic","","","","",""
"dual-task","null","null","null","","swim","swim","438.60000002384186","","Q","null","77","77","1","arctic-dual-task","","Q","uppercase","710000","0","3","b717ea380466c1c38bb847234acf71dcb7f3901a0ef1f00baf9b75f825076525","710001.6000000238","438.60000002384186","77","1","arctic","","","","",""
"dual-task","null","null","null","","swim","swim","573.7000000476837","","b","null","88","88","1","arctic-dual-task","","b","lowercase","722000","0","3","b717ea380466c1c38bb847234acf71dcb7f3901a0ef1f00baf9b75f825076525","722000","573.7000000476837","88","1","arctic","","","","",""
"dual-task","null","null","null","","swim","swim","662.8999999761581","","D","null","77","77","1","arctic-dual-task","","D","uppercase","730000","0","3","b717ea380466c1c38bb847234acf71dcb7f3901a0ef1f00baf9b75f825076525","730001.3000000715","662.8999999761581","77","1","arctic","","","","",""
"dual-task","null","null","null","","swim","swim","549.3999999761581","","e","null","88","88","1","arctic-dual-task","","e","lowercase","740000","0","3","b717ea380466c1c38bb847234acf71dcb7f3901a0ef1f00baf9b75f825076525","740011.2000000477","549.3999999761581","88","1","arctic","","","","",""
"dual-task","null","null","null","","swim","swim","483","","a","null","88","88","1","arctic-dual-task","","a","lowercase","750000","0","3","b717ea380466c1c38bb847234acf71dcb7f3901a0ef1f00baf9b75f825076525","750006.4000000954","483","88","1","arctic","","","","",""
"dual-task","null","null","null","","swim","swim","516.2999999523163","","r","null","88","88","1","arctic-dual-task","","r","lowercase","758000","0","3","b717ea380466c1c38bb847234acf71dcb7f3901a0ef1f00baf9b75f825076525","758011","516.2999999523163","88","1","arctic","","","","",""
"dual-task","null","null","null","","swim","swim","593.3000000715256","","F","null","77","77","1","arctic-dual-task","","F","uppercase","772000","0","3","b717ea380466c1c38bb847234acf71dcb7f3901a0ef1f00baf9b75f825076525","772001.2000000477","593.3000000715256","77","1","arctic","","","","",""
"dual-task","null","null","null","","swim","swim","705.5","","q","null","88","88","1","arctic-dual-task","","q","lowercase","782000","0","3","b717ea380466c1c38bb847234acf71dcb7f3901a0ef1f00baf9b75f825076525","782010.6000000238","705.5","88","1","arctic","","","","",""
"audio-keyboard-response","62","2095491","0.0-7.0-2.0-1.0","b717ea380466c1c38bb847234acf71dcb7f3901a0ef1f00baf9b75f825076525","swim","swim","null","","audio/story_arctic.mp3","","null","","","","","","","","","","","","","","","","","","","",""
"html-button-response","63","2100226","0.0-7.0-2.0-2.0","b717ea380466c1c38bb847234acf71dcb7f3901a0ef1f00baf9b75f825076525","swim","swim","4733","","<p>This concludes the story. Thank you for listening.</p><p>You will now answer some questions about the content of the story.</p>","0","","","","","","","","","","","","","","","","","","","","",""
"survey-multi-choice","64","2106578","0.0-7.0-2.0-3.0-0.0","b717ea380466c1c38bb847234acf71dcb7f3901a0ef1f00baf9b75f825076525","swim","swim","6349","","<b>What did the narrator do for leisure while in her tent?</b>","","","","1","arctic-comprehension","","","","","","","","","","","","","{""Q0"":""Read""}","","","",""
"survey-multi-choice","65","2114020","0.0-7.0-2.0-3.0-0.1","b717ea380466c1c38bb847234acf71dcb7f3901a0ef1f00baf9b75f825076525","swim","swim","7167","","<b>What were the weather conditions in the Arctic like the winter of the narrator&#39;s expedition?</b>","","","","1","arctic-comprehension","","","","","","","","","","","","","{""Q0"":""There were more storms than any other winter in recorded history.""}","","","",""
"survey-multi-choice","66","2119624","0.0-7.0-2.0-3.0-0.2","b717ea380466c1c38bb847234acf71dcb7f3901a0ef1f00baf9b75f825076525","swim","swim","5330","","<b>What was the objective of the narrator&#39;s expedition?</b>","","","","1","arctic-comprehension","","","","","","","","","","","","","{""Q0"":""Dogsled across Arctic America""}","","","",""
"survey-multi-choice","67","2123590","0.0-7.0-2.0-3.0-0.3","b717ea380466c1c38bb847234acf71dcb7f3901a0ef1f00baf9b75f825076525","swim","swim","3705","","<b>What is the name of the narrator&#39;s neighbour?</b>","","","","1","arctic-comprehension","","","","","","","","","","","","","{""Q0"":""Dave""}","","","",""
"survey-multi-choice","68","2128969","0.0-7.0-2.0-3.0-0.4","b717ea380466c1c38bb847234acf71dcb7f3901a0ef1f00baf9b75f825076525","swim","swim","5110","","<b>How many sponsorships did the narrator receive to support her expedition?</b>","","","","1","arctic-comprehension","","","","","","","","","","","","","{""Q0"":""None""}","","","",""
"survey-multi-choice","69","2136755","0.0-7.0-2.0-3.0-0.5","b717ea380466c1c38bb847234acf71dcb7f3901a0ef1f00baf9b75f825076525","swim","swim","7527","","<b>How did the dogs respond when they saw the bears?</b>","","","","1","arctic-comprehension","","","","","","","","","","","","","{""Q0"":""Approached them""}","","","",""
"survey-multi-choice","70","2143688","0.0-7.0-2.0-3.0-0.6","b717ea380466c1c38bb847234acf71dcb7f3901a0ef1f00baf9b75f825076525","swim","swim","6677","","<b>Which dog on the narrator&#39;s dog team never followed instructions?</b>","","","","1","arctic-comprehension","","","","","","","","","","","","","{""Q0"":""Robert""}","","","",""
"survey-multi-choice","71","2151157","0.0-7.0-2.0-3.0-0.7","b717ea380466c1c38bb847234acf71dcb7f3901a0ef1f00baf9b75f825076525","swim","swim","7213","","<b>How did the narrator&#39;s neighbour respond when she told him about her expedition?</b>","","","","1","arctic-comprehension","","","","","","","","","","","","","{""Q0"":""He said she was going to fail.""}","","","",""
"survey-multi-choice","72","2158115","0.0-7.0-2.0-3.0-0.8","b717ea380466c1c38bb847234acf71dcb7f3901a0ef1f00baf9b75f825076525","swim","swim","6694","","<b>How did the narrator&#39;s encounter with the polar bears end?</b>","","","","1","arctic-comprehension","","","","","","","","","","","","","{""Q0"":""The bears walked back to their den.""}","","","",""
"survey-multi-choice","73","2167243","0.0-7.0-2.0-3.0-0.9","b717ea380466c1c38bb847234acf71dcb7f3901a0ef1f00baf9b75f825076525","swim","swim","8861","","<b>How did the narrator prepare for her expedition?</b>","","","","1","arctic-comprehension","","","","","","","","","","","","","{""Q0"":""Trained in Alaska learning how to dogsled""}","","","",""
"html-button-response","74","2169816","0.0-7.0-2.0-4.0","b717ea380466c1c38bb847234acf71dcb7f3901a0ef1f00baf9b75f825076525","swim","swim","2321","","<p>Thank you for your responses.</p><p>You will now answer some questions about your impressions of the story.</p>","0","","","","","","","","","","","","","","","","","","","","",""
"html-button-response","75","2173511","0.0-7.0-2.0-5.0-0.0","b717ea380466c1c38bb847234acf71dcb7f3901a0ef1f00baf9b75f825076525","swim","swim","3694","","EE5","5","","","","arctic-engagement","","","","","","","","","","","","","","6","emo-engage","",""
"html-button-response","76","2178012","0.0-7.0-2.0-5.0-0.1","b717ea380466c1c38bb847234acf71dcb7f3901a0ef1f00baf9b75f825076525","swim","swim","4243","","A5","5","","","","arctic-engagement","","","","","","","","","","","","","","6","absorption","",""
"html-button-response","77","2181314","0.0-7.0-2.0-5.0-0.2","b717ea380466c1c38bb847234acf71dcb7f3901a0ef1f00baf9b75f825076525","swim","swim","3050","","EE3","5","","","","arctic-engagement","","","","","","","","","","","","","","6","emo-engage","",""
"html-button-response","78","2185127","0.0-7.0-2.0-5.0-0.3","b717ea380466c1c38bb847234acf71dcb7f3901a0ef1f00baf9b75f825076525","swim","swim","3552","","A1","5","","","","arctic-engagement","","","","","","","","","","","","","","6","absorption","",""
"html-button-response","79","2188831","0.0-7.0-2.0-5.0-0.4","b717ea380466c1c38bb847234acf71dcb7f3901a0ef1f00baf9b75f825076525","swim","swim","3443","","MS2","5","","","","arctic-engagement","","","","","","","","","","","","","","6","mental-sim","",""
"html-button-response","80","2193464","0.0-7.0-2.0-5.0-0.5","b717ea380466c1c38bb847234acf71dcb7f3901a0ef1f00baf9b75f825076525","swim","swim","4377","","A4","5","","","","arctic-engagement","","","","","","","","","","","","","","6","absorption","",""
"html-button-response","81","2196378","0.0-7.0-2.0-5.0-0.6","b717ea380466c1c38bb847234acf71dcb7f3901a0ef1f00baf9b75f825076525","swim","swim","2659","","E6","6","","","","arctic-engagement","","","","","","","","","","","","","","7","enjoyment","",""
"html-button-response","82","2198896","0.0-7.0-2.0-5.0-0.7","b717ea380466c1c38bb847234acf71dcb7f3901a0ef1f00baf9b75f825076525","swim","swim","2264","","E10","5","","","","arctic-engagement","","","","","","","","","","","","","","6","enjoyment","",""
"html-button-response","83","2201368","0.0-7.0-2.0-5.0-0.8","b717ea380466c1c38bb847234acf71dcb7f3901a0ef1f00baf9b75f825076525","swim","swim","2212","","E7","6","","","","arctic-engagement","","","","","","","","","","","","","","7","enjoyment","",""
"html-button-response","84","2203468","0.0-7.0-2.0-5.0-0.9","b717ea380466c1c38bb847234acf71dcb7f3901a0ef1f00baf9b75f825076525","swim","swim","1846","","EE4","5","","","","arctic-engagement","","","","","","","","","","","","","","6","emo-engage","",""
"html-button-response","85","2206614","0.0-7.0-2.0-5.0-0.10","b717ea380466c1c38bb847234acf71dcb7f3901a0ef1f00baf9b75f825076525","swim","swim","2892","","E8","5","","","","arctic-engagement","","","","","","","","","","","","","","6","enjoyment","",""
"html-button-response","86","2208630","0.0-7.0-2.0-5.0-0.11","b717ea380466c1c38bb847234acf71dcb7f3901a0ef1f00baf9b75f825076525","swim","swim","1760","","E1","6","","","","arctic-engagement","","","","","","","","","","","","","","7","enjoyment","",""
"html-button-response","87","2212722","0.0-7.0-2.0-5.0-0.12","b717ea380466c1c38bb847234acf71dcb7f3901a0ef1f00baf9b75f825076525","swim","swim","3835","","MS3","5","","","","arctic-engagement","","","","","","","","","","","","","","6","mental-sim","",""
"html-button-response","88","2216776","0.0-7.0-2.0-5.0-0.13","b717ea380466c1c38bb847234acf71dcb7f3901a0ef1f00baf9b75f825076525","swim","swim","3799","","A2","6","","","","arctic-engagement","","","","","","","","","","","","","","7","absorption","",""
"html-button-response","89","2219340","0.0-7.0-2.0-5.0-0.14","b717ea380466c1c38bb847234acf71dcb7f3901a0ef1f00baf9b75f825076525","swim","swim","2306","","EE2","4","","","","arctic-engagement","","","","","","","","","","","","","","5","emo-engage","",""
"html-button-response","90","2222954","0.0-7.0-2.0-5.0-0.15","b717ea380466c1c38bb847234acf71dcb7f3901a0ef1f00baf9b75f825076525","swim","swim","3362","","MS1","5","","","","arctic-engagement","","","","","","","","","","","","","","6","mental-sim","",""
"html-button-response","91","2227146","0.0-7.0-2.0-5.0-0.16","b717ea380466c1c38bb847234acf71dcb7f3901a0ef1f00baf9b75f825076525","swim","swim","3937","","EE1","5","","","","arctic-engagement","","","","","","","","","","","","","","6","emo-engage","",""
"html-button-response","92","2229432","0.0-7.0-2.0-5.0-0.17","b717ea380466c1c38bb847234acf71dcb7f3901a0ef1f00baf9b75f825076525","swim","swim","2027","","A3","6","","","","arctic-engagement","","","","","","","","","","","","","","7","absorption","",""
"html-button-response","93","2231670","0.0-8.0","b717ea380466c1c38bb847234acf71dcb7f3901a0ef1f00baf9b75f825076525","swim","swim","1976","","<p>Thank you for your responses.</p><p>You will now answer some demographic, hearing, and general health questions.</p>","0","","","","","","","","","","","","","","","","","","","","",""
"survey-multi-choice","94","2234382","0.0-9.0-0.0","b717ea380466c1c38bb847234acf71dcb7f3901a0ef1f00baf9b75f825076525","swim","swim","2710","","","","","","","survey","","","","","","","","","","","","","{""Q0"":""Chrome""}","","","browser",""
"survey-text","95","2237342","0.0-9.0-1.0","b717ea380466c1c38bb847234acf71dcb7f3901a0ef1f00baf9b75f825076525","swim","swim","2704","","","","","","","survey","","","","","","","","","","","","","{""AGE"":""38""}","","","age","38"
"survey-multi-choice","96","2240528","0.0-9.0-2.0","b717ea380466c1c38bb847234acf71dcb7f3901a0ef1f00baf9b75f825076525","swim","swim","2930","","","","","","","survey","","","","","","","","","","","","","{""Q0"":""Male""}","","","gender","Male"
"survey-multi-choice","97","2243294","0.0-9.0-4.0","b717ea380466c1c38bb847234acf71dcb7f3901a0ef1f00baf9b75f825076525","swim","swim","2512","","","","","","","survey","","","","","","","","","","","","","{""Q0"":""Right""}","","","handedness","Right"
"survey-multi-choice","98","2246580","0.0-9.0-5.0","b717ea380466c1c38bb847234acf71dcb7f3901a0ef1f00baf9b75f825076525","swim","swim","3023","","","","","","","survey","","","","","","","","","","","","","{""Q0"":""Bachelor's Degree""}","","","education","Bachelor's Degree"
"survey-text","99","2252856","0.0-10.0-0.0","b717ea380466c1c38bb847234acf71dcb7f3901a0ef1f00baf9b75f825076525","swim","swim","6019","","","","","","","survey","","","","","","","","","","","","","{""L1"":""English""}","","","first-language","English"
"survey-text","100","2290210","0.0-10.0-1.0","b717ea380466c1c38bb847234acf71dcb7f3901a0ef1f00baf9b75f825076525","swim","swim","37085.60000002384","","","","","","","survey","","","","","","","","","","","","","{""L2name"":""Spanish"",""L2fluency"":""6"",""L3name"":""Japanese"",""L3fluency"":""6"",""L4name"":""Chinese"",""L4fluency"":""5""}","","","additional-languages","{""L2name"":""Spanish"",""L2fluency"":""6"",""L3name"":""Japanese"",""L3fluency"":""6"",""L4name"":""Chinese"",""L4fluency"":""5""}"
"survey-multi-choice","101","2294202","0.0-10.0-2.0","b717ea380466c1c38bb847234acf71dcb7f3901a0ef1f00baf9b75f825076525","swim","swim","3731","","","","","","","survey","","","","","","","","","","","","","{""Q0"":""No""}","","","hearing-aid","No"
"survey-multi-choice","102","2298990","0.0-10.0-3.0","b717ea380466c1c38bb847234acf71dcb7f3901a0ef1f00baf9b75f825076525","swim","swim","4523","","","","","","","survey","","","","","","","","","","","","","{""Q0"":""Never""}","","","ringing-ears","Never"
"survey-multi-choice","103","2304546","0.0-10.0-5.0","b717ea380466c1c38bb847234acf71dcb7f3901a0ef1f00baf9b75f825076525","swim","swim","5294","","","","","","","survey","","","","","","","","","","","","","{""Q0"":""No""}","","","neuro-disease","No"
"survey-multi-choice","104","2310522","0.0-10.0-7.0","b717ea380466c1c38bb847234acf71dcb7f3901a0ef1f00baf9b75f825076525","swim","swim","5722","","","","","","","survey","","","","","","","","","","","","","{""Q0"":""Yes""}","","","take-meds","Yes"
"survey-text","105","2335934","0.0-10.0-8.0-0.0","b717ea380466c1c38bb847234acf71dcb7f3901a0ef1f00baf9b75f825076525","swim","swim","25156.799999952316","","","","","","","survey","","","","","","","","","","","","","{""MED"":""Levothyroxine, Pravastatin, Zyrtec""}","","","take-meds-clarify","Levothyroxine, Pravastatin, Zyrtec"
"survey-text","106","2345938","0.0-10.0-9.0","b717ea380466c1c38bb847234acf71dcb7f3901a0ef1f00baf9b75f825076525","swim","swim","9731","","","","","","","survey","","","","","","","","","","","","","{""HC"":""No problems.""}","","","health-concerns","No problems."
"html-button-response","107","2349262","0.0-11.0-0.0","b717ea380466c1c38bb847234acf71dcb7f3901a0ef1f00baf9b75f825076525","swim","swim","3062","","<p>How would you describe your musical skills/experiences?</p>","0","","","","survey","","","","","","","","","","","","","","","","music-skill","1"
"survey-multi-choice","108","2352673","0.0-11.0-1.0","b717ea380466c1c38bb847234acf71dcb7f3901a0ef1f00baf9b75f825076525","swim","swim","3155","","","","","","","survey","","","","","","","","","","","","","{""Q0"":""No""}","","","music-instrument","No"
"html-button-response","109","2355562","0.0-12.0-0.0","b717ea380466c1c38bb847234acf71dcb7f3901a0ef1f00baf9b75f825076525","swim","swim","2629","","<p>How would you describe your general hearing abilities?</p>","4","","","","survey","","","","","","","","","","","","","","","","ssq-01","5"
"html-button-response","110","2363728","0.0-12.0-1.0","b717ea380466c1c38bb847234acf71dcb7f3901a0ef1f00baf9b75f825076525","swim","swim","7909","","<p>When you talk with someone at a place that strongly reverberates/echoes (e.g., in a church or train station),</br>can you understand what the person says?</p>","9","","","","survey","","","","","","","","","","","","","","","","ssq-02","9"
"html-button-response","111","2368888","0.0-12.0-2.0","b717ea380466c1c38bb847234acf71dcb7f3901a0ef1f00baf9b75f825076525","swim","swim","4905","","<p>When you are with a group (~5 people) in a lively restaurant, can you follow the group's conversation?</p>","9","","","","survey","","","","","","","","","","","","","","","","ssq-03","9"
"html-button-response","112","2375218","0.0-12.0-3.0","b717ea380466c1c38bb847234acf71dcb7f3901a0ef1f00baf9b75f825076525","swim","swim","6070","","<p>Based on the sound of a bus or truck, can you tell whether it is moving towards or away from you?</p>","9","","","","survey","","","","","","","","","","","","","","","","ssq-04","9"
"html-button-response","113","2381279","0.0-12.0-4.0","b717ea380466c1c38bb847234acf71dcb7f3901a0ef1f00baf9b75f825076525","swim","swim","5802","","<p>When you are in an unknown environment, can you tell from which direction a brief sound originates?</p>","9","","","","survey","","","","","","","","","","","","","","","","ssq-05","9"
"html-button-response","114","2388345","0.0-12.0-5.0","b717ea380466c1c38bb847234acf71dcb7f3901a0ef1f00baf9b75f825076525","swim","swim","6811","","<p>Are you able to ignore distracting sounds when you concentrate on a specific aspect of your acoustic surrounding?</p>","8","","","","survey","","","","","","","","","","","","","","","","ssq-06","8"
"fullscreen","115","2389605","0.0-13.0","b717ea380466c1c38bb847234acf71dcb7f3901a0ef1f00baf9b75f825076525","swim","swim","","","","","","","","","true","","","","","","","","","","","","","","","",""
