"trial_type","trial_index","time_elapsed","internal_node_id","ParticipantID","firstStory","scramStory","rt","url","stimulus","button_pressed","key_press","correctRESP","correct","designation","success","letterStim","letterType","ONSET","TIMEOUT","CONDITION","Participant","ONSET_ACTUAL","RT","RESP","ACC","STORY","responses","response","type","surveyQuestion","QRESP"
"pavlovia","0","7","0.0-0.0","36c5b9ef4858f8451b4ee44836e4e1ac6f40db3005de0716385db8582e44be38","swim","arctic","","","","","","","","","","","","","","","","","","","","","","","","",""
"external-html","1","45013","0.0-1.0","36c5b9ef4858f8451b4ee44836e4e1ac6f40db3005de0716385db8582e44be38","swim","arctic","44896","consent/consent_updated.html","","","","","","","","","","","","","","","","","","","","","","",""
"html-button-response","2","46342","0.0-2.0-0.0","36c5b9ef4858f8451b4ee44836e4e1ac6f40db3005de0716385db8582e44be38","swim","arctic","1326","","<p>Before we begin the main task, you will complete a short volume calibration and headphone check.</p><p>Please make sure you are in a quiet listening environment, that you are wearing headphones, and that your computer's volume is turned on.<p></p>","0","","","","","","","","","","","","","","","","","","","","",""
"html-button-response","3","49548","0.0-2.0-1.0","36c5b9ef4858f8451b4ee44836e4e1ac6f40db3005de0716385db8582e44be38","swim","arctic","2949","","<p>The volume calibration will be first.</p><p>You will hear a thirty-second noise. Please adjust your computer's volume so that this noise is being presented at a comfortable level.<p></p>","0","","","","","","","","","","","","","","","","","","","","",""
"audio-button-response","4","57787","0.0-2.0-2.0","36c5b9ef4858f8451b4ee44836e4e1ac6f40db3005de0716385db8582e44be38","swim","arctic","7883","","audio/volumetest.mp3","0","","","","","","","","","","","","","","","","","","","","",""
"html-keyboard-response","5","59535","0.0-3.0-0.0","36c5b9ef4858f8451b4ee44836e4e1ac6f40db3005de0716385db8582e44be38","swim","arctic","1746","","<p>You will now complete a short headphone check.</p><p>On each trial, you will hear three tones. One of these tones will be quieter than the others. Your task is to identify whether the quiet tone occurred first, second, or third.</p><p>There are six trials in total.<p></p><p></p>(Press SPACEBAR to begin)","","32","","","","","","","","","","","","","","","","","","","",""
"html-keyboard-response","6","60297","0.0-3.0-1.0-0.0","36c5b9ef4858f8451b4ee44836e4e1ac6f40db3005de0716385db8582e44be38","swim","arctic","null","","<div style=""font-size:60px;"">+</div>","","null","","","","","","","","","","","","","","","","","","","",""
"audio-button-response","7","64723","0.0-3.0-1.0-1.0","36c5b9ef4858f8451b4ee44836e4e1ac6f40db3005de0716385db8582e44be38","swim","arctic","4424","","audio/t3_1.mp3","2","","2","1","headphone-test","","","","","","","","","","","","","","","","",""
"html-keyboard-response","8","65225","0.0-3.0-1.0-2.0","36c5b9ef4858f8451b4ee44836e4e1ac6f40db3005de0716385db8582e44be38","swim","arctic","null","","<p>Correct</p>","","null","","","","","","","","","","","","","","","","","","","",""
"html-keyboard-response","9","65735","0.0-3.0-1.0-0.1","36c5b9ef4858f8451b4ee44836e4e1ac6f40db3005de0716385db8582e44be38","swim","arctic","null","","<div style=""font-size:60px;"">+</div>","","null","","","","","","","","","","","","","","","","","","","",""
"audio-button-response","10","70275","0.0-3.0-1.0-1.1","36c5b9ef4858f8451b4ee44836e4e1ac6f40db3005de0716385db8582e44be38","swim","arctic","4539","","audio/t1_1.mp3","0","","0","1","headphone-test","","","","","","","","","","","","","","","","",""
"html-keyboard-response","11","70778","0.0-3.0-1.0-2.1","36c5b9ef4858f8451b4ee44836e4e1ac6f40db3005de0716385db8582e44be38","swim","arctic","null","","<p>Correct</p>","","null","","","","","","","","","","","","","","","","","","","",""
"html-keyboard-response","12","71291","0.0-3.0-1.0-0.2","36c5b9ef4858f8451b4ee44836e4e1ac6f40db3005de0716385db8582e44be38","swim","arctic","null","","<div style=""font-size:60px;"">+</div>","","null","","","","","","","","","","","","","","","","","","","",""
"audio-button-response","13","75017","0.0-3.0-1.0-1.2","36c5b9ef4858f8451b4ee44836e4e1ac6f40db3005de0716385db8582e44be38","swim","arctic","3723","","audio/t2_2.mp3","1","","1","1","headphone-test","","","","","","","","","","","","","","","","",""
"html-keyboard-response","14","75534","0.0-3.0-1.0-2.2","36c5b9ef4858f8451b4ee44836e4e1ac6f40db3005de0716385db8582e44be38","swim","arctic","null","","<p>Correct</p>","","null","","","","","","","","","","","","","","","","","","","",""
"html-keyboard-response","15","76038","0.0-3.0-1.0-0.3","36c5b9ef4858f8451b4ee44836e4e1ac6f40db3005de0716385db8582e44be38","swim","arctic","null","","<div style=""font-size:60px;"">+</div>","","null","","","","","","","","","","","","","","","","","","","",""
"audio-button-response","16","79846","0.0-3.0-1.0-1.3","36c5b9ef4858f8451b4ee44836e4e1ac6f40db3005de0716385db8582e44be38","swim","arctic","3806","","audio/t3_2.mp3","2","","2","1","headphone-test","","","","","","","","","","","","","","","","",""
"html-keyboard-response","17","80352","0.0-3.0-1.0-2.3","36c5b9ef4858f8451b4ee44836e4e1ac6f40db3005de0716385db8582e44be38","swim","arctic","null","","<p>Correct</p>","","null","","","","","","","","","","","","","","","","","","","",""
"html-keyboard-response","18","80853","0.0-3.0-1.0-0.4","36c5b9ef4858f8451b4ee44836e4e1ac6f40db3005de0716385db8582e44be38","swim","arctic","null","","<div style=""font-size:60px;"">+</div>","","null","","","","","","","","","","","","","","","","","","","",""
"audio-button-response","19","85445","0.0-3.0-1.0-1.4","36c5b9ef4858f8451b4ee44836e4e1ac6f40db3005de0716385db8582e44be38","swim","arctic","4590","","audio/t2_1.mp3","1","","1","1","headphone-test","","","","","","","","","","","","","","","","",""
"html-keyboard-response","20","85948","0.0-3.0-1.0-2.4","36c5b9ef4858f8451b4ee44836e4e1ac6f40db3005de0716385db8582e44be38","swim","arctic","null","","<p>Correct</p>","","null","","","","","","","","","","","","","","","","","","","",""
"html-keyboard-response","21","86455","0.0-3.0-1.0-0.5","36c5b9ef4858f8451b4ee44836e4e1ac6f40db3005de0716385db8582e44be38","swim","arctic","null","","<div style=""font-size:60px;"">+</div>","","null","","","","","","","","","","","","","","","","","","","",""
"audio-button-response","22","90869","0.0-3.0-1.0-1.5","36c5b9ef4858f8451b4ee44836e4e1ac6f40db3005de0716385db8582e44be38","swim","arctic","4413","","audio/t1_2.mp3","0","","0","1","headphone-test","","","","","","","","","","","","","","","","",""
"html-keyboard-response","23","91373","0.0-3.0-1.0-2.5","36c5b9ef4858f8451b4ee44836e4e1ac6f40db3005de0716385db8582e44be38","swim","arctic","null","","<p>Correct</p>","","null","","","","","","","","","","","","","","","","","","","",""
"fullscreen","24","98638","0.0-4.0","36c5b9ef4858f8451b4ee44836e4e1ac6f40db3005de0716385db8582e44be38","swim","arctic","","","","","","","","","true","","","","","","","","","","","","","","","",""
"html-button-response","25","108862","0.0-5.0-0.0","36c5b9ef4858f8451b4ee44836e4e1ac6f40db3005de0716385db8582e44be38","swim","arctic","10224","","<p>There are two blocks to this experiment.</p><p>In each block, you will hear a ~13.5 minute story. One of the stories will be scrambled. Please listen carefully to both stories and understand them as best you can.</p><p>After each story, you will be asked some questions to assess your comprehension.</p>","0","","","","","","","","","","","","","","","","","","","","",""
"html-button-response","26","126122","0.0-5.0-1.0","36c5b9ef4858f8451b4ee44836e4e1ac6f40db3005de0716385db8582e44be38","swim","arctic","17259","","<p>During each story, there will be an additional task.</p><p>A letter will occasionally appear on the screen.</br>Your job is to - as quickly as you can - decide whether the letter is lowercase or uppercase and press one of two keys on the keyboard:</p><p>If the letter is <b>lowercase</b>, press key &lt;<b>x</b>&gt;.</p><p>If the letter is <b>uppercase</b>, press key &lt;<b>m</b>&gt;.</p>","0","","","","","","","","","","","","","","","","","","","","",""
"html-keyboard-response","27","131703","0.0-5.0-2.0","36c5b9ef4858f8451b4ee44836e4e1ac6f40db3005de0716385db8582e44be38","swim","arctic","5580","","<p>Because we want your responses to be as quick as possible, please keep your index fingers over the keys while listening.</p><p>Each block lasts about 20 minutes.</p><p><b>Press &lt;x&gt; or &lt;m&gt; to start the first block!</b></p>","","88","","","","","","","","","","","","","","","","","","","",""
"html-keyboard-response","28","132205","0.0-7.0-0.0-0.0","36c5b9ef4858f8451b4ee44836e4e1ac6f40db3005de0716385db8582e44be38","swim","arctic","null","","<div style=""font-size:60px;"" tabindex=""0"">+</div>","","null","","","","","","","","","","","","","","","","","","","",""
"dual-task","null","null","null","","swim","arctic","1061.8000001907349","","E","null","77","77","1","swim-dual-task","","E","uppercase","16000","0","5","36c5b9ef4858f8451b4ee44836e4e1ac6f40db3005de0716385db8582e44be38","15999.900000095367","1061.8000001907349","77","1","swim","","","","",""
"dual-task","null","null","null","","swim","arctic","599.4000000953674","","q","null","88","88","1","swim-dual-task","","q","lowercase","26000","0","5","36c5b9ef4858f8451b4ee44836e4e1ac6f40db3005de0716385db8582e44be38","25998.700000047684","599.4000000953674","88","1","swim","","","","",""
"dual-task","null","null","null","","swim","arctic","443.2999999523163","","B","null","77","77","1","swim-dual-task","","B","uppercase","38000","0","5","36c5b9ef4858f8451b4ee44836e4e1ac6f40db3005de0716385db8582e44be38","38011.200000047684","443.2999999523163","77","1","swim","","","","",""
"dual-task","null","null","null","","swim","arctic","469.2999999523163","","R","null","77","77","1","swim-dual-task","","R","uppercase","48000","0","5","36c5b9ef4858f8451b4ee44836e4e1ac6f40db3005de0716385db8582e44be38","48010.200000047684","469.2999999523163","77","1","swim","","","","",""
"dual-task","null","null","null","","swim","arctic","456.60000014305115","","Q","null","77","77","1","swim-dual-task","","Q","uppercase","54000","0","5","36c5b9ef4858f8451b4ee44836e4e1ac6f40db3005de0716385db8582e44be38","54010.90000009537","456.60000014305115","77","1","swim","","","","",""
"dual-task","null","null","null","","swim","arctic","436.40000009536743","","H","null","77","77","1","swim-dual-task","","H","uppercase","64000","0","5","36c5b9ef4858f8451b4ee44836e4e1ac6f40db3005de0716385db8582e44be38","64015.59999990463","436.40000009536743","77","1","swim","","","","",""
"dual-task","null","null","null","","swim","arctic","483.7999999523163","","Q","null","77","77","1","swim-dual-task","","Q","uppercase","74000","0","5","36c5b9ef4858f8451b4ee44836e4e1ac6f40db3005de0716385db8582e44be38","74000","483.7999999523163","77","1","swim","","","","",""
"dual-task","null","null","null","","swim","arctic","489.5","","n","null","88","88","1","swim-dual-task","","n","lowercase","80000","0","5","36c5b9ef4858f8451b4ee44836e4e1ac6f40db3005de0716385db8582e44be38","80005.09999990463","489.5","88","1","swim","","","","",""
"dual-task","null","null","null","","swim","arctic","570.5","","r","null","88","88","1","swim-dual-task","","r","lowercase","92000","0","5","36c5b9ef4858f8451b4ee44836e4e1ac6f40db3005de0716385db8582e44be38","92011","570.5","88","1","swim","","","","",""
"dual-task","null","null","null","","swim","arctic","500.5","","b","null","88","88","1","swim-dual-task","","b","lowercase","104000","0","5","36c5b9ef4858f8451b4ee44836e4e1ac6f40db3005de0716385db8582e44be38","104001.79999995232","500.5","88","1","swim","","","","",""
"dual-task","null","null","null","","swim","arctic","530.2000000476837","","q","null","88","88","1","swim-dual-task","","q","lowercase","112000","0","5","36c5b9ef4858f8451b4ee44836e4e1ac6f40db3005de0716385db8582e44be38","112003.70000004768","530.2000000476837","88","1","swim","","","","",""
"dual-task","null","null","null","","swim","arctic","418.89999985694885","","E","null","77","77","1","swim-dual-task","","E","uppercase","126000","0","5","36c5b9ef4858f8451b4ee44836e4e1ac6f40db3005de0716385db8582e44be38","126011.29999995232","418.89999985694885","77","1","swim","","","","",""
"dual-task","null","null","null","","swim","arctic","555.8999998569489","","T","null","77","77","1","swim-dual-task","","T","uppercase","138000","0","5","36c5b9ef4858f8451b4ee44836e4e1ac6f40db3005de0716385db8582e44be38","138000.09999990463","555.8999998569489","77","1","swim","","","","",""
"dual-task","null","null","null","","swim","arctic","584","","f","null","88","88","1","swim-dual-task","","f","lowercase","144000","0","5","36c5b9ef4858f8451b4ee44836e4e1ac6f40db3005de0716385db8582e44be38","144013.90000009537","584","88","1","swim","","","","",""
"dual-task","null","null","null","","swim","arctic","445.2999999523163","","Q","null","77","77","1","swim-dual-task","","Q","uppercase","156000","0","5","36c5b9ef4858f8451b4ee44836e4e1ac6f40db3005de0716385db8582e44be38","156008.90000009537","445.2999999523163","77","1","swim","","","","",""
"dual-task","null","null","null","","swim","arctic","506.7999999523163","","R","null","77","77","1","swim-dual-task","","R","uppercase","168000","0","5","36c5b9ef4858f8451b4ee44836e4e1ac6f40db3005de0716385db8582e44be38","168012.40000009537","506.7999999523163","77","1","swim","","","","",""
"dual-task","null","null","null","","swim","arctic","553.7000000476837","","r","null","88","88","1","swim-dual-task","","r","lowercase","178000","0","5","36c5b9ef4858f8451b4ee44836e4e1ac6f40db3005de0716385db8582e44be38","178013.09999990463","553.7000000476837","88","1","swim","","","","",""
"dual-task","null","null","null","","swim","arctic","569.5","","n","null","88","88","1","swim-dual-task","","n","lowercase","186000","0","5","36c5b9ef4858f8451b4ee44836e4e1ac6f40db3005de0716385db8582e44be38","186012.70000004768","569.5","88","1","swim","","","","",""
"dual-task","null","null","null","","swim","arctic","530.2000000476837","","h","null","88","88","1","swim-dual-task","","h","lowercase","194000","0","5","36c5b9ef4858f8451b4ee44836e4e1ac6f40db3005de0716385db8582e44be38","194003.90000009537","530.2000000476837","88","1","swim","","","","",""
"dual-task","null","null","null","","swim","arctic","458.30000019073486","","g","null","88","88","1","swim-dual-task","","g","lowercase","204000","0","5","36c5b9ef4858f8451b4ee44836e4e1ac6f40db3005de0716385db8582e44be38","204001.79999995232","458.30000019073486","88","1","swim","","","","",""
"dual-task","null","null","null","","swim","arctic","520.5999999046326","","a","null","88","88","1","swim-dual-task","","a","lowercase","212000","0","5","36c5b9ef4858f8451b4ee44836e4e1ac6f40db3005de0716385db8582e44be38","212004.20000004768","520.5999999046326","88","1","swim","","","","",""
"dual-task","null","null","null","","swim","arctic","536","","D","null","77","77","1","swim-dual-task","","D","uppercase","224000","0","5","36c5b9ef4858f8451b4ee44836e4e1ac6f40db3005de0716385db8582e44be38","224014.90000009537","536","77","1","swim","","","","",""
"dual-task","null","null","null","","swim","arctic","619.6000001430511","","G","null","77","77","1","swim-dual-task","","G","uppercase","236000","0","5","36c5b9ef4858f8451b4ee44836e4e1ac6f40db3005de0716385db8582e44be38","236010.09999990463","619.6000001430511","77","1","swim","","","","",""
"dual-task","null","null","null","","swim","arctic","764.5999999046326","","R","null","77","77","1","swim-dual-task","","R","uppercase","248000","0","5","36c5b9ef4858f8451b4ee44836e4e1ac6f40db3005de0716385db8582e44be38","248009.79999995232","764.5999999046326","77","1","swim","","","","",""
"dual-task","null","null","null","","swim","arctic","532.2000000476837","","A","null","88","77","0","swim-dual-task","","A","uppercase","254000","0","5","36c5b9ef4858f8451b4ee44836e4e1ac6f40db3005de0716385db8582e44be38","254002.09999990463","532.2000000476837","88","0","swim","","","","",""
"dual-task","null","null","null","","swim","arctic","451.80000019073486","","F","null","77","77","1","swim-dual-task","","F","uppercase","266000","0","5","36c5b9ef4858f8451b4ee44836e4e1ac6f40db3005de0716385db8582e44be38","266010.5","451.80000019073486","77","1","swim","","","","",""
"dual-task","null","null","null","","swim","arctic","509.09999990463257","","N","null","77","77","1","swim-dual-task","","N","uppercase","276000","0","5","36c5b9ef4858f8451b4ee44836e4e1ac6f40db3005de0716385db8582e44be38","276001.5","509.09999990463257","77","1","swim","","","","",""
"dual-task","null","null","null","","swim","arctic","540.9000000953674","","B","null","77","77","1","swim-dual-task","","B","uppercase","290000","0","5","36c5b9ef4858f8451b4ee44836e4e1ac6f40db3005de0716385db8582e44be38","290009.40000009537","540.9000000953674","77","1","swim","","","","",""
"dual-task","null","null","null","","swim","arctic","639.6000001430511","","n","null","88","88","1","swim-dual-task","","n","lowercase","298000","0","5","36c5b9ef4858f8451b4ee44836e4e1ac6f40db3005de0716385db8582e44be38","298004.7000000477","639.6000001430511","88","1","swim","","","","",""
"dual-task","null","null","null","","swim","arctic","510","","H","null","77","77","1","swim-dual-task","","H","uppercase","308000","0","5","36c5b9ef4858f8451b4ee44836e4e1ac6f40db3005de0716385db8582e44be38","308000.59999990463","510","77","1","swim","","","","",""
"dual-task","null","null","null","","swim","arctic","603.2999999523163","","b","null","88","88","1","swim-dual-task","","b","lowercase","320000","0","5","36c5b9ef4858f8451b4ee44836e4e1ac6f40db3005de0716385db8582e44be38","320004.7000000477","603.2999999523163","88","1","swim","","","","",""
"dual-task","null","null","null","","swim","arctic","890.9000000953674","","N","null","77","77","1","swim-dual-task","","N","uppercase","332000","0","5","36c5b9ef4858f8451b4ee44836e4e1ac6f40db3005de0716385db8582e44be38","332004.90000009537","890.9000000953674","77","1","swim","","","","",""
"dual-task","null","null","null","","swim","arctic","629.2000000476837","","A","null","77","77","1","swim-dual-task","","A","uppercase","342000","0","5","36c5b9ef4858f8451b4ee44836e4e1ac6f40db3005de0716385db8582e44be38","342000.7000000477","629.2000000476837","77","1","swim","","","","",""
"dual-task","null","null","null","","swim","arctic","1035.8999998569489","","e","null","88","88","1","swim-dual-task","","e","lowercase","354000","0","5","36c5b9ef4858f8451b4ee44836e4e1ac6f40db3005de0716385db8582e44be38","354003.59999990463","1035.8999998569489","88","1","swim","","","","",""
"dual-task","null","null","null","","swim","arctic","670.5999999046326","","d","null","88","88","1","swim-dual-task","","d","lowercase","362000","0","5","36c5b9ef4858f8451b4ee44836e4e1ac6f40db3005de0716385db8582e44be38","362007.2999999523","670.5999999046326","88","1","swim","","","","",""
"dual-task","null","null","null","","swim","arctic","537.5999999046326","","a","null","88","88","1","swim-dual-task","","a","lowercase","370000","0","5","36c5b9ef4858f8451b4ee44836e4e1ac6f40db3005de0716385db8582e44be38","370004.2999999523","537.5999999046326","88","1","swim","","","","",""
"dual-task","null","null","null","","swim","arctic","774.5","","h","null","88","88","1","swim-dual-task","","h","lowercase","380000","0","5","36c5b9ef4858f8451b4ee44836e4e1ac6f40db3005de0716385db8582e44be38","380001.7000000477","774.5","88","1","swim","","","","",""
"dual-task","null","null","null","","swim","arctic","508.30000019073486","","r","null","88","88","1","swim-dual-task","","r","lowercase","388000","0","5","36c5b9ef4858f8451b4ee44836e4e1ac6f40db3005de0716385db8582e44be38","388003","508.30000019073486","88","1","swim","","","","",""
"dual-task","null","null","null","","swim","arctic","525.2000000476837","","H","null","77","77","1","swim-dual-task","","H","uppercase","402000","0","5","36c5b9ef4858f8451b4ee44836e4e1ac6f40db3005de0716385db8582e44be38","402008.59999990463","525.2000000476837","77","1","swim","","","","",""
"dual-task","null","null","null","","swim","arctic","561.4000000953674","","e","null","88","88","1","swim-dual-task","","e","lowercase","412000","0","5","36c5b9ef4858f8451b4ee44836e4e1ac6f40db3005de0716385db8582e44be38","412014.09999990463","561.4000000953674","88","1","swim","","","","",""
"dual-task","null","null","null","","swim","arctic","504.7000000476837","","F","null","77","77","1","swim-dual-task","","F","uppercase","422000","0","5","36c5b9ef4858f8451b4ee44836e4e1ac6f40db3005de0716385db8582e44be38","422013.09999990463","504.7000000476837","77","1","swim","","","","",""
"dual-task","null","null","null","","swim","arctic","554.1999998092651","","D","null","77","77","1","swim-dual-task","","D","uppercase","432000","0","5","36c5b9ef4858f8451b4ee44836e4e1ac6f40db3005de0716385db8582e44be38","432004.90000009537","554.1999998092651","77","1","swim","","","","",""
"dual-task","null","null","null","","swim","arctic","626.2999999523163","","T","null","77","77","1","swim-dual-task","","T","uppercase","444000","0","5","36c5b9ef4858f8451b4ee44836e4e1ac6f40db3005de0716385db8582e44be38","444003.7000000477","626.2999999523163","77","1","swim","","","","",""
"dual-task","null","null","null","","swim","arctic","1677.1999998092651","","N","null","77","77","1","swim-dual-task","","N","uppercase","450000","0","5","36c5b9ef4858f8451b4ee44836e4e1ac6f40db3005de0716385db8582e44be38","450001.7000000477","1677.1999998092651","77","1","swim","","","","",""
"dual-task","null","null","null","","swim","arctic","741","","f","null","88","88","1","swim-dual-task","","f","lowercase","464000","0","5","36c5b9ef4858f8451b4ee44836e4e1ac6f40db3005de0716385db8582e44be38","464009.09999990463","741","88","1","swim","","","","",""
"dual-task","null","null","null","","swim","arctic","404.10000014305115","","R","null","77","77","1","swim-dual-task","","R","uppercase","470000","0","5","36c5b9ef4858f8451b4ee44836e4e1ac6f40db3005de0716385db8582e44be38","470002.09999990463","404.10000014305115","77","1","swim","","","","",""
"dual-task","null","null","null","","swim","arctic","558.5999999046326","","d","null","88","88","1","swim-dual-task","","d","lowercase","482000","0","5","36c5b9ef4858f8451b4ee44836e4e1ac6f40db3005de0716385db8582e44be38","482007.90000009537","558.5999999046326","88","1","swim","","","","",""
"dual-task","null","null","null","","swim","arctic","699.7999999523163","","r","null","88","88","1","swim-dual-task","","r","lowercase","490000","0","5","36c5b9ef4858f8451b4ee44836e4e1ac6f40db3005de0716385db8582e44be38","490002.40000009537","699.7999999523163","88","1","swim","","","","",""
"dual-task","null","null","null","","swim","arctic","554","","F","null","77","77","1","swim-dual-task","","F","uppercase","500000","0","5","36c5b9ef4858f8451b4ee44836e4e1ac6f40db3005de0716385db8582e44be38","500004.59999990463","554","77","1","swim","","","","",""
"dual-task","null","null","null","","swim","arctic","785.8999998569489","","A","null","77","77","1","swim-dual-task","","A","uppercase","506000","0","5","36c5b9ef4858f8451b4ee44836e4e1ac6f40db3005de0716385db8582e44be38","506011.40000009537","785.8999998569489","77","1","swim","","","","",""
"dual-task","null","null","null","","swim","arctic","465.09999990463257","","H","null","77","77","1","swim-dual-task","","H","uppercase","516000","0","5","36c5b9ef4858f8451b4ee44836e4e1ac6f40db3005de0716385db8582e44be38","516011.5","465.09999990463257","77","1","swim","","","","",""
"dual-task","null","null","null","","swim","arctic","536","","T","null","77","77","1","swim-dual-task","","T","uppercase","530000","0","5","36c5b9ef4858f8451b4ee44836e4e1ac6f40db3005de0716385db8582e44be38","530014.2999999523","536","77","1","swim","","","","",""
"dual-task","null","null","null","","swim","arctic","507.2000000476837","","D","null","77","77","1","swim-dual-task","","D","uppercase","542000","0","5","36c5b9ef4858f8451b4ee44836e4e1ac6f40db3005de0716385db8582e44be38","542011","507.2000000476837","77","1","swim","","","","",""
"dual-task","null","null","null","","swim","arctic","678","","g","null","88","88","1","swim-dual-task","","g","lowercase","552000","0","5","36c5b9ef4858f8451b4ee44836e4e1ac6f40db3005de0716385db8582e44be38","552001.2999999523","678","88","1","swim","","","","",""
"dual-task","null","null","null","","swim","arctic","828.6000001430511","","b","null","88","88","1","swim-dual-task","","b","lowercase","564000","0","5","36c5b9ef4858f8451b4ee44836e4e1ac6f40db3005de0716385db8582e44be38","564001.5","828.6000001430511","88","1","swim","","","","",""
"dual-task","null","null","null","","swim","arctic","1000.6000001430511","","F","null","77","77","1","swim-dual-task","","F","uppercase","572000","0","5","36c5b9ef4858f8451b4ee44836e4e1ac6f40db3005de0716385db8582e44be38","572012.9000000954","1000.6000001430511","77","1","swim","","","","",""
"dual-task","null","null","null","","swim","arctic","761.5999999046326","","e","null","88","88","1","swim-dual-task","","e","lowercase","586000","0","5","36c5b9ef4858f8451b4ee44836e4e1ac6f40db3005de0716385db8582e44be38","586012.4000000954","761.5999999046326","88","1","swim","","","","",""
"dual-task","null","null","null","","swim","arctic","785.5999999046326","","G","null","77","77","1","swim-dual-task","","G","uppercase","598000","0","5","36c5b9ef4858f8451b4ee44836e4e1ac6f40db3005de0716385db8582e44be38","598003","785.5999999046326","77","1","swim","","","","",""
"dual-task","null","null","null","","swim","arctic","642.7000000476837","","q","null","88","88","1","swim-dual-task","","q","lowercase","610000","0","5","36c5b9ef4858f8451b4ee44836e4e1ac6f40db3005de0716385db8582e44be38","610003.7000000477","642.7000000476837","88","1","swim","","","","",""
"dual-task","null","null","null","","swim","arctic","593.0999999046326","","g","null","88","88","1","swim-dual-task","","g","lowercase","616000","0","5","36c5b9ef4858f8451b4ee44836e4e1ac6f40db3005de0716385db8582e44be38","616012.2999999523","593.0999999046326","88","1","swim","","","","",""
"dual-task","null","null","null","","swim","arctic","532.3999998569489","","G","null","77","77","1","swim-dual-task","","G","uppercase","630000","0","5","36c5b9ef4858f8451b4ee44836e4e1ac6f40db3005de0716385db8582e44be38","630009.7000000477","532.3999998569489","77","1","swim","","","","",""
"dual-task","null","null","null","","swim","arctic","610.5","","d","null","88","88","1","swim-dual-task","","d","lowercase","642000","0","5","36c5b9ef4858f8451b4ee44836e4e1ac6f40db3005de0716385db8582e44be38","642003.5999999046","610.5","88","1","swim","","","","",""
"dual-task","null","null","null","","swim","arctic","804.5","","G","null","77","77","1","swim-dual-task","","G","uppercase","650000","0","5","36c5b9ef4858f8451b4ee44836e4e1ac6f40db3005de0716385db8582e44be38","650001.2999999523","804.5","77","1","swim","","","","",""
"dual-task","null","null","null","","swim","arctic","769.7999999523163","","g","null","88","88","1","swim-dual-task","","g","lowercase","658000","0","5","36c5b9ef4858f8451b4ee44836e4e1ac6f40db3005de0716385db8582e44be38","658013","769.7999999523163","88","1","swim","","","","",""
"dual-task","null","null","null","","swim","arctic","646.6999998092651","","E","null","77","77","1","swim-dual-task","","E","uppercase","666000","0","5","36c5b9ef4858f8451b4ee44836e4e1ac6f40db3005de0716385db8582e44be38","666006.9000000954","646.6999998092651","77","1","swim","","","","",""
"dual-task","null","null","null","","swim","arctic","872.2000000476837","","D","null","77","77","1","swim-dual-task","","D","uppercase","674000","0","5","36c5b9ef4858f8451b4ee44836e4e1ac6f40db3005de0716385db8582e44be38","674007.4000000954","872.2000000476837","77","1","swim","","","","",""
"dual-task","null","null","null","","swim","arctic","703.4000000953674","","B","null","77","77","1","swim-dual-task","","B","uppercase","684000","0","5","36c5b9ef4858f8451b4ee44836e4e1ac6f40db3005de0716385db8582e44be38","684006.0999999046","703.4000000953674","77","1","swim","","","","",""
"dual-task","null","null","null","","swim","arctic","741.9000000953674","","h","null","88","88","1","swim-dual-task","","h","lowercase","696000","0","5","36c5b9ef4858f8451b4ee44836e4e1ac6f40db3005de0716385db8582e44be38","696008.7000000477","741.9000000953674","88","1","swim","","","","",""
"dual-task","null","null","null","","swim","arctic","626.7000000476837","","T","null","77","77","1","swim-dual-task","","T","uppercase","702000","0","5","36c5b9ef4858f8451b4ee44836e4e1ac6f40db3005de0716385db8582e44be38","702011","626.7000000476837","77","1","swim","","","","",""
"dual-task","null","null","null","","swim","arctic","669.8999998569489","","t","null","88","88","1","swim-dual-task","","t","lowercase","716000","0","5","36c5b9ef4858f8451b4ee44836e4e1ac6f40db3005de0716385db8582e44be38","716008.9000000954","669.8999998569489","88","1","swim","","","","",""
"dual-task","null","null","null","","swim","arctic","681.2999999523163","","h","null","88","88","1","swim-dual-task","","h","lowercase","726000","0","5","36c5b9ef4858f8451b4ee44836e4e1ac6f40db3005de0716385db8582e44be38","726004.7000000477","681.2999999523163","88","1","swim","","","","",""
"dual-task","null","null","null","","swim","arctic","575.2999999523163","","N","null","77","77","1","swim-dual-task","","N","uppercase","732000","0","5","36c5b9ef4858f8451b4ee44836e4e1ac6f40db3005de0716385db8582e44be38","732013.4000000954","575.2999999523163","77","1","swim","","","","",""
"dual-task","null","null","null","","swim","arctic","635","","B","null","77","77","1","swim-dual-task","","B","uppercase","740000","0","5","36c5b9ef4858f8451b4ee44836e4e1ac6f40db3005de0716385db8582e44be38","740003.5999999046","635","77","1","swim","","","","",""
"dual-task","null","null","null","","swim","arctic","619.4000000953674","","Q","null","77","77","1","swim-dual-task","","Q","uppercase","752000","0","5","36c5b9ef4858f8451b4ee44836e4e1ac6f40db3005de0716385db8582e44be38","752004","619.4000000953674","77","1","swim","","","","",""
"dual-task","null","null","null","","swim","arctic","603.0999999046326","","e","null","88","88","1","swim-dual-task","","e","lowercase","764000","0","5","36c5b9ef4858f8451b4ee44836e4e1ac6f40db3005de0716385db8582e44be38","764002.9000000954","603.0999999046326","88","1","swim","","","","",""
"dual-task","null","null","null","","swim","arctic","666.8999998569489","","t","null","88","88","1","swim-dual-task","","t","lowercase","776000","0","5","36c5b9ef4858f8451b4ee44836e4e1ac6f40db3005de0716385db8582e44be38","776011.2999999523","666.8999998569489","88","1","swim","","","","",""
"dual-task","null","null","null","","swim","arctic","585.3999998569489","","b","null","88","88","1","swim-dual-task","","b","lowercase","786000","0","5","36c5b9ef4858f8451b4ee44836e4e1ac6f40db3005de0716385db8582e44be38","786012.0999999046","585.3999998569489","88","1","swim","","","","",""
"dual-task","null","null","null","","swim","arctic","546.7000000476837","","a","null","88","88","1","swim-dual-task","","a","lowercase","798000","0","5","36c5b9ef4858f8451b4ee44836e4e1ac6f40db3005de0716385db8582e44be38","798003.5","546.7000000476837","88","1","swim","","","","",""
"audio-keyboard-response","29","942511","0.0-7.0-0.0-1.0","36c5b9ef4858f8451b4ee44836e4e1ac6f40db3005de0716385db8582e44be38","swim","arctic","null","","audio/story_swim.mp3","","null","","","","","","","","","","","","","","","","","","","",""
"html-button-response","30","945943","0.0-7.0-0.0-2.0","36c5b9ef4858f8451b4ee44836e4e1ac6f40db3005de0716385db8582e44be38","swim","arctic","3430","","<p>This concludes the story. Thank you for listening.</p><p>You will now answer some questions about the content of the story.</p>","0","","","","","","","","","","","","","","","","","","","","",""
"survey-multi-choice","31","953079","0.0-7.0-0.0-3.0-0.0","36c5b9ef4858f8451b4ee44836e4e1ac6f40db3005de0716385db8582e44be38","swim","arctic","7078","","<b>How did the narrator train for his swim test?</b>","","","","1","swim-comprehension","","","","","","","","","","","","","{""Q0"":""Took his kids to the pool every day""}","","","",""
"survey-multi-choice","32","958904","0.0-7.0-0.0-3.0-0.1","36c5b9ef4858f8451b4ee44836e4e1ac6f40db3005de0716385db8582e44be38","swim","arctic","5566","","<b>Where is the home of naval aviation?</b>","","","","1","swim-comprehension","","","","","","","","","","","","","{""Q0"":""Pensacola""}","","","",""
"survey-multi-choice","33","967091","0.0-7.0-0.0-3.0-0.2","36c5b9ef4858f8451b4ee44836e4e1ac6f40db3005de0716385db8582e44be38","swim","arctic","7929","","<b>What were the astronaut candidates trained to do at the naval air station?</b>","","","","1","swim-comprehension","","","","","","","","","","","","","{""Q0"":""Eject out of aircraft and survive in water long enough to be rescued""}","","","",""
"survey-multi-choice","34","971137","0.0-7.0-0.0-3.0-0.3","36c5b9ef4858f8451b4ee44836e4e1ac6f40db3005de0716385db8582e44be38","swim","arctic","3781","","<b>How many astronaut candidates passed the first swim test?</b>","","","","1","swim-comprehension","","","","","","","","","","","","","{""Q0"":""All of them""}","","","",""
"survey-multi-choice","35","988740","0.0-7.0-0.0-3.0-0.4","36c5b9ef4858f8451b4ee44836e4e1ac6f40db3005de0716385db8582e44be38","swim","arctic","17337","","<b>What was the final step of the first swim test in the pool?</b>","","","","1","swim-comprehension","","","","","","","","","","","","","{""Q0"":""Tread water with hands above the water""}","","","",""
"survey-multi-choice","36","992259","0.0-7.0-0.0-3.0-0.5","36c5b9ef4858f8451b4ee44836e4e1ac6f40db3005de0716385db8582e44be38","swim","arctic","3262","","<b>What is the narrator afraid of, aside from the water?</b>","","","","1","swim-comprehension","","","","","","","","","","","","","{""Q0"":""Heights""}","","","",""
"survey-multi-choice","37","1001249","0.0-7.0-0.0-3.0-0.6","36c5b9ef4858f8451b4ee44836e4e1ac6f40db3005de0716385db8582e44be38","swim","arctic","8735","","<b>What gave the narrator his greatest feeling of accomplishment?</b>","","","","1","swim-comprehension","","","","","","","","","","","","","{""Q0"":""Passing the water survival course""}","","","",""
"survey-multi-choice","38","1015567","0.0-7.0-0.0-3.0-0.7","36c5b9ef4858f8451b4ee44836e4e1ac6f40db3005de0716385db8582e44be38","swim","arctic","14064","","<b>How often does the narrator swim, now that he is a good swimmer?</b>","","","","1","swim-comprehension","","","","","","","","","","","","","{""Q0"":""Never swam again in his life""}","","","",""
"survey-multi-choice","39","1022428","0.0-7.0-0.0-3.0-0.8","36c5b9ef4858f8451b4ee44836e4e1ac6f40db3005de0716385db8582e44be38","swim","arctic","6607","","<b>How many times did the astronaut candidates have to complete the final exercise to pass?</b>","","","","1","swim-comprehension","","","","","","","","","","","","","{""Q0"":""Two""}","","","",""
"survey-multi-choice","40","1028196","0.0-7.0-0.0-3.0-0.9","36c5b9ef4858f8451b4ee44836e4e1ac6f40db3005de0716385db8582e44be38","swim","arctic","5512","","<b>How many astronaut candidates reported for duty at the Johnson Space Center?</b>","","","","1","swim-comprehension","","","","","","","","","","","","","{""Q0"":""Forty-four""}","","","",""
"html-button-response","41","1031241","0.0-7.0-0.0-4.0","36c5b9ef4858f8451b4ee44836e4e1ac6f40db3005de0716385db8582e44be38","swim","arctic","2793","","<p>Thank you for your responses.</p><p>You will now answer some questions about your impressions of the story.</p>","0","","","","","","","","","","","","","","","","","","","","",""
"html-button-response","42","1040902","0.0-7.0-0.0-5.0-0.0","36c5b9ef4858f8451b4ee44836e4e1ac6f40db3005de0716385db8582e44be38","swim","arctic","9659","","E8","4","","","","swim-engagement","","","","","","","","","","","","","","5","enjoyment","",""
"html-button-response","43","1053111","0.0-7.0-0.0-5.0-0.1","36c5b9ef4858f8451b4ee44836e4e1ac6f40db3005de0716385db8582e44be38","swim","arctic","11953","","E6","5","","","","swim-engagement","","","","","","","","","","","","","","6","enjoyment","",""
"html-button-response","44","1061315","0.0-7.0-0.0-5.0-0.2","36c5b9ef4858f8451b4ee44836e4e1ac6f40db3005de0716385db8582e44be38","swim","arctic","7940","","A1","4","","","","swim-engagement","","","","","","","","","","","","","","5","absorption","",""
"html-button-response","45","1067463","0.0-7.0-0.0-5.0-0.3","36c5b9ef4858f8451b4ee44836e4e1ac6f40db3005de0716385db8582e44be38","swim","arctic","5894","","MS2","5","","","","swim-engagement","","","","","","","","","","","","","","6","mental-sim","",""
"html-button-response","46","1070452","0.0-7.0-0.0-5.0-0.4","36c5b9ef4858f8451b4ee44836e4e1ac6f40db3005de0716385db8582e44be38","swim","arctic","2738","","A5","4","","","","swim-engagement","","","","","","","","","","","","","","5","absorption","",""
"html-button-response","47","1071881","0.0-7.0-0.0-5.0-0.5","36c5b9ef4858f8451b4ee44836e4e1ac6f40db3005de0716385db8582e44be38","swim","arctic","1176","","A3","5","","","","swim-engagement","","","","","","","","","","","","","","6","absorption","",""
"html-button-response","48","1074027","0.0-7.0-0.0-5.0-0.6","36c5b9ef4858f8451b4ee44836e4e1ac6f40db3005de0716385db8582e44be38","swim","arctic","1893","","MS3","6","","","","swim-engagement","","","","","","","","","","","","","","7","mental-sim","",""
"html-button-response","49","1075441","0.0-7.0-0.0-5.0-0.7","36c5b9ef4858f8451b4ee44836e4e1ac6f40db3005de0716385db8582e44be38","swim","arctic","1162","","EE2","5","","","","swim-engagement","","","","","","","","","","","","","","6","emo-engage","",""
"html-button-response","50","1076730","0.0-7.0-0.0-5.0-0.8","36c5b9ef4858f8451b4ee44836e4e1ac6f40db3005de0716385db8582e44be38","swim","arctic","1036","","EE3","5","","","","swim-engagement","","","","","","","","","","","","","","6","emo-engage","",""
"html-button-response","51","1080171","0.0-7.0-0.0-5.0-0.9","36c5b9ef4858f8451b4ee44836e4e1ac6f40db3005de0716385db8582e44be38","swim","arctic","3189","","MS1","6","","","","swim-engagement","","","","","","","","","","","","","","7","mental-sim","",""
"html-button-response","52","1082804","0.0-7.0-0.0-5.0-0.10","36c5b9ef4858f8451b4ee44836e4e1ac6f40db3005de0716385db8582e44be38","swim","arctic","2381","","A2","6","","","","swim-engagement","","","","","","","","","","","","","","7","absorption","",""
"html-button-response","53","1085508","0.0-7.0-0.0-5.0-0.11","36c5b9ef4858f8451b4ee44836e4e1ac6f40db3005de0716385db8582e44be38","swim","arctic","2451","","EE4","3","","","","swim-engagement","","","","","","","","","","","","","","4","emo-engage","",""
"html-button-response","54","1087138","0.0-7.0-0.0-5.0-0.12","36c5b9ef4858f8451b4ee44836e4e1ac6f40db3005de0716385db8582e44be38","swim","arctic","1375","","E1","5","","","","swim-engagement","","","","","","","","","","","","","","6","enjoyment","",""
"html-button-response","55","1095845","0.0-7.0-0.0-5.0-0.13","36c5b9ef4858f8451b4ee44836e4e1ac6f40db3005de0716385db8582e44be38","swim","arctic","8441","","A4","4","","","","swim-engagement","","","","","","","","","","","","","","5","absorption","",""
"html-button-response","56","1097558","0.0-7.0-0.0-5.0-0.14","36c5b9ef4858f8451b4ee44836e4e1ac6f40db3005de0716385db8582e44be38","swim","arctic","1460","","E10","6","","","","swim-engagement","","","","","","","","","","","","","","7","enjoyment","",""
"html-button-response","57","1099344","0.0-7.0-0.0-5.0-0.15","36c5b9ef4858f8451b4ee44836e4e1ac6f40db3005de0716385db8582e44be38","swim","arctic","1532","","E7","6","","","","swim-engagement","","","","","","","","","","","","","","7","enjoyment","",""
"html-button-response","58","1101600","0.0-7.0-0.0-5.0-0.16","36c5b9ef4858f8451b4ee44836e4e1ac6f40db3005de0716385db8582e44be38","swim","arctic","2004","","EE5","5","","","","swim-engagement","","","","","","","","","","","","","","6","emo-engage","",""
"html-button-response","59","1106215","0.0-7.0-0.0-5.0-0.17","36c5b9ef4858f8451b4ee44836e4e1ac6f40db3005de0716385db8582e44be38","swim","arctic","4363","","EE1","5","","","","swim-engagement","","","","","","","","","","","","","","6","emo-engage","",""
"html-keyboard-response","60","1110839","0.0-7.0-1.0","36c5b9ef4858f8451b4ee44836e4e1ac6f40db3005de0716385db8582e44be38","swim","arctic","4357","","<p>Thank you for your responses. You will now listen to the second story.</p><p>Remember, as you listen to the story you will see letters appear on the screen.</br>As quickly as possible, press <b>&lt;x&gt;</b> if the letter is lowercase and <b>&lt;m&gt;</b> if the letter is uppercase.</p><p>Press <b>&lt;x&gt;</b> or <b>&lt;m&gt;</b> to begin listening!</p>","","88","","","","","","","","","","","","","","","","","","","",""
"html-keyboard-response","61","1111341","0.0-7.0-2.0-0.0","36c5b9ef4858f8451b4ee44836e4e1ac6f40db3005de0716385db8582e44be38","swim","arctic","null","","<div style=""font-size:60px;"" tabindex=""0"">+</div>","","null","","","","","","","","","","","","","","","","","","","",""
"dual-task","null","null","null","","swim","arctic","795.5999999046326","","R","null","77","77","1","arctic-dual-task","","R","uppercase","18000","0","5","36c5b9ef4858f8451b4ee44836e4e1ac6f40db3005de0716385db8582e44be38","18001","795.5999999046326","77","1","arctic","","","","",""
"dual-task","null","null","null","","swim","arctic","1019.6999998092651","","n","null","88","88","1","arctic-dual-task","","n","lowercase","32000","0","5","36c5b9ef4858f8451b4ee44836e4e1ac6f40db3005de0716385db8582e44be38","32002.800000190735","1019.6999998092651","88","1","arctic","","","","",""
"dual-task","null","null","null","","swim","arctic","595.3999998569489","","A","null","77","77","1","arctic-dual-task","","A","uppercase","42000","0","5","36c5b9ef4858f8451b4ee44836e4e1ac6f40db3005de0716385db8582e44be38","42009.300000190735","595.3999998569489","77","1","arctic","","","","",""
"dual-task","null","null","null","","swim","arctic","418","","R","null","77","77","1","arctic-dual-task","","R","uppercase","56000","0","5","36c5b9ef4858f8451b4ee44836e4e1ac6f40db3005de0716385db8582e44be38","56003.90000009537","418","77","1","arctic","","","","",""
"dual-task","null","null","null","","swim","arctic","694.0999999046326","","d","null","88","88","1","arctic-dual-task","","d","lowercase","68000","0","5","36c5b9ef4858f8451b4ee44836e4e1ac6f40db3005de0716385db8582e44be38","68000.40000009537","694.0999999046326","88","1","arctic","","","","",""
"dual-task","null","null","null","","swim","arctic","539.7999999523163","","D","null","77","77","1","arctic-dual-task","","D","uppercase","82000","0","5","36c5b9ef4858f8451b4ee44836e4e1ac6f40db3005de0716385db8582e44be38","82003.10000014305","539.7999999523163","77","1","arctic","","","","",""
"dual-task","null","null","null","","swim","arctic","486.5","","Q","null","77","77","1","arctic-dual-task","","Q","uppercase","88000","0","5","36c5b9ef4858f8451b4ee44836e4e1ac6f40db3005de0716385db8582e44be38","88006.5","486.5","77","1","arctic","","","","",""
"dual-task","null","null","null","","swim","arctic","431.2999999523163","","G","null","77","77","1","arctic-dual-task","","G","uppercase","100000","0","5","36c5b9ef4858f8451b4ee44836e4e1ac6f40db3005de0716385db8582e44be38","100007.5","431.2999999523163","77","1","arctic","","","","",""
"dual-task","null","null","null","","swim","arctic","465.7000000476837","","a","null","77","88","0","arctic-dual-task","","a","lowercase","108000","0","5","36c5b9ef4858f8451b4ee44836e4e1ac6f40db3005de0716385db8582e44be38","108010.90000009537","465.7000000476837","77","0","arctic","","","","",""
"dual-task","null","null","null","","swim","arctic","498","","B","null","77","77","1","arctic-dual-task","","B","uppercase","116000","0","5","36c5b9ef4858f8451b4ee44836e4e1ac6f40db3005de0716385db8582e44be38","116019.90000009537","498","77","1","arctic","","","","",""
"dual-task","null","null","null","","swim","arctic","533.8000001907349","","N","null","77","77","1","arctic-dual-task","","N","uppercase","124000","0","5","36c5b9ef4858f8451b4ee44836e4e1ac6f40db3005de0716385db8582e44be38","124000.40000009537","533.8000001907349","77","1","arctic","","","","",""
"dual-task","null","null","null","","swim","arctic","437.40000009536743","","Q","null","77","77","1","arctic-dual-task","","Q","uppercase","134000","0","5","36c5b9ef4858f8451b4ee44836e4e1ac6f40db3005de0716385db8582e44be38","134016.20000004768","437.40000009536743","77","1","arctic","","","","",""
"dual-task","null","null","null","","swim","arctic","679.2000000476837","","g","null","88","88","1","arctic-dual-task","","g","lowercase","144000","0","5","36c5b9ef4858f8451b4ee44836e4e1ac6f40db3005de0716385db8582e44be38","144006.5","679.2000000476837","88","1","arctic","","","","",""
"dual-task","null","null","null","","swim","arctic","892.2000000476837","","G","null","77","77","1","arctic-dual-task","","G","uppercase","150000","0","5","36c5b9ef4858f8451b4ee44836e4e1ac6f40db3005de0716385db8582e44be38","150009.80000019073","892.2000000476837","77","1","arctic","","","","",""
"dual-task","null","null","null","","swim","arctic","617.6000001430511","","f","null","88","88","1","arctic-dual-task","","f","lowercase","160000","0","5","36c5b9ef4858f8451b4ee44836e4e1ac6f40db3005de0716385db8582e44be38","160003.60000014305","617.6000001430511","88","1","arctic","","","","",""
"dual-task","null","null","null","","swim","arctic","513.8999998569489","","G","null","77","77","1","arctic-dual-task","","G","uppercase","170000","0","5","36c5b9ef4858f8451b4ee44836e4e1ac6f40db3005de0716385db8582e44be38","170012","513.8999998569489","77","1","arctic","","","","",""
"dual-task","null","null","null","","swim","arctic","548","","N","null","77","77","1","arctic-dual-task","","N","uppercase","176000","0","5","36c5b9ef4858f8451b4ee44836e4e1ac6f40db3005de0716385db8582e44be38","176001.90000009537","548","77","1","arctic","","","","",""
"dual-task","null","null","null","","swim","arctic","650.1999998092651","","q","null","88","88","1","arctic-dual-task","","q","lowercase","188000","0","5","36c5b9ef4858f8451b4ee44836e4e1ac6f40db3005de0716385db8582e44be38","188012.70000004768","650.1999998092651","88","1","arctic","","","","",""
"dual-task","null","null","null","","swim","arctic","616.3000001907349","","d","null","88","88","1","arctic-dual-task","","d","lowercase","194000","0","5","36c5b9ef4858f8451b4ee44836e4e1ac6f40db3005de0716385db8582e44be38","194012.30000019073","616.3000001907349","88","1","arctic","","","","",""
"dual-task","null","null","null","","swim","arctic","623","","D","null","77","77","1","arctic-dual-task","","D","uppercase","204000","0","5","36c5b9ef4858f8451b4ee44836e4e1ac6f40db3005de0716385db8582e44be38","204013.30000019073","623","77","1","arctic","","","","",""
"dual-task","null","null","null","","swim","arctic","602.5999999046326","","T","null","77","77","1","arctic-dual-task","","T","uppercase","214000","0","5","36c5b9ef4858f8451b4ee44836e4e1ac6f40db3005de0716385db8582e44be38","214003","602.5999999046326","77","1","arctic","","","","",""
"dual-task","null","null","null","","swim","arctic","630.7000000476837","","t","null","88","88","1","arctic-dual-task","","t","lowercase","224000","0","5","36c5b9ef4858f8451b4ee44836e4e1ac6f40db3005de0716385db8582e44be38","224015","630.7000000476837","88","1","arctic","","","","",""
"dual-task","null","null","null","","swim","arctic","682.5999999046326","","h","null","88","88","1","arctic-dual-task","","h","lowercase","230000","0","5","36c5b9ef4858f8451b4ee44836e4e1ac6f40db3005de0716385db8582e44be38","230003.5","682.5999999046326","88","1","arctic","","","","",""
"dual-task","null","null","null","","swim","arctic","601.5999999046326","","E","null","77","77","1","arctic-dual-task","","E","uppercase","244000","0","5","36c5b9ef4858f8451b4ee44836e4e1ac6f40db3005de0716385db8582e44be38","244011.40000009537","601.5999999046326","77","1","arctic","","","","",""
"dual-task","null","null","null","","swim","arctic","523.3000001907349","","q","null","88","88","1","arctic-dual-task","","q","lowercase","258000","0","5","36c5b9ef4858f8451b4ee44836e4e1ac6f40db3005de0716385db8582e44be38","258009.60000014305","523.3000001907349","88","1","arctic","","","","",""
"dual-task","null","null","null","","swim","arctic","636.1999998092651","","e","null","88","88","1","arctic-dual-task","","e","lowercase","266000","0","5","36c5b9ef4858f8451b4ee44836e4e1ac6f40db3005de0716385db8582e44be38","266015.10000014305","636.1999998092651","88","1","arctic","","","","",""
"dual-task","null","null","null","","swim","arctic","608.2999999523163","","a","null","88","88","1","arctic-dual-task","","a","lowercase","276000","0","5","36c5b9ef4858f8451b4ee44836e4e1ac6f40db3005de0716385db8582e44be38","276009.60000014305","608.2999999523163","88","1","arctic","","","","",""
"dual-task","null","null","null","","swim","arctic","576.5","","H","null","77","77","1","arctic-dual-task","","H","uppercase","290000","0","5","36c5b9ef4858f8451b4ee44836e4e1ac6f40db3005de0716385db8582e44be38","290002.80000019073","576.5","77","1","arctic","","","","",""
"dual-task","null","null","null","","swim","arctic","517.5","","H","null","77","77","1","arctic-dual-task","","H","uppercase","298000","0","5","36c5b9ef4858f8451b4ee44836e4e1ac6f40db3005de0716385db8582e44be38","298008.60000014305","517.5","77","1","arctic","","","","",""
"dual-task","null","null","null","","swim","arctic","568.5999999046326","","Q","null","77","77","1","arctic-dual-task","","Q","uppercase","306000","0","5","36c5b9ef4858f8451b4ee44836e4e1ac6f40db3005de0716385db8582e44be38","306009","568.5999999046326","77","1","arctic","","","","",""
"dual-task","null","null","null","","swim","arctic","584.6999998092651","","B","null","77","77","1","arctic-dual-task","","B","uppercase","316000","0","5","36c5b9ef4858f8451b4ee44836e4e1ac6f40db3005de0716385db8582e44be38","316005.30000019073","584.6999998092651","77","1","arctic","","","","",""
"dual-task","null","null","null","","swim","arctic","582.5","","A","null","77","77","1","arctic-dual-task","","A","uppercase","328000","0","5","36c5b9ef4858f8451b4ee44836e4e1ac6f40db3005de0716385db8582e44be38","328008.7000000477","582.5","77","1","arctic","","","","",""
"dual-task","null","null","null","","swim","arctic","636.0999999046326","","E","null","77","77","1","arctic-dual-task","","E","uppercase","342000","0","5","36c5b9ef4858f8451b4ee44836e4e1ac6f40db3005de0716385db8582e44be38","342009.10000014305","636.0999999046326","77","1","arctic","","","","",""
"dual-task","null","null","null","","swim","arctic","642.7999999523163","","h","null","88","88","1","arctic-dual-task","","h","lowercase","354000","0","5","36c5b9ef4858f8451b4ee44836e4e1ac6f40db3005de0716385db8582e44be38","354011.90000009537","642.7999999523163","88","1","arctic","","","","",""
"dual-task","null","null","null","","swim","arctic","652.2000000476837","","d","null","88","88","1","arctic-dual-task","","d","lowercase","364000","0","5","36c5b9ef4858f8451b4ee44836e4e1ac6f40db3005de0716385db8582e44be38","364010.90000009537","652.2000000476837","88","1","arctic","","","","",""
"dual-task","null","null","null","","swim","arctic","686.7999999523163","","T","null","77","77","1","arctic-dual-task","","T","uppercase","372000","0","5","36c5b9ef4858f8451b4ee44836e4e1ac6f40db3005de0716385db8582e44be38","372005.80000019073","686.7999999523163","77","1","arctic","","","","",""
"dual-task","null","null","null","","swim","arctic","804","","E","null","77","77","1","arctic-dual-task","","E","uppercase","378000","0","5","36c5b9ef4858f8451b4ee44836e4e1ac6f40db3005de0716385db8582e44be38","378009.2000000477","804","77","1","arctic","","","","",""
"dual-task","null","null","null","","swim","arctic","621.0999999046326","","F","null","77","77","1","arctic-dual-task","","F","uppercase","388000","0","5","36c5b9ef4858f8451b4ee44836e4e1ac6f40db3005de0716385db8582e44be38","388015.10000014305","621.0999999046326","77","1","arctic","","","","",""
"dual-task","null","null","null","","swim","arctic","759.8000001907349","","t","null","88","88","1","arctic-dual-task","","t","lowercase","394000","0","5","36c5b9ef4858f8451b4ee44836e4e1ac6f40db3005de0716385db8582e44be38","394007.5","759.8000001907349","88","1","arctic","","","","",""
"dual-task","null","null","null","","swim","arctic","828.6999998092651","","b","null","88","88","1","arctic-dual-task","","b","lowercase","406000","0","5","36c5b9ef4858f8451b4ee44836e4e1ac6f40db3005de0716385db8582e44be38","406001.7000000477","828.6999998092651","88","1","arctic","","","","",""
"dual-task","null","null","null","","swim","arctic","718.7000000476837","","a","null","88","88","1","arctic-dual-task","","a","lowercase","412000","0","5","36c5b9ef4858f8451b4ee44836e4e1ac6f40db3005de0716385db8582e44be38","412018.2000000477","718.7000000476837","88","1","arctic","","","","",""
"dual-task","null","null","null","","swim","arctic","687.7000000476837","","D","null","77","77","1","arctic-dual-task","","D","uppercase","426000","0","5","36c5b9ef4858f8451b4ee44836e4e1ac6f40db3005de0716385db8582e44be38","426001.80000019073","687.7000000476837","77","1","arctic","","","","",""
"dual-task","null","null","null","","swim","arctic","681.2000000476837","","Q","null","77","77","1","arctic-dual-task","","Q","uppercase","438000","0","5","36c5b9ef4858f8451b4ee44836e4e1ac6f40db3005de0716385db8582e44be38","438005.5","681.2000000476837","77","1","arctic","","","","",""
"dual-task","null","null","null","","swim","arctic","614.2999999523163","","F","null","77","77","1","arctic-dual-task","","F","uppercase","450000","0","5","36c5b9ef4858f8451b4ee44836e4e1ac6f40db3005de0716385db8582e44be38","450016","614.2999999523163","77","1","arctic","","","","",""
"dual-task","null","null","null","","swim","arctic","712.3999998569489","","a","null","88","88","1","arctic-dual-task","","a","lowercase","462000","0","5","36c5b9ef4858f8451b4ee44836e4e1ac6f40db3005de0716385db8582e44be38","462004.7000000477","712.3999998569489","88","1","arctic","","","","",""
"dual-task","null","null","null","","swim","arctic","837.5","","b","null","88","88","1","arctic-dual-task","","b","lowercase","474000","0","5","36c5b9ef4858f8451b4ee44836e4e1ac6f40db3005de0716385db8582e44be38","474009","837.5","88","1","arctic","","","","",""
"dual-task","null","null","null","","swim","arctic","657.1999998092651","","r","null","88","88","1","arctic-dual-task","","r","lowercase","482000","0","5","36c5b9ef4858f8451b4ee44836e4e1ac6f40db3005de0716385db8582e44be38","482008.80000019073","657.1999998092651","88","1","arctic","","","","",""
"dual-task","null","null","null","","swim","arctic","597.7999999523163","","g","null","88","88","1","arctic-dual-task","","g","lowercase","488000","0","5","36c5b9ef4858f8451b4ee44836e4e1ac6f40db3005de0716385db8582e44be38","488001.10000014305","597.7999999523163","88","1","arctic","","","","",""
"dual-task","null","null","null","","swim","arctic","613.1000001430511","","G","null","77","77","1","arctic-dual-task","","G","uppercase","494000","0","5","36c5b9ef4858f8451b4ee44836e4e1ac6f40db3005de0716385db8582e44be38","494008.90000009537","613.1000001430511","77","1","arctic","","","","",""
"dual-task","null","null","null","","swim","arctic","538.2000000476837","","e","null","88","88","1","arctic-dual-task","","e","lowercase","500000","0","5","36c5b9ef4858f8451b4ee44836e4e1ac6f40db3005de0716385db8582e44be38","500013.10000014305","538.2000000476837","88","1","arctic","","","","",""
"dual-task","null","null","null","","swim","arctic","620.2000000476837","","A","null","77","77","1","arctic-dual-task","","A","uppercase","508000","0","5","36c5b9ef4858f8451b4ee44836e4e1ac6f40db3005de0716385db8582e44be38","508000.90000009537","620.2000000476837","77","1","arctic","","","","",""
"dual-task","null","null","null","","swim","arctic","564.5999999046326","","n","null","88","88","1","arctic-dual-task","","n","lowercase","522000","0","5","36c5b9ef4858f8451b4ee44836e4e1ac6f40db3005de0716385db8582e44be38","522008.7000000477","564.5999999046326","88","1","arctic","","","","",""
"dual-task","null","null","null","","swim","arctic","576.1999998092651","","r","null","88","88","1","arctic-dual-task","","r","lowercase","534000","0","5","36c5b9ef4858f8451b4ee44836e4e1ac6f40db3005de0716385db8582e44be38","534002.4000000954","576.1999998092651","88","1","arctic","","","","",""
"dual-task","null","null","null","","swim","arctic","740","","t","null","88","88","1","arctic-dual-task","","t","lowercase","546000","0","5","36c5b9ef4858f8451b4ee44836e4e1ac6f40db3005de0716385db8582e44be38","546009.2000000477","740","88","1","arctic","","","","",""
"dual-task","null","null","null","","swim","arctic","681.9000000953674","","B","null","77","77","1","arctic-dual-task","","B","uppercase","560000","0","5","36c5b9ef4858f8451b4ee44836e4e1ac6f40db3005de0716385db8582e44be38","560012.3000001907","681.9000000953674","77","1","arctic","","","","",""
"dual-task","null","null","null","","swim","arctic","605.2999999523163","","B","null","77","77","1","arctic-dual-task","","B","uppercase","574000","0","5","36c5b9ef4858f8451b4ee44836e4e1ac6f40db3005de0716385db8582e44be38","574015.8000001907","605.2999999523163","77","1","arctic","","","","",""
"dual-task","null","null","null","","swim","arctic","863.4000000953674","","n","null","88","88","1","arctic-dual-task","","n","lowercase","588000","0","5","36c5b9ef4858f8451b4ee44836e4e1ac6f40db3005de0716385db8582e44be38","588005.5","863.4000000953674","88","1","arctic","","","","",""
"dual-task","null","null","null","","swim","arctic","781.7000000476837","","g","null","88","88","1","arctic-dual-task","","g","lowercase","602000","0","5","36c5b9ef4858f8451b4ee44836e4e1ac6f40db3005de0716385db8582e44be38","602015","781.7000000476837","88","1","arctic","","","","",""
"dual-task","null","null","null","","swim","arctic","595.7000000476837","","N","null","77","77","1","arctic-dual-task","","N","uppercase","610000","0","5","36c5b9ef4858f8451b4ee44836e4e1ac6f40db3005de0716385db8582e44be38","610016.3000001907","595.7000000476837","77","1","arctic","","","","",""
"dual-task","null","null","null","","swim","arctic","799.0999999046326","","f","null","88","88","1","arctic-dual-task","","f","lowercase","620000","0","5","36c5b9ef4858f8451b4ee44836e4e1ac6f40db3005de0716385db8582e44be38","620006.100000143","799.0999999046326","88","1","arctic","","","","",""
"dual-task","null","null","null","","swim","arctic","578.7000000476837","","T","null","77","77","1","arctic-dual-task","","T","uppercase","634000","0","5","36c5b9ef4858f8451b4ee44836e4e1ac6f40db3005de0716385db8582e44be38","634004.3000001907","578.7000000476837","77","1","arctic","","","","",""
"dual-task","null","null","null","","swim","arctic","1078.4000000953674","","h","null","88","88","1","arctic-dual-task","","h","lowercase","648000","0","5","36c5b9ef4858f8451b4ee44836e4e1ac6f40db3005de0716385db8582e44be38","648015.9000000954","1078.4000000953674","88","1","arctic","","","","",""
"dual-task","null","null","null","","swim","arctic","548.1000001430511","","H","null","77","77","1","arctic-dual-task","","H","uppercase","656000","0","5","36c5b9ef4858f8451b4ee44836e4e1ac6f40db3005de0716385db8582e44be38","656009.2000000477","548.1000001430511","77","1","arctic","","","","",""
"dual-task","null","null","null","","swim","arctic","485.69999980926514","","e","null","88","88","1","arctic-dual-task","","e","lowercase","668000","0","5","36c5b9ef4858f8451b4ee44836e4e1ac6f40db3005de0716385db8582e44be38","668003.9000000954","485.69999980926514","88","1","arctic","","","","",""
"dual-task","null","null","null","","swim","arctic","1029.4000000953674","","q","null","88","88","1","arctic-dual-task","","q","lowercase","676000","0","5","36c5b9ef4858f8451b4ee44836e4e1ac6f40db3005de0716385db8582e44be38","676003.5","1029.4000000953674","88","1","arctic","","","","",""
"dual-task","null","null","null","","swim","arctic","1014.8000001907349","","t","null","88","88","1","arctic-dual-task","","t","lowercase","690000","0","5","36c5b9ef4858f8451b4ee44836e4e1ac6f40db3005de0716385db8582e44be38","690016.2000000477","1014.8000001907349","88","1","arctic","","","","",""
"dual-task","null","null","null","","swim","arctic","554","","b","null","88","88","1","arctic-dual-task","","b","lowercase","700000","0","5","36c5b9ef4858f8451b4ee44836e4e1ac6f40db3005de0716385db8582e44be38","700003.3000001907","554","88","1","arctic","","","","",""
"dual-task","null","null","null","","swim","arctic","872.2000000476837","","F","null","77","77","1","arctic-dual-task","","F","uppercase","708000","0","5","36c5b9ef4858f8451b4ee44836e4e1ac6f40db3005de0716385db8582e44be38","708001.3000001907","872.2000000476837","77","1","arctic","","","","",""
"dual-task","null","null","null","","swim","arctic","565","","q","null","88","88","1","arctic-dual-task","","q","lowercase","720000","0","5","36c5b9ef4858f8451b4ee44836e4e1ac6f40db3005de0716385db8582e44be38","720014.7000000477","565","88","1","arctic","","","","",""
"dual-task","null","null","null","","swim","arctic","487.90000009536743","","e","null","88","88","1","arctic-dual-task","","e","lowercase","726000","0","5","36c5b9ef4858f8451b4ee44836e4e1ac6f40db3005de0716385db8582e44be38","726017.9000000954","487.90000009536743","88","1","arctic","","","","",""
"dual-task","null","null","null","","swim","arctic","521.6000001430511","","r","null","88","88","1","arctic-dual-task","","r","lowercase","736000","0","5","36c5b9ef4858f8451b4ee44836e4e1ac6f40db3005de0716385db8582e44be38","736003.9000000954","521.6000001430511","88","1","arctic","","","","",""
"dual-task","null","null","null","","swim","arctic","629","","N","null","77","77","1","arctic-dual-task","","N","uppercase","746000","0","5","36c5b9ef4858f8451b4ee44836e4e1ac6f40db3005de0716385db8582e44be38","746015.100000143","629","77","1","arctic","","","","",""
"dual-task","null","null","null","","swim","arctic","517.4000000953674","","f","null","88","88","1","arctic-dual-task","","f","lowercase","758000","0","5","36c5b9ef4858f8451b4ee44836e4e1ac6f40db3005de0716385db8582e44be38","758008.9000000954","517.4000000953674","88","1","arctic","","","","",""
"dual-task","null","null","null","","swim","arctic","602.9000000953674","","r","null","88","88","1","arctic-dual-task","","r","lowercase","764000","0","5","36c5b9ef4858f8451b4ee44836e4e1ac6f40db3005de0716385db8582e44be38","764018.5","602.9000000953674","88","1","arctic","","","","",""
"dual-task","null","null","null","","swim","arctic","512","","n","null","88","88","1","arctic-dual-task","","n","lowercase","774000","0","5","36c5b9ef4858f8451b4ee44836e4e1ac6f40db3005de0716385db8582e44be38","774006.8000001907","512","88","1","arctic","","","","",""
"dual-task","null","null","null","","swim","arctic","744","","f","null","88","88","1","arctic-dual-task","","f","lowercase","786000","0","5","36c5b9ef4858f8451b4ee44836e4e1ac6f40db3005de0716385db8582e44be38","786005.600000143","744","88","1","arctic","","","","",""
"audio-keyboard-response","62","1909600","0.0-7.0-2.0-1.0","36c5b9ef4858f8451b4ee44836e4e1ac6f40db3005de0716385db8582e44be38","swim","arctic","null","","audio/story_arctic_scrambled.mp3","","null","","","","","","","","","","","","","","","","","","","",""
"html-button-response","63","1914597","0.0-7.0-2.0-2.0","36c5b9ef4858f8451b4ee44836e4e1ac6f40db3005de0716385db8582e44be38","swim","arctic","4996","","<p>This concludes the story. Thank you for listening.</p><p>You will now answer some questions about the content of the story.</p>","0","","","","","","","","","","","","","","","","","","","","",""
"survey-multi-choice","64","1922309","0.0-7.0-2.0-3.0-0.0","36c5b9ef4858f8451b4ee44836e4e1ac6f40db3005de0716385db8582e44be38","swim","arctic","7706","","<b>What was the objective of the narrator&#39;s expedition?</b>","","","","0","arctic-comprehension","","","","","","","","","","","","","{""Q0"":""Climb Mount Kanchenjunga""}","","","",""
"survey-multi-choice","65","1925717","0.0-7.0-2.0-3.0-0.1","36c5b9ef4858f8451b4ee44836e4e1ac6f40db3005de0716385db8582e44be38","swim","arctic","3147","","<b>What is the name of the narrator&#39;s neighbour?</b>","","","","1","arctic-comprehension","","","","","","","","","","","","","{""Q0"":""Dave""}","","","",""
"survey-multi-choice","66","1931176","0.0-7.0-2.0-3.0-0.2","36c5b9ef4858f8451b4ee44836e4e1ac6f40db3005de0716385db8582e44be38","swim","arctic","5205","","<b>How many sponsorships did the narrator receive to support her expedition?</b>","","","","1","arctic-comprehension","","","","","","","","","","","","","{""Q0"":""None""}","","","",""
"survey-multi-choice","67","1939558","0.0-7.0-2.0-3.0-0.3","36c5b9ef4858f8451b4ee44836e4e1ac6f40db3005de0716385db8582e44be38","swim","arctic","8117","","<b>What did the narrator do for leisure while in her tent?</b>","","","","0","arctic-comprehension","","","","","","","","","","","","","{""Q0"":""Take photos""}","","","",""
"survey-multi-choice","68","1958245","0.0-7.0-2.0-3.0-0.4","36c5b9ef4858f8451b4ee44836e4e1ac6f40db3005de0716385db8582e44be38","swim","arctic","18433","","<b>How did the narrator&#39;s encounter with the polar bears end?</b>","","","","1","arctic-comprehension","","","","","","","","","","","","","{""Q0"":""The bears walked back to their den.""}","","","",""
"survey-multi-choice","69","1962500","0.0-7.0-2.0-3.0-0.5","36c5b9ef4858f8451b4ee44836e4e1ac6f40db3005de0716385db8582e44be38","swim","arctic","3997","","<b>How did the dogs respond when they saw the bears?</b>","","","","0","arctic-comprehension","","","","","","","","","","","","","{""Q0"":""Barked aggressively""}","","","",""
"survey-multi-choice","70","1974392","0.0-7.0-2.0-3.0-0.6","36c5b9ef4858f8451b4ee44836e4e1ac6f40db3005de0716385db8582e44be38","swim","arctic","11636","","<b>How did the narrator&#39;s neighbour respond when she told him about her expedition?</b>","","","","0","arctic-comprehension","","","","","","","","","","","","","{""Q0"":""He threw her a party.""}","","","",""
"survey-multi-choice","71","1979626","0.0-7.0-2.0-3.0-0.7","36c5b9ef4858f8451b4ee44836e4e1ac6f40db3005de0716385db8582e44be38","swim","arctic","4975","","<b>Which dog on the narrator&#39;s dog team never followed instructions?</b>","","","","1","arctic-comprehension","","","","","","","","","","","","","{""Q0"":""Robert""}","","","",""
"survey-multi-choice","72","1988594","0.0-7.0-2.0-3.0-0.8","36c5b9ef4858f8451b4ee44836e4e1ac6f40db3005de0716385db8582e44be38","swim","arctic","8711","","<b>What were the weather conditions in the Arctic like the winter of the narrator&#39;s expedition?</b>","","","","0","arctic-comprehension","","","","","","","","","","","","","{""Q0"":""It was the warmest winter in recorded history.""}","","","",""
"survey-multi-choice","73","2000987","0.0-7.0-2.0-3.0-0.9","36c5b9ef4858f8451b4ee44836e4e1ac6f40db3005de0716385db8582e44be38","swim","arctic","12134","","<b>How did the narrator prepare for her expedition?</b>","","","","1","arctic-comprehension","","","","","","","","","","","","","{""Q0"":""Trained in Alaska learning how to dogsled""}","","","",""
"html-button-response","74","2002391","0.0-7.0-2.0-4.0","36c5b9ef4858f8451b4ee44836e4e1ac6f40db3005de0716385db8582e44be38","swim","arctic","1151","","<p>Thank you for your responses.</p><p>You will now answer some questions about your impressions of the story.</p>","0","","","","","","","","","","","","","","","","","","","","",""
"html-button-response","75","2010155","0.0-7.0-2.0-5.0-0.0","36c5b9ef4858f8451b4ee44836e4e1ac6f40db3005de0716385db8582e44be38","swim","arctic","7763","","A1","1","","","","arctic-engagement","","","","","","","","","","","","","","2","absorption","",""
"html-button-response","76","2012431","0.0-7.0-2.0-5.0-0.1","36c5b9ef4858f8451b4ee44836e4e1ac6f40db3005de0716385db8582e44be38","swim","arctic","2022","","E8","1","","","","arctic-engagement","","","","","","","","","","","","","","2","enjoyment","",""
"html-button-response","77","2016178","0.0-7.0-2.0-5.0-0.2","36c5b9ef4858f8451b4ee44836e4e1ac6f40db3005de0716385db8582e44be38","swim","arctic","3492","","EE1","1","","","","arctic-engagement","","","","","","","","","","","","","","2","emo-engage","",""
"html-button-response","78","2017947","0.0-7.0-2.0-5.0-0.3","36c5b9ef4858f8451b4ee44836e4e1ac6f40db3005de0716385db8582e44be38","swim","arctic","1516","","A3","0","","","","arctic-engagement","","","","","","","","","","","","","","1","absorption","",""
"html-button-response","79","2020185","0.0-7.0-2.0-5.0-0.4","36c5b9ef4858f8451b4ee44836e4e1ac6f40db3005de0716385db8582e44be38","swim","arctic","1984","","E1","3","","","","arctic-engagement","","","","","","","","","","","","","","4","enjoyment","",""
"html-button-response","80","2022781","0.0-7.0-2.0-5.0-0.5","36c5b9ef4858f8451b4ee44836e4e1ac6f40db3005de0716385db8582e44be38","swim","arctic","2342","","A2","4","","","","arctic-engagement","","","","","","","","","","","","","","5","absorption","",""
"html-button-response","81","2024964","0.0-7.0-2.0-5.0-0.6","36c5b9ef4858f8451b4ee44836e4e1ac6f40db3005de0716385db8582e44be38","swim","arctic","1929","","MS3","1","","","","arctic-engagement","","","","","","","","","","","","","","2","mental-sim","",""
"html-button-response","82","2027083","0.0-7.0-2.0-5.0-0.7","36c5b9ef4858f8451b4ee44836e4e1ac6f40db3005de0716385db8582e44be38","swim","arctic","1866","","EE3","0","","","","arctic-engagement","","","","","","","","","","","","","","1","emo-engage","",""
"html-button-response","83","2029827","0.0-7.0-2.0-5.0-0.8","36c5b9ef4858f8451b4ee44836e4e1ac6f40db3005de0716385db8582e44be38","swim","arctic","2490","","MS2","0","","","","arctic-engagement","","","","","","","","","","","","","","1","mental-sim","",""
"html-button-response","84","2032603","0.0-7.0-2.0-5.0-0.9","36c5b9ef4858f8451b4ee44836e4e1ac6f40db3005de0716385db8582e44be38","swim","arctic","2523","","E7","3","","","","arctic-engagement","","","","","","","","","","","","","","4","enjoyment","",""
"html-button-response","85","2034420","0.0-7.0-2.0-5.0-0.10","36c5b9ef4858f8451b4ee44836e4e1ac6f40db3005de0716385db8582e44be38","swim","arctic","1564","","E10","0","","","","arctic-engagement","","","","","","","","","","","","","","1","enjoyment","",""
"html-button-response","86","2037818","0.0-7.0-2.0-5.0-0.11","36c5b9ef4858f8451b4ee44836e4e1ac6f40db3005de0716385db8582e44be38","swim","arctic","3145","","E6","3","","","","arctic-engagement","","","","","","","","","","","","","","4","enjoyment","",""
"html-button-response","87","2039609","0.0-7.0-2.0-5.0-0.12","36c5b9ef4858f8451b4ee44836e4e1ac6f40db3005de0716385db8582e44be38","swim","arctic","1539","","EE5","1","","","","arctic-engagement","","","","","","","","","","","","","","2","emo-engage","",""
"html-button-response","88","2044010","0.0-7.0-2.0-5.0-0.13","36c5b9ef4858f8451b4ee44836e4e1ac6f40db3005de0716385db8582e44be38","swim","arctic","4149","","A4","1","","","","arctic-engagement","","","","","","","","","","","","","","2","absorption","",""
"html-button-response","89","2048023","0.0-7.0-2.0-5.0-0.14","36c5b9ef4858f8451b4ee44836e4e1ac6f40db3005de0716385db8582e44be38","swim","arctic","3760","","EE2","3","","","","arctic-engagement","","","","","","","","","","","","","","4","emo-engage","",""
"html-button-response","90","2050808","0.0-7.0-2.0-5.0-0.15","36c5b9ef4858f8451b4ee44836e4e1ac6f40db3005de0716385db8582e44be38","swim","arctic","2532","","EE4","1","","","","arctic-engagement","","","","","","","","","","","","","","2","emo-engage","",""
"html-button-response","91","2054079","0.0-7.0-2.0-5.0-0.16","36c5b9ef4858f8451b4ee44836e4e1ac6f40db3005de0716385db8582e44be38","swim","arctic","3018","","MS1","5","","","","arctic-engagement","","","","","","","","","","","","","","6","mental-sim","",""
"html-button-response","92","2057654","0.0-7.0-2.0-5.0-0.17","36c5b9ef4858f8451b4ee44836e4e1ac6f40db3005de0716385db8582e44be38","swim","arctic","3322","","A5","0","","","","arctic-engagement","","","","","","","","","","","","","","1","absorption","",""
"html-button-response","93","2059747","0.0-8.0","36c5b9ef4858f8451b4ee44836e4e1ac6f40db3005de0716385db8582e44be38","swim","arctic","1840","","<p>Thank you for your responses.</p><p>You will now answer some demographic, hearing, and general health questions.</p>","0","","","","","","","","","","","","","","","","","","","","",""
"survey-multi-choice","94","2062913","0.0-9.0-0.0","36c5b9ef4858f8451b4ee44836e4e1ac6f40db3005de0716385db8582e44be38","swim","arctic","3162","","","","","","","survey","","","","","","","","","","","","","{""Q0"":""Chrome""}","","","browser",""
"survey-text","95","2067885","0.0-9.0-1.0","36c5b9ef4858f8451b4ee44836e4e1ac6f40db3005de0716385db8582e44be38","swim","arctic","4716","","","","","","","survey","","","","","","","","","","","","","{""AGE"":""31""}","","","age","31"
"survey-multi-choice","96","2070527","0.0-9.0-2.0","36c5b9ef4858f8451b4ee44836e4e1ac6f40db3005de0716385db8582e44be38","swim","arctic","2387","","","","","","","survey","","","","","","","","","","","","","{""Q0"":""Male""}","","","gender","Male"
"survey-multi-choice","97","2072463","0.0-9.0-4.0","36c5b9ef4858f8451b4ee44836e4e1ac6f40db3005de0716385db8582e44be38","swim","arctic","1682","","","","","","","survey","","","","","","","","","","","","","{""Q0"":""Right""}","","","handedness","Right"
"survey-multi-choice","98","2076680","0.0-9.0-5.0","36c5b9ef4858f8451b4ee44836e4e1ac6f40db3005de0716385db8582e44be38","swim","arctic","3959","","","","","","","survey","","","","","","","","","","","","","{""Q0"":""Bachelor's Degree""}","","","education","Bachelor's Degree"
"survey-text","99","2085451","0.0-10.0-0.0","36c5b9ef4858f8451b4ee44836e4e1ac6f40db3005de0716385db8582e44be38","swim","arctic","8517.700000047684","","","","","","","survey","","","","","","","","","","","","","{""L1"":""English""}","","","first-language","English"
"survey-text","100","2115162","0.0-10.0-1.0","36c5b9ef4858f8451b4ee44836e4e1ac6f40db3005de0716385db8582e44be38","swim","arctic","29449.799999952316","","","","","","","survey","","","","","","","","","","","","","{""L2name"":""Spanish"",""L2fluency"":""1"",""L3name"":""French"",""L3fluency"":""4"",""L4name"":"""",""L4fluency"":""""}","","","additional-languages","{""L2name"":""Spanish"",""L2fluency"":""1"",""L3name"":""French"",""L3fluency"":""4"",""L4name"":"""",""L4fluency"":""""}"
"survey-multi-choice","101","2119142","0.0-10.0-2.0","36c5b9ef4858f8451b4ee44836e4e1ac6f40db3005de0716385db8582e44be38","swim","arctic","3713","","","","","","","survey","","","","","","","","","","","","","{""Q0"":""No""}","","","hearing-aid","No"
"survey-multi-choice","102","2122038","0.0-10.0-3.0","36c5b9ef4858f8451b4ee44836e4e1ac6f40db3005de0716385db8582e44be38","swim","arctic","2640","","","","","","","survey","","","","","","","","","","","","","{""Q0"":""Never""}","","","ringing-ears","Never"
"survey-multi-choice","103","2125878","0.0-10.0-5.0","36c5b9ef4858f8451b4ee44836e4e1ac6f40db3005de0716385db8582e44be38","swim","arctic","3585","","","","","","","survey","","","","","","","","","","","","","{""Q0"":""No""}","","","neuro-disease","No"
"survey-multi-choice","104","2129303","0.0-10.0-7.0","36c5b9ef4858f8451b4ee44836e4e1ac6f40db3005de0716385db8582e44be38","swim","arctic","3171","","","","","","","survey","","","","","","","","","","","","","{""Q0"":""No""}","","","take-meds","No"
"survey-text","105","2138460","0.0-10.0-9.0","36c5b9ef4858f8451b4ee44836e4e1ac6f40db3005de0716385db8582e44be38","swim","arctic","8831.5","","","","","","","survey","","","","","","","","","","","","","{""HC"":""""}","","","health-concerns",""
"html-button-response","106","2144734","0.0-11.0-0.0","36c5b9ef4858f8451b4ee44836e4e1ac6f40db3005de0716385db8582e44be38","swim","arctic","6020","","<p>How would you describe your musical skills/experiences?</p>","3","","","","survey","","","","","","","","","","","","","","","","music-skill","4"
"survey-multi-choice","107","2147767","0.0-11.0-1.0","36c5b9ef4858f8451b4ee44836e4e1ac6f40db3005de0716385db8582e44be38","swim","arctic","2777","","","","","","","survey","","","","","","","","","","","","","{""Q0"":""Yes""}","","","music-instrument","Yes"
"survey-text","108","2152376","0.0-11.0-2.0-0.0","36c5b9ef4858f8451b4ee44836e4e1ac6f40db3005de0716385db8582e44be38","swim","arctic","4356.099999904633","","","","","","","survey","","","","","","","","","","","","","{""MEXP"":""24""}","","","music-training-yrs","24"
"html-button-response","109","2154738","0.0-12.0-0.0","36c5b9ef4858f8451b4ee44836e4e1ac6f40db3005de0716385db8582e44be38","swim","arctic","2108","","<p>How would you describe your general hearing abilities?</p>","4","","","","survey","","","","","","","","","","","","","","","","ssq-01","5"
"html-button-response","110","2160990","0.0-12.0-1.0","36c5b9ef4858f8451b4ee44836e4e1ac6f40db3005de0716385db8582e44be38","swim","arctic","5999","","<p>When you talk with someone at a place that strongly reverberates/echoes (e.g., in a church or train station),</br>can you understand what the person says?</p>","7","","","","survey","","","","","","","","","","","","","","","","ssq-02","7"
"html-button-response","111","2164903","0.0-12.0-2.0","36c5b9ef4858f8451b4ee44836e4e1ac6f40db3005de0716385db8582e44be38","swim","arctic","3660","","<p>When you are with a group (~5 people) in a lively restaurant, can you follow the group's conversation?</p>","8","","","","survey","","","","","","","","","","","","","","","","ssq-03","8"
"html-button-response","112","2170332","0.0-12.0-3.0","36c5b9ef4858f8451b4ee44836e4e1ac6f40db3005de0716385db8582e44be38","swim","arctic","5177","","<p>Based on the sound of a bus or truck, can you tell whether it is moving towards or away from you?</p>","7","","","","survey","","","","","","","","","","","","","","","","ssq-04","7"
"html-button-response","113","2175280","0.0-12.0-4.0","36c5b9ef4858f8451b4ee44836e4e1ac6f40db3005de0716385db8582e44be38","swim","arctic","4695","","<p>When you are in an unknown environment, can you tell from which direction a brief sound originates?</p>","6","","","","survey","","","","","","","","","","","","","","","","ssq-05","6"
"html-button-response","114","2180717","0.0-12.0-5.0","36c5b9ef4858f8451b4ee44836e4e1ac6f40db3005de0716385db8582e44be38","swim","arctic","5184","","<p>Are you able to ignore distracting sounds when you concentrate on a specific aspect of your acoustic surrounding?</p>","7","","","","survey","","","","","","","","","","","","","","","","ssq-06","7"
"fullscreen","115","2181970","0.0-13.0","36c5b9ef4858f8451b4ee44836e4e1ac6f40db3005de0716385db8582e44be38","swim","arctic","","","","","","","","","true","","","","","","","","","","","","","","","",""
