"trial_type","trial_index","time_elapsed","internal_node_id","ParticipantID","firstStory","scramStory","rt","url","stimulus","button_pressed","key_press","correctRESP","correct","designation","success","letterStim","letterType","ONSET","TIMEOUT","CONDITION","Participant","ONSET_ACTUAL","RT","RESP","ACC","STORY","responses","response","type","surveyQuestion","QRESP"
"pavlovia","0","8","0.0-0.0","95da2c84a74ae79d9ef6902e0e1fb5f69e454e851ebbef1779d21ac2d4a674e8","arctic","arctic","","","","","","","","","","","","","","","","","","","","","","","","",""
"external-html","1","74853","0.0-1.0","95da2c84a74ae79d9ef6902e0e1fb5f69e454e851ebbef1779d21ac2d4a674e8","arctic","arctic","74221","consent/consent_updated.html","","","","","","","","","","","","","","","","","","","","","","",""
"html-button-response","2","91950","0.0-2.0-0.0","95da2c84a74ae79d9ef6902e0e1fb5f69e454e851ebbef1779d21ac2d4a674e8","arctic","arctic","17092","","<p>Before we begin the main task, you will complete a short volume calibration and headphone check.</p><p>Please make sure you are in a quiet listening environment, that you are wearing headphones, and that your computer's volume is turned on.<p></p>","0","","","","","","","","","","","","","","","","","","","","",""
"html-button-response","3","101914","0.0-2.0-1.0","95da2c84a74ae79d9ef6902e0e1fb5f69e454e851ebbef1779d21ac2d4a674e8","arctic","arctic","9708","","<p>The volume calibration will be first.</p><p>You will hear a thirty-second noise. Please adjust your computer's volume so that this noise is being presented at a comfortable level.<p></p>","0","","","","","","","","","","","","","","","","","","","","",""
"audio-button-response","4","119676","0.0-2.0-2.0","95da2c84a74ae79d9ef6902e0e1fb5f69e454e851ebbef1779d21ac2d4a674e8","arctic","arctic","17487","","audio/volumetest.mp3","0","","","","","","","","","","","","","","","","","","","","",""
"html-keyboard-response","5","133735","0.0-3.0-0.0","95da2c84a74ae79d9ef6902e0e1fb5f69e454e851ebbef1779d21ac2d4a674e8","arctic","arctic","14052","","<p>You will now complete a short headphone check.</p><p>On each trial, you will hear three tones. One of these tones will be quieter than the others. Your task is to identify whether the quiet tone occurred first, second, or third.</p><p>There are six trials in total.<p></p><p></p>(Press SPACEBAR to begin)","","32","","","","","","","","","","","","","","","","","","","",""
"html-keyboard-response","6","134528","0.0-3.0-1.0-0.0","95da2c84a74ae79d9ef6902e0e1fb5f69e454e851ebbef1779d21ac2d4a674e8","arctic","arctic","null","","<div style=""font-size:60px;"">+</div>","","null","","","","","","","","","","","","","","","","","","","",""
"audio-button-response","7","147429","0.0-3.0-1.0-1.0","95da2c84a74ae79d9ef6902e0e1fb5f69e454e851ebbef1779d21ac2d4a674e8","arctic","arctic","12897","","audio/t3_1.mp3","0","","2","0","headphone-test","","","","","","","","","","","","","","","","",""
"html-keyboard-response","8","147933","0.0-3.0-1.0-2.0","95da2c84a74ae79d9ef6902e0e1fb5f69e454e851ebbef1779d21ac2d4a674e8","arctic","arctic","null","","<p>Incorrect</p>","","null","","","","","","","","","","","","","","","","","","","",""
"html-keyboard-response","9","148436","0.0-3.0-1.0-0.1","95da2c84a74ae79d9ef6902e0e1fb5f69e454e851ebbef1779d21ac2d4a674e8","arctic","arctic","null","","<div style=""font-size:60px;"">+</div>","","null","","","","","","","","","","","","","","","","","","","",""
"audio-button-response","10","153162","0.0-3.0-1.0-1.1","95da2c84a74ae79d9ef6902e0e1fb5f69e454e851ebbef1779d21ac2d4a674e8","arctic","arctic","4723","","audio/t1_1.mp3","1","","0","0","headphone-test","","","","","","","","","","","","","","","","",""
"html-keyboard-response","11","153664","0.0-3.0-1.0-2.1","95da2c84a74ae79d9ef6902e0e1fb5f69e454e851ebbef1779d21ac2d4a674e8","arctic","arctic","null","","<p>Incorrect</p>","","null","","","","","","","","","","","","","","","","","","","",""
"html-keyboard-response","12","154172","0.0-3.0-1.0-0.2","95da2c84a74ae79d9ef6902e0e1fb5f69e454e851ebbef1779d21ac2d4a674e8","arctic","arctic","null","","<div style=""font-size:60px;"">+</div>","","null","","","","","","","","","","","","","","","","","","","",""
"audio-button-response","13","156432","0.0-3.0-1.0-1.2","95da2c84a74ae79d9ef6902e0e1fb5f69e454e851ebbef1779d21ac2d4a674e8","arctic","arctic","2258","","audio/t2_1.mp3","2","","1","0","headphone-test","","","","","","","","","","","","","","","","",""
"html-keyboard-response","14","156935","0.0-3.0-1.0-2.2","95da2c84a74ae79d9ef6902e0e1fb5f69e454e851ebbef1779d21ac2d4a674e8","arctic","arctic","null","","<p>Incorrect</p>","","null","","","","","","","","","","","","","","","","","","","",""
"html-keyboard-response","15","157436","0.0-3.0-1.0-0.3","95da2c84a74ae79d9ef6902e0e1fb5f69e454e851ebbef1779d21ac2d4a674e8","arctic","arctic","null","","<div style=""font-size:60px;"">+</div>","","null","","","","","","","","","","","","","","","","","","","",""
"audio-button-response","16","162844","0.0-3.0-1.0-1.3","95da2c84a74ae79d9ef6902e0e1fb5f69e454e851ebbef1779d21ac2d4a674e8","arctic","arctic","5406","","audio/t2_2.mp3","0","","1","0","headphone-test","","","","","","","","","","","","","","","","",""
"html-keyboard-response","17","163346","0.0-3.0-1.0-2.3","95da2c84a74ae79d9ef6902e0e1fb5f69e454e851ebbef1779d21ac2d4a674e8","arctic","arctic","null","","<p>Incorrect</p>","","null","","","","","","","","","","","","","","","","","","","",""
"html-keyboard-response","18","163880","0.0-3.0-1.0-0.4","95da2c84a74ae79d9ef6902e0e1fb5f69e454e851ebbef1779d21ac2d4a674e8","arctic","arctic","null","","<div style=""font-size:60px;"">+</div>","","null","","","","","","","","","","","","","","","","","","","",""
"audio-button-response","19","168932","0.0-3.0-1.0-1.4","95da2c84a74ae79d9ef6902e0e1fb5f69e454e851ebbef1779d21ac2d4a674e8","arctic","arctic","5048","","audio/t3_2.mp3","2","","2","1","headphone-test","","","","","","","","","","","","","","","","",""
"html-keyboard-response","20","169433","0.0-3.0-1.0-2.4","95da2c84a74ae79d9ef6902e0e1fb5f69e454e851ebbef1779d21ac2d4a674e8","arctic","arctic","null","","<p>Correct</p>","","null","","","","","","","","","","","","","","","","","","","",""
"html-keyboard-response","21","169935","0.0-3.0-1.0-0.5","95da2c84a74ae79d9ef6902e0e1fb5f69e454e851ebbef1779d21ac2d4a674e8","arctic","arctic","null","","<div style=""font-size:60px;"">+</div>","","null","","","","","","","","","","","","","","","","","","","",""
"audio-button-response","22","174946","0.0-3.0-1.0-1.5","95da2c84a74ae79d9ef6902e0e1fb5f69e454e851ebbef1779d21ac2d4a674e8","arctic","arctic","5007","","audio/t1_2.mp3","0","","0","1","headphone-test","","","","","","","","","","","","","","","","",""
"html-keyboard-response","23","175448","0.0-3.0-1.0-2.5","95da2c84a74ae79d9ef6902e0e1fb5f69e454e851ebbef1779d21ac2d4a674e8","arctic","arctic","null","","<p>Correct</p>","","null","","","","","","","","","","","","","","","","","","","",""
"fullscreen","24","179917","0.0-4.0","95da2c84a74ae79d9ef6902e0e1fb5f69e454e851ebbef1779d21ac2d4a674e8","arctic","arctic","","","","","","","","","true","","","","","","","","","","","","","","","",""
"html-button-response","25","191479","0.0-5.0-0.0","95da2c84a74ae79d9ef6902e0e1fb5f69e454e851ebbef1779d21ac2d4a674e8","arctic","arctic","11560","","<p>There are two blocks to this experiment.</p><p>In each block, you will hear a ~13.5 minute story. One of the stories will be scrambled. Please listen carefully to both stories and understand them as best you can.</p><p>After each story, you will be asked some questions to assess your comprehension.</p>","0","","","","","","","","","","","","","","","","","","","","",""
"html-button-response","26","220737","0.0-5.0-1.0","95da2c84a74ae79d9ef6902e0e1fb5f69e454e851ebbef1779d21ac2d4a674e8","arctic","arctic","29256","","<p>During each story, there will be an additional task.</p><p>A letter will occasionally appear on the screen.</br>Your job is to - as quickly as you can - decide whether the letter is lowercase or uppercase and press one of two keys on the keyboard:</p><p>If the letter is <b>lowercase</b>, press key &lt;<b>x</b>&gt;.</p><p>If the letter is <b>uppercase</b>, press key &lt;<b>m</b>&gt;.</p>","0","","","","","","","","","","","","","","","","","","","","",""
"html-keyboard-response","27","237773","0.0-5.0-2.0","95da2c84a74ae79d9ef6902e0e1fb5f69e454e851ebbef1779d21ac2d4a674e8","arctic","arctic","17034","","<p>Because we want your responses to be as quick as possible, please keep your index fingers over the keys while listening.</p><p>Each block lasts about 20 minutes.</p><p><b>Press &lt;x&gt; or &lt;m&gt; to start the first block!</b></p>","","77","","","","","","","","","","","","","","","","","","","",""
"html-keyboard-response","28","238275","0.0-6.0-0.0-0.0","95da2c84a74ae79d9ef6902e0e1fb5f69e454e851ebbef1779d21ac2d4a674e8","arctic","arctic","null","","<div style=""font-size:60px;"" tabindex=""0"">+</div>","","null","","","","","","","","","","","","","","","","","","","",""
"dual-task","null","null","null","","arctic","arctic","1719.8000000715256","","b","null","88","88","1","arctic-dual-task","","b","lowercase","12000","0","6","95da2c84a74ae79d9ef6902e0e1fb5f69e454e851ebbef1779d21ac2d4a674e8","12001.899999976158","1719.8000000715256","88","1","arctic","","","","",""
"dual-task","null","null","null","","arctic","arctic","883.3999999761581","","E","null","77","77","1","arctic-dual-task","","E","uppercase","24000","0","6","95da2c84a74ae79d9ef6902e0e1fb5f69e454e851ebbef1779d21ac2d4a674e8","23999.299999952316","883.3999999761581","77","1","arctic","","","","",""
"dual-task","null","null","null","","arctic","arctic","1178.3000000715256","","a","null","88","88","1","arctic-dual-task","","a","lowercase","36000","0","6","95da2c84a74ae79d9ef6902e0e1fb5f69e454e851ebbef1779d21ac2d4a674e8","35999.200000047684","1178.3000000715256","88","1","arctic","","","","",""
"dual-task","null","null","null","","arctic","arctic","869.7999999523163","","h","null","88","88","1","arctic-dual-task","","h","lowercase","46000","0","6","95da2c84a74ae79d9ef6902e0e1fb5f69e454e851ebbef1779d21ac2d4a674e8","45998.5","869.7999999523163","88","1","arctic","","","","",""
"dual-task","null","null","null","","arctic","arctic","1186.8999999761581","","f","null","88","88","1","arctic-dual-task","","f","lowercase","60000","0","6","95da2c84a74ae79d9ef6902e0e1fb5f69e454e851ebbef1779d21ac2d4a674e8","59998.5","1186.8999999761581","88","1","arctic","","","","",""
"dual-task","null","null","null","","arctic","arctic","1043.7000000476837","","Q","null","77","77","1","arctic-dual-task","","Q","uppercase","70000","0","6","95da2c84a74ae79d9ef6902e0e1fb5f69e454e851ebbef1779d21ac2d4a674e8","69999","1043.7000000476837","77","1","arctic","","","","",""
"dual-task","null","null","null","","arctic","arctic","975.6999999284744","","d","null","88","88","1","arctic-dual-task","","d","lowercase","82000","0","6","95da2c84a74ae79d9ef6902e0e1fb5f69e454e851ebbef1779d21ac2d4a674e8","82001.5","975.6999999284744","88","1","arctic","","","","",""
"dual-task","null","null","null","","arctic","arctic","1031.3999999761581","","D","null","77","77","1","arctic-dual-task","","D","uppercase","92000","0","6","95da2c84a74ae79d9ef6902e0e1fb5f69e454e851ebbef1779d21ac2d4a674e8","92000.20000004768","1031.3999999761581","77","1","arctic","","","","",""
"dual-task","null","null","null","","arctic","arctic","1090.6000000238419","","B","null","77","77","1","arctic-dual-task","","B","uppercase","104000","0","6","95da2c84a74ae79d9ef6902e0e1fb5f69e454e851ebbef1779d21ac2d4a674e8","103999.39999997616","1090.6000000238419","77","1","arctic","","","","",""
"dual-task","null","null","null","","arctic","arctic","949.6000000238419","","B","null","77","77","1","arctic-dual-task","","B","uppercase","112000","0","6","95da2c84a74ae79d9ef6902e0e1fb5f69e454e851ebbef1779d21ac2d4a674e8","111999.20000004768","949.6000000238419","77","1","arctic","","","","",""
"dual-task","null","null","null","","arctic","arctic","928.0999999046326","","E","null","77","77","1","arctic-dual-task","","E","uppercase","120000","0","6","95da2c84a74ae79d9ef6902e0e1fb5f69e454e851ebbef1779d21ac2d4a674e8","119999.39999997616","928.0999999046326","77","1","arctic","","","","",""
"dual-task","null","null","null","","arctic","arctic","1000.8999999761581","","E","null","77","77","1","arctic-dual-task","","E","uppercase","130000","0","6","95da2c84a74ae79d9ef6902e0e1fb5f69e454e851ebbef1779d21ac2d4a674e8","129998.89999997616","1000.8999999761581","77","1","arctic","","","","",""
"dual-task","null","null","null","","arctic","arctic","1032.7999999523163","","A","null","77","77","1","arctic-dual-task","","A","uppercase","136000","0","6","95da2c84a74ae79d9ef6902e0e1fb5f69e454e851ebbef1779d21ac2d4a674e8","136000.39999997616","1032.7999999523163","77","1","arctic","","","","",""
"dual-task","null","null","null","","arctic","arctic","895","","q","null","88","88","1","arctic-dual-task","","q","lowercase","144000","0","6","95da2c84a74ae79d9ef6902e0e1fb5f69e454e851ebbef1779d21ac2d4a674e8","143999.79999995232","895","88","1","arctic","","","","",""
"dual-task","null","null","null","","arctic","arctic","919.6999999284744","","a","null","88","88","1","arctic-dual-task","","a","lowercase","158000","0","6","95da2c84a74ae79d9ef6902e0e1fb5f69e454e851ebbef1779d21ac2d4a674e8","157999.60000002384","919.6999999284744","88","1","arctic","","","","",""
"dual-task","null","null","null","","arctic","arctic","913.7000000476837","","q","null","88","88","1","arctic-dual-task","","q","lowercase","168000","0","6","95da2c84a74ae79d9ef6902e0e1fb5f69e454e851ebbef1779d21ac2d4a674e8","167999.29999995232","913.7000000476837","88","1","arctic","","","","",""
"dual-task","null","null","null","","arctic","arctic","906.6999999284744","","Q","null","77","77","1","arctic-dual-task","","Q","uppercase","178000","0","6","95da2c84a74ae79d9ef6902e0e1fb5f69e454e851ebbef1779d21ac2d4a674e8","177999.10000002384","906.6999999284744","77","1","arctic","","","","",""
"dual-task","null","null","null","","arctic","arctic","1163.8999999761581","","f","null","88","88","1","arctic-dual-task","","f","lowercase","188000","0","6","95da2c84a74ae79d9ef6902e0e1fb5f69e454e851ebbef1779d21ac2d4a674e8","187999.5","1163.8999999761581","88","1","arctic","","","","",""
"dual-task","null","null","null","","arctic","arctic","1049.1999999284744","","D","null","77","77","1","arctic-dual-task","","D","uppercase","202000","0","6","95da2c84a74ae79d9ef6902e0e1fb5f69e454e851ebbef1779d21ac2d4a674e8","201999","1049.1999999284744","77","1","arctic","","","","",""
"dual-task","null","null","null","","arctic","arctic","1032.7000000476837","","h","null","88","88","1","arctic-dual-task","","h","lowercase","214000","0","6","95da2c84a74ae79d9ef6902e0e1fb5f69e454e851ebbef1779d21ac2d4a674e8","213999.79999995232","1032.7000000476837","88","1","arctic","","","","",""
"dual-task","null","null","null","","arctic","arctic","1120.2999999523163","","T","null","77","77","1","arctic-dual-task","","T","uppercase","220000","0","6","95da2c84a74ae79d9ef6902e0e1fb5f69e454e851ebbef1779d21ac2d4a674e8","219999.60000002384","1120.2999999523163","77","1","arctic","","","","",""
"dual-task","null","null","null","","arctic","arctic","1714.2000000476837","","T","null","77","77","1","arctic-dual-task","","T","uppercase","232000","0","6","95da2c84a74ae79d9ef6902e0e1fb5f69e454e851ebbef1779d21ac2d4a674e8","231999.29999995232","1714.2000000476837","77","1","arctic","","","","",""
"dual-task","null","null","null","","arctic","arctic","NA","","h","null","NA","88","0","arctic-dual-task","","h","lowercase","240000","1","6","95da2c84a74ae79d9ef6902e0e1fb5f69e454e851ebbef1779d21ac2d4a674e8","239999.5","NA","NA","0","arctic","","","","",""
"dual-task","null","null","null","","arctic","arctic","1140","","g","null","88","88","1","arctic-dual-task","","g","lowercase","248000","0","6","95da2c84a74ae79d9ef6902e0e1fb5f69e454e851ebbef1779d21ac2d4a674e8","248000.70000004768","1140","88","1","arctic","","","","",""
"dual-task","null","null","null","","arctic","arctic","1494.6000000238419","","r","null","88","88","1","arctic-dual-task","","r","lowercase","258000","0","6","95da2c84a74ae79d9ef6902e0e1fb5f69e454e851ebbef1779d21ac2d4a674e8","258017.20000004768","1494.6000000238419","88","1","arctic","","","","",""
"dual-task","null","null","null","","arctic","arctic","1024.6000000238419","","r","null","88","88","1","arctic-dual-task","","r","lowercase","270000","0","6","95da2c84a74ae79d9ef6902e0e1fb5f69e454e851ebbef1779d21ac2d4a674e8","270000","1024.6000000238419","88","1","arctic","","","","",""
"dual-task","null","null","null","","arctic","arctic","892.3999999761581","","n","null","88","88","1","arctic-dual-task","","n","lowercase","282000","0","6","95da2c84a74ae79d9ef6902e0e1fb5f69e454e851ebbef1779d21ac2d4a674e8","282000.2000000477","892.3999999761581","88","1","arctic","","","","",""
"dual-task","null","null","null","","arctic","arctic","1730.5","","t","null","88","88","1","arctic-dual-task","","t","lowercase","292000","0","6","95da2c84a74ae79d9ef6902e0e1fb5f69e454e851ebbef1779d21ac2d4a674e8","292000.60000002384","1730.5","88","1","arctic","","","","",""
"dual-task","null","null","null","","arctic","arctic","1091.6000000238419","","F","null","77","77","1","arctic-dual-task","","F","uppercase","300000","0","6","95da2c84a74ae79d9ef6902e0e1fb5f69e454e851ebbef1779d21ac2d4a674e8","300000.39999997616","1091.6000000238419","77","1","arctic","","","","",""
"dual-task","null","null","null","","arctic","arctic","893.1000000238419","","N","null","77","77","1","arctic-dual-task","","N","uppercase","306000","0","6","95da2c84a74ae79d9ef6902e0e1fb5f69e454e851ebbef1779d21ac2d4a674e8","306000.39999997616","893.1000000238419","77","1","arctic","","","","",""
"dual-task","null","null","null","","arctic","arctic","1310.7999999523163","","H","null","77","77","1","arctic-dual-task","","H","uppercase","312000","0","6","95da2c84a74ae79d9ef6902e0e1fb5f69e454e851ebbef1779d21ac2d4a674e8","311999.5","1310.7999999523163","77","1","arctic","","","","",""
"dual-task","null","null","null","","arctic","arctic","1291.5","","g","null","88","88","1","arctic-dual-task","","g","lowercase","318000","0","6","95da2c84a74ae79d9ef6902e0e1fb5f69e454e851ebbef1779d21ac2d4a674e8","317999.60000002384","1291.5","88","1","arctic","","","","",""
"dual-task","null","null","null","","arctic","arctic","1042","","G","null","77","77","1","arctic-dual-task","","G","uppercase","332000","0","6","95da2c84a74ae79d9ef6902e0e1fb5f69e454e851ebbef1779d21ac2d4a674e8","332000.10000002384","1042","77","1","arctic","","","","",""
"dual-task","null","null","null","","arctic","arctic","1128","","F","null","77","77","1","arctic-dual-task","","F","uppercase","344000","0","6","95da2c84a74ae79d9ef6902e0e1fb5f69e454e851ebbef1779d21ac2d4a674e8","343999.39999997616","1128","77","1","arctic","","","","",""
"dual-task","null","null","null","","arctic","arctic","1075.1999999284744","","T","null","77","77","1","arctic-dual-task","","T","uppercase","350000","0","6","95da2c84a74ae79d9ef6902e0e1fb5f69e454e851ebbef1779d21ac2d4a674e8","350002.10000002384","1075.1999999284744","77","1","arctic","","","","",""
"dual-task","null","null","null","","arctic","arctic","1115.3999999761581","","A","null","77","77","1","arctic-dual-task","","A","uppercase","356000","0","6","95da2c84a74ae79d9ef6902e0e1fb5f69e454e851ebbef1779d21ac2d4a674e8","356000.39999997616","1115.3999999761581","77","1","arctic","","","","",""
"dual-task","null","null","null","","arctic","arctic","1627.8999999761581","","q","null","77","88","0","arctic-dual-task","","q","lowercase","368000","0","6","95da2c84a74ae79d9ef6902e0e1fb5f69e454e851ebbef1779d21ac2d4a674e8","368000","1627.8999999761581","77","0","arctic","","","","",""
"dual-task","null","null","null","","arctic","arctic","1018.1000000238419","","E","null","77","77","1","arctic-dual-task","","E","uppercase","378000","0","6","95da2c84a74ae79d9ef6902e0e1fb5f69e454e851ebbef1779d21ac2d4a674e8","378062","1018.1000000238419","77","1","arctic","","","","",""
"dual-task","null","null","null","","arctic","arctic","988.5","","r","null","88","88","1","arctic-dual-task","","r","lowercase","390000","0","6","95da2c84a74ae79d9ef6902e0e1fb5f69e454e851ebbef1779d21ac2d4a674e8","390000.2999999523","988.5","88","1","arctic","","","","",""
"dual-task","null","null","null","","arctic","arctic","1111.7000000476837","","H","null","77","77","1","arctic-dual-task","","H","uppercase","402000","0","6","95da2c84a74ae79d9ef6902e0e1fb5f69e454e851ebbef1779d21ac2d4a674e8","402000.5","1111.7000000476837","77","1","arctic","","","","",""
"dual-task","null","null","null","","arctic","arctic","NA","","n","null","NA","88","0","arctic-dual-task","","n","lowercase","408000","1","6","95da2c84a74ae79d9ef6902e0e1fb5f69e454e851ebbef1779d21ac2d4a674e8","408000.7000000477","NA","NA","0","arctic","","","","",""
"dual-task","null","null","null","","arctic","arctic","NA","","N","null","NA","77","0","arctic-dual-task","","N","uppercase","414000","1","6","95da2c84a74ae79d9ef6902e0e1fb5f69e454e851ebbef1779d21ac2d4a674e8","413999.89999997616","NA","NA","0","arctic","","","","",""
"dual-task","null","null","null","","arctic","arctic","899.1000000238419","","f","null","88","88","1","arctic-dual-task","","f","lowercase","428000","0","6","95da2c84a74ae79d9ef6902e0e1fb5f69e454e851ebbef1779d21ac2d4a674e8","427999.60000002384","899.1000000238419","88","1","arctic","","","","",""
"dual-task","null","null","null","","arctic","arctic","845.2999999523163","","H","null","77","77","1","arctic-dual-task","","H","uppercase","442000","0","6","95da2c84a74ae79d9ef6902e0e1fb5f69e454e851ebbef1779d21ac2d4a674e8","442000.60000002384","845.2999999523163","77","1","arctic","","","","",""
"dual-task","null","null","null","","arctic","arctic","795.3000000715256","","d","null","88","88","1","arctic-dual-task","","d","lowercase","448000","0","6","95da2c84a74ae79d9ef6902e0e1fb5f69e454e851ebbef1779d21ac2d4a674e8","448077.2999999523","795.3000000715256","88","1","arctic","","","","",""
"dual-task","null","null","null","","arctic","arctic","1056.7000000476837","","g","null","88","88","1","arctic-dual-task","","g","lowercase","458000","0","6","95da2c84a74ae79d9ef6902e0e1fb5f69e454e851ebbef1779d21ac2d4a674e8","458000.2000000477","1056.7000000476837","88","1","arctic","","","","",""
"dual-task","null","null","null","","arctic","arctic","1058.5","","t","null","88","88","1","arctic-dual-task","","t","lowercase","468000","0","6","95da2c84a74ae79d9ef6902e0e1fb5f69e454e851ebbef1779d21ac2d4a674e8","468000.60000002384","1058.5","88","1","arctic","","","","",""
"dual-task","null","null","null","","arctic","arctic","1091.8999999761581","","h","null","88","88","1","arctic-dual-task","","h","lowercase","476000","0","6","95da2c84a74ae79d9ef6902e0e1fb5f69e454e851ebbef1779d21ac2d4a674e8","476000.2999999523","1091.8999999761581","88","1","arctic","","","","",""
"dual-task","null","null","null","","arctic","arctic","1391.5","","t","null","88","88","1","arctic-dual-task","","t","lowercase","486000","0","6","95da2c84a74ae79d9ef6902e0e1fb5f69e454e851ebbef1779d21ac2d4a674e8","486000.39999997616","1391.5","88","1","arctic","","","","",""
"dual-task","null","null","null","","arctic","arctic","990.8999999761581","","B","null","77","77","1","arctic-dual-task","","B","uppercase","496000","0","6","95da2c84a74ae79d9ef6902e0e1fb5f69e454e851ebbef1779d21ac2d4a674e8","496001.2000000477","990.8999999761581","77","1","arctic","","","","",""
"dual-task","null","null","null","","arctic","arctic","1059.1999999284744","","T","null","77","77","1","arctic-dual-task","","T","uppercase","506000","0","6","95da2c84a74ae79d9ef6902e0e1fb5f69e454e851ebbef1779d21ac2d4a674e8","506000.5","1059.1999999284744","77","1","arctic","","","","",""
"dual-task","null","null","null","","arctic","arctic","945.5999999046326","","r","null","88","88","1","arctic-dual-task","","r","lowercase","516000","0","6","95da2c84a74ae79d9ef6902e0e1fb5f69e454e851ebbef1779d21ac2d4a674e8","516027.2000000477","945.5999999046326","88","1","arctic","","","","",""
"dual-task","null","null","null","","arctic","arctic","1472.8999999761581","","t","null","88","88","1","arctic-dual-task","","t","lowercase","524000","0","6","95da2c84a74ae79d9ef6902e0e1fb5f69e454e851ebbef1779d21ac2d4a674e8","524000","1472.8999999761581","88","1","arctic","","","","",""
"dual-task","null","null","null","","arctic","arctic","1712.6999999284744","","N","null","77","77","1","arctic-dual-task","","N","uppercase","532000","0","6","95da2c84a74ae79d9ef6902e0e1fb5f69e454e851ebbef1779d21ac2d4a674e8","532003.2000000477","1712.6999999284744","77","1","arctic","","","","",""
"dual-task","null","null","null","","arctic","arctic","938.6999999284744","","A","null","77","77","1","arctic-dual-task","","A","uppercase","540000","0","6","95da2c84a74ae79d9ef6902e0e1fb5f69e454e851ebbef1779d21ac2d4a674e8","540000.7000000477","938.6999999284744","77","1","arctic","","","","",""
"dual-task","null","null","null","","arctic","arctic","1005.5","","e","null","88","88","1","arctic-dual-task","","e","lowercase","548000","0","6","95da2c84a74ae79d9ef6902e0e1fb5f69e454e851ebbef1779d21ac2d4a674e8","548001","1005.5","88","1","arctic","","","","",""
"dual-task","null","null","null","","arctic","arctic","974.8999999761581","","f","null","88","88","1","arctic-dual-task","","f","lowercase","558000","0","6","95da2c84a74ae79d9ef6902e0e1fb5f69e454e851ebbef1779d21ac2d4a674e8","558000.7999999523","974.8999999761581","88","1","arctic","","","","",""
"dual-task","null","null","null","","arctic","arctic","929.7000000476837","","N","null","77","77","1","arctic-dual-task","","N","uppercase","566000","0","6","95da2c84a74ae79d9ef6902e0e1fb5f69e454e851ebbef1779d21ac2d4a674e8","566000.3999999762","929.7000000476837","77","1","arctic","","","","",""
"dual-task","null","null","null","","arctic","arctic","1077.2999999523163","","e","null","88","88","1","arctic-dual-task","","e","lowercase","574000","0","6","95da2c84a74ae79d9ef6902e0e1fb5f69e454e851ebbef1779d21ac2d4a674e8","574001.1000000238","1077.2999999523163","88","1","arctic","","","","",""
"dual-task","null","null","null","","arctic","arctic","939.4000000953674","","H","null","77","77","1","arctic-dual-task","","H","uppercase","582000","0","6","95da2c84a74ae79d9ef6902e0e1fb5f69e454e851ebbef1779d21ac2d4a674e8","582000.3999999762","939.4000000953674","77","1","arctic","","","","",""
"dual-task","null","null","null","","arctic","arctic","895.5","","B","null","77","77","1","arctic-dual-task","","B","uppercase","588000","0","6","95da2c84a74ae79d9ef6902e0e1fb5f69e454e851ebbef1779d21ac2d4a674e8","588001.1000000238","895.5","77","1","arctic","","","","",""
"dual-task","null","null","null","","arctic","arctic","947","","d","null","88","88","1","arctic-dual-task","","d","lowercase","596000","0","6","95da2c84a74ae79d9ef6902e0e1fb5f69e454e851ebbef1779d21ac2d4a674e8","596001.2999999523","947","88","1","arctic","","","","",""
"dual-task","null","null","null","","arctic","arctic","1175.1999999284744","","Q","null","77","77","1","arctic-dual-task","","Q","uppercase","606000","0","6","95da2c84a74ae79d9ef6902e0e1fb5f69e454e851ebbef1779d21ac2d4a674e8","606004.7000000477","1175.1999999284744","77","1","arctic","","","","",""
"dual-task","null","null","null","","arctic","arctic","944.2000000476837","","a","null","88","88","1","arctic-dual-task","","a","lowercase","616000","0","6","95da2c84a74ae79d9ef6902e0e1fb5f69e454e851ebbef1779d21ac2d4a674e8","616000.8999999762","944.2000000476837","88","1","arctic","","","","",""
"dual-task","null","null","null","","arctic","arctic","872.2999999523163","","e","null","88","88","1","arctic-dual-task","","e","lowercase","626000","0","6","95da2c84a74ae79d9ef6902e0e1fb5f69e454e851ebbef1779d21ac2d4a674e8","626000.8999999762","872.2999999523163","88","1","arctic","","","","",""
"dual-task","null","null","null","","arctic","arctic","NA","","R","null","NA","77","0","arctic-dual-task","","R","uppercase","634000","1","6","95da2c84a74ae79d9ef6902e0e1fb5f69e454e851ebbef1779d21ac2d4a674e8","634001.1000000238","NA","NA","0","arctic","","","","",""
"dual-task","null","null","null","","arctic","arctic","988.5999999046326","","b","null","88","88","1","arctic-dual-task","","b","lowercase","640000","0","6","95da2c84a74ae79d9ef6902e0e1fb5f69e454e851ebbef1779d21ac2d4a674e8","640000.8999999762","988.5999999046326","88","1","arctic","","","","",""
"dual-task","null","null","null","","arctic","arctic","NA","","R","null","NA","77","0","arctic-dual-task","","R","uppercase","648000","1","6","95da2c84a74ae79d9ef6902e0e1fb5f69e454e851ebbef1779d21ac2d4a674e8","648001.5","NA","NA","0","arctic","","","","",""
"dual-task","null","null","null","","arctic","arctic","1936.6999999284744","","n","null","88","88","1","arctic-dual-task","","n","lowercase","660000","0","6","95da2c84a74ae79d9ef6902e0e1fb5f69e454e851ebbef1779d21ac2d4a674e8","660001.3999999762","1936.6999999284744","88","1","arctic","","","","",""
"dual-task","null","null","null","","arctic","arctic","978.6000000238419","","G","null","77","77","1","arctic-dual-task","","G","uppercase","668000","0","6","95da2c84a74ae79d9ef6902e0e1fb5f69e454e851ebbef1779d21ac2d4a674e8","668014.2999999523","978.6000000238419","77","1","arctic","","","","",""
"dual-task","null","null","null","","arctic","arctic","996.7999999523163","","G","null","77","77","1","arctic-dual-task","","G","uppercase","676000","0","6","95da2c84a74ae79d9ef6902e0e1fb5f69e454e851ebbef1779d21ac2d4a674e8","676001.7999999523","996.7999999523163","77","1","arctic","","","","",""
"dual-task","null","null","null","","arctic","arctic","1016.5","","Q","null","77","77","1","arctic-dual-task","","Q","uppercase","686000","0","6","95da2c84a74ae79d9ef6902e0e1fb5f69e454e851ebbef1779d21ac2d4a674e8","686013.1000000238","1016.5","77","1","arctic","","","","",""
"dual-task","null","null","null","","arctic","arctic","1035.1000000238419","","a","null","88","88","1","arctic-dual-task","","a","lowercase","692000","0","6","95da2c84a74ae79d9ef6902e0e1fb5f69e454e851ebbef1779d21ac2d4a674e8","692000.6000000238","1035.1000000238419","88","1","arctic","","","","",""
"dual-task","null","null","null","","arctic","arctic","958.7999999523163","","e","null","88","88","1","arctic-dual-task","","e","lowercase","702000","0","6","95da2c84a74ae79d9ef6902e0e1fb5f69e454e851ebbef1779d21ac2d4a674e8","702000.8999999762","958.7999999523163","88","1","arctic","","","","",""
"dual-task","null","null","null","","arctic","arctic","1116.6999999284744","","A","null","77","77","1","arctic-dual-task","","A","uppercase","710000","0","6","95da2c84a74ae79d9ef6902e0e1fb5f69e454e851ebbef1779d21ac2d4a674e8","710000.8999999762","1116.6999999284744","77","1","arctic","","","","",""
"dual-task","null","null","null","","arctic","arctic","1786.8000000715256","","b","null","88","88","1","arctic-dual-task","","b","lowercase","716000","0","6","95da2c84a74ae79d9ef6902e0e1fb5f69e454e851ebbef1779d21ac2d4a674e8","716001.2000000477","1786.8000000715256","88","1","arctic","","","","",""
"dual-task","null","null","null","","arctic","arctic","NA","","R","null","NA","77","0","arctic-dual-task","","R","uppercase","724000","1","6","95da2c84a74ae79d9ef6902e0e1fb5f69e454e851ebbef1779d21ac2d4a674e8","724001.6000000238","NA","NA","0","arctic","","","","",""
"dual-task","null","null","null","","arctic","arctic","NA","","n","null","NA","88","0","arctic-dual-task","","n","lowercase","732000","1","6","95da2c84a74ae79d9ef6902e0e1fb5f69e454e851ebbef1779d21ac2d4a674e8","732002","NA","NA","0","arctic","","","","",""
"dual-task","null","null","null","","arctic","arctic","982","","b","null","88","88","1","arctic-dual-task","","b","lowercase","740000","0","6","95da2c84a74ae79d9ef6902e0e1fb5f69e454e851ebbef1779d21ac2d4a674e8","740000.7999999523","982","88","1","arctic","","","","",""
"dual-task","null","null","null","","arctic","arctic","1549.3000000715256","","G","null","77","77","1","arctic-dual-task","","G","uppercase","748000","0","6","95da2c84a74ae79d9ef6902e0e1fb5f69e454e851ebbef1779d21ac2d4a674e8","748000.5","1549.3000000715256","77","1","arctic","","","","",""
"dual-task","null","null","null","","arctic","arctic","993","","R","null","77","77","1","arctic-dual-task","","R","uppercase","760000","0","6","95da2c84a74ae79d9ef6902e0e1fb5f69e454e851ebbef1779d21ac2d4a674e8","760000.8999999762","993","77","1","arctic","","","","",""
"dual-task","null","null","null","","arctic","arctic","1602.8999999761581","","g","null","88","88","1","arctic-dual-task","","g","lowercase","770000","0","6","95da2c84a74ae79d9ef6902e0e1fb5f69e454e851ebbef1779d21ac2d4a674e8","770000.8999999762","1602.8999999761581","88","1","arctic","","","","",""
"dual-task","null","null","null","","arctic","arctic","937.1999999284744","","F","null","77","77","1","arctic-dual-task","","F","uppercase","776000","0","6","95da2c84a74ae79d9ef6902e0e1fb5f69e454e851ebbef1779d21ac2d4a674e8","776001.5","937.1999999284744","77","1","arctic","","","","",""
"dual-task","null","null","null","","arctic","arctic","1008.6000000238419","","D","null","77","77","1","arctic-dual-task","","D","uppercase","790000","0","6","95da2c84a74ae79d9ef6902e0e1fb5f69e454e851ebbef1779d21ac2d4a674e8","790001.5","1008.6000000238419","77","1","arctic","","","","",""
"audio-keyboard-response","29","1037088","0.0-6.0-0.0-1.0","95da2c84a74ae79d9ef6902e0e1fb5f69e454e851ebbef1779d21ac2d4a674e8","arctic","arctic","null","","audio/story_arctic_scrambled.mp3","","null","","","","","","","","","","","","","","","","","","","",""
"html-button-response","30","1050260","0.0-6.0-0.0-2.0","95da2c84a74ae79d9ef6902e0e1fb5f69e454e851ebbef1779d21ac2d4a674e8","arctic","arctic","13169","","<p>This concludes the story. Thank you for listening.</p><p>You will now answer some questions about the content of the story.</p>","0","","","","","","","","","","","","","","","","","","","","",""
"survey-multi-choice","31","1246519","0.0-6.0-0.0-3.0-0.0","95da2c84a74ae79d9ef6902e0e1fb5f69e454e851ebbef1779d21ac2d4a674e8","arctic","arctic","196251","","<b>How did the dogs respond when they saw the bears?</b>","","","","0","arctic-comprehension","","","","","","","","","","","","","{""Q0"":""Barked aggressively""}","","","",""
"survey-multi-choice","32","1256197","0.0-6.0-0.0-3.0-0.1","95da2c84a74ae79d9ef6902e0e1fb5f69e454e851ebbef1779d21ac2d4a674e8","arctic","arctic","9419","","<b>How did the narrator prepare for her expedition?</b>","","","","1","arctic-comprehension","","","","","","","","","","","","","{""Q0"":""Trained in Alaska learning how to dogsled""}","","","",""
"survey-multi-choice","33","1292655","0.0-6.0-0.0-3.0-0.2","95da2c84a74ae79d9ef6902e0e1fb5f69e454e851ebbef1779d21ac2d4a674e8","arctic","arctic","36202","","<b>What was the objective of the narrator&#39;s expedition?</b>","","","","1","arctic-comprehension","","","","","","","","","","","","","{""Q0"":""Dogsled across Arctic America""}","","","",""
"survey-multi-choice","34","1803424","0.0-6.0-0.0-3.0-0.3","95da2c84a74ae79d9ef6902e0e1fb5f69e454e851ebbef1779d21ac2d4a674e8","arctic","arctic","510510","","<b>What were the weather conditions in the Arctic like the winter of the narrator&#39;s expedition?</b>","","","","1","arctic-comprehension","","","","","","","","","","","","","{""Q0"":""There were more storms than any other winter in recorded history.""}","","","",""
"survey-multi-choice","35","1810370","0.0-6.0-0.0-3.0-0.4","95da2c84a74ae79d9ef6902e0e1fb5f69e454e851ebbef1779d21ac2d4a674e8","arctic","arctic","6686","","<b>How many sponsorships did the narrator receive to support her expedition?</b>","","","","1","arctic-comprehension","","","","","","","","","","","","","{""Q0"":""None""}","","","",""
"survey-multi-choice","36","1818690","0.0-6.0-0.0-3.0-0.5","95da2c84a74ae79d9ef6902e0e1fb5f69e454e851ebbef1779d21ac2d4a674e8","arctic","arctic","8055","","<b>What did the narrator do for leisure while in her tent?</b>","","","","0","arctic-comprehension","","","","","","","","","","","","","{""Q0"":""Take photos""}","","","",""
"survey-multi-choice","37","1837575","0.0-6.0-0.0-3.0-0.6","95da2c84a74ae79d9ef6902e0e1fb5f69e454e851ebbef1779d21ac2d4a674e8","arctic","arctic","18625","","<b>Which dog on the narrator&#39;s dog team never followed instructions?</b>","","","","1","arctic-comprehension","","","","","","","","","","","","","{""Q0"":""Robert""}","","","",""
"survey-multi-choice","38","1851990","0.0-6.0-0.0-3.0-0.7","95da2c84a74ae79d9ef6902e0e1fb5f69e454e851ebbef1779d21ac2d4a674e8","arctic","arctic","14118","","<b>How did the narrator&#39;s neighbour respond when she told him about her expedition?</b>","","","","0","arctic-comprehension","","","","","","","","","","","","","{""Q0"":""He offered to cover all expenses.""}","","","",""
"survey-multi-choice","39","1868609","0.0-6.0-0.0-3.0-0.8","95da2c84a74ae79d9ef6902e0e1fb5f69e454e851ebbef1779d21ac2d4a674e8","arctic","arctic","16361","","<b>What is the name of the narrator&#39;s neighbour?</b>","","","","0","arctic-comprehension","","","","","","","","","","","","","{""Q0"":""Doug""}","","","",""
"survey-multi-choice","40","1889017","0.0-6.0-0.0-3.0-0.9","95da2c84a74ae79d9ef6902e0e1fb5f69e454e851ebbef1779d21ac2d4a674e8","arctic","arctic","19895","","<b>How did the narrator&#39;s encounter with the polar bears end?</b>","","","","0","arctic-comprehension","","","","","","","","","","","","","{""Q0"":""She shot the bear with her shotgun.""}","","","",""
"html-button-response","41","2109956","0.0-6.0-0.0-4.0","95da2c84a74ae79d9ef6902e0e1fb5f69e454e851ebbef1779d21ac2d4a674e8","arctic","arctic","220655","","<p>Thank you for your responses.</p><p>You will now answer some questions about your impressions of the story.</p>","0","","","","","","","","","","","","","","","","","","","","",""
"html-button-response","42","2113819","0.0-6.0-0.0-5.0-0.0","95da2c84a74ae79d9ef6902e0e1fb5f69e454e851ebbef1779d21ac2d4a674e8","arctic","arctic","3852","","MS1","5","","","","arctic-engagement","","","","","","","","","","","","","","6","mental-sim","",""
"html-button-response","43","2117706","0.0-6.0-0.0-5.0-0.1","95da2c84a74ae79d9ef6902e0e1fb5f69e454e851ebbef1779d21ac2d4a674e8","arctic","arctic","3634","","A1","3","","","","arctic-engagement","","","","","","","","","","","","","","4","absorption","",""
"html-button-response","44","2119918","0.0-6.0-0.0-5.0-0.2","95da2c84a74ae79d9ef6902e0e1fb5f69e454e851ebbef1779d21ac2d4a674e8","arctic","arctic","1958","","MS2","2","","","","arctic-engagement","","","","","","","","","","","","","","3","mental-sim","",""
"html-button-response","45","2124097","0.0-6.0-0.0-5.0-0.3","95da2c84a74ae79d9ef6902e0e1fb5f69e454e851ebbef1779d21ac2d4a674e8","arctic","arctic","3926","","EE5","5","","","","arctic-engagement","","","","","","","","","","","","","","6","emo-engage","",""
"html-button-response","46","2126195","0.0-6.0-0.0-5.0-0.4","95da2c84a74ae79d9ef6902e0e1fb5f69e454e851ebbef1779d21ac2d4a674e8","arctic","arctic","1842","","E1","3","","","","arctic-engagement","","","","","","","","","","","","","","4","enjoyment","",""
"html-button-response","47","2128631","0.0-6.0-0.0-5.0-0.5","95da2c84a74ae79d9ef6902e0e1fb5f69e454e851ebbef1779d21ac2d4a674e8","arctic","arctic","2180","","EE4","5","","","","arctic-engagement","","","","","","","","","","","","","","6","emo-engage","",""
"html-button-response","48","2130458","0.0-6.0-0.0-5.0-0.6","95da2c84a74ae79d9ef6902e0e1fb5f69e454e851ebbef1779d21ac2d4a674e8","arctic","arctic","1574","","E6","5","","","","arctic-engagement","","","","","","","","","","","","","","6","enjoyment","",""
"html-button-response","49","2133187","0.0-6.0-0.0-5.0-0.7","95da2c84a74ae79d9ef6902e0e1fb5f69e454e851ebbef1779d21ac2d4a674e8","arctic","arctic","2475","","E10","5","","","","arctic-engagement","","","","","","","","","","","","","","6","enjoyment","",""
"html-button-response","50","2138609","0.0-6.0-0.0-5.0-0.8","95da2c84a74ae79d9ef6902e0e1fb5f69e454e851ebbef1779d21ac2d4a674e8","arctic","arctic","5168","","A3","6","","","","arctic-engagement","","","","","","","","","","","","","","7","absorption","",""
"html-button-response","51","2143290","0.0-6.0-0.0-5.0-0.9","95da2c84a74ae79d9ef6902e0e1fb5f69e454e851ebbef1779d21ac2d4a674e8","arctic","arctic","4379","","EE3","4","","","","arctic-engagement","","","","","","","","","","","","","","5","emo-engage","",""
"html-button-response","52","2147242","0.0-6.0-0.0-5.0-0.10","95da2c84a74ae79d9ef6902e0e1fb5f69e454e851ebbef1779d21ac2d4a674e8","arctic","arctic","3696","","A2","6","","","","arctic-engagement","","","","","","","","","","","","","","7","absorption","",""
"html-button-response","53","2151098","0.0-6.0-0.0-5.0-0.11","95da2c84a74ae79d9ef6902e0e1fb5f69e454e851ebbef1779d21ac2d4a674e8","arctic","arctic","3601","","A5","6","","","","arctic-engagement","","","","","","","","","","","","","","7","absorption","",""
"html-button-response","54","2157035","0.0-6.0-0.0-5.0-0.12","95da2c84a74ae79d9ef6902e0e1fb5f69e454e851ebbef1779d21ac2d4a674e8","arctic","arctic","5682","","EE2","4","","","","arctic-engagement","","","","","","","","","","","","","","5","emo-engage","",""
"html-button-response","55","2165681","0.0-6.0-0.0-5.0-0.13","95da2c84a74ae79d9ef6902e0e1fb5f69e454e851ebbef1779d21ac2d4a674e8","arctic","arctic","8390","","A4","5","","","","arctic-engagement","","","","","","","","","","","","","","6","absorption","",""
"html-button-response","56","2174421","0.0-6.0-0.0-5.0-0.14","95da2c84a74ae79d9ef6902e0e1fb5f69e454e851ebbef1779d21ac2d4a674e8","arctic","arctic","8477","","EE1","5","","","","arctic-engagement","","","","","","","","","","","","","","6","emo-engage","",""
"html-button-response","57","2177567","0.0-6.0-0.0-5.0-0.15","95da2c84a74ae79d9ef6902e0e1fb5f69e454e851ebbef1779d21ac2d4a674e8","arctic","arctic","2890","","E8","6","","","","arctic-engagement","","","","","","","","","","","","","","7","enjoyment","",""
"html-button-response","58","2180370","0.0-6.0-0.0-5.0-0.16","95da2c84a74ae79d9ef6902e0e1fb5f69e454e851ebbef1779d21ac2d4a674e8","arctic","arctic","2503","","E7","6","","","","arctic-engagement","","","","","","","","","","","","","","7","enjoyment","",""
"html-button-response","59","2184617","0.0-6.0-0.0-5.0-0.17","95da2c84a74ae79d9ef6902e0e1fb5f69e454e851ebbef1779d21ac2d4a674e8","arctic","arctic","3993","","MS3","6","","","","arctic-engagement","","","","","","","","","","","","","","7","mental-sim","",""
"html-keyboard-response","60","2191981","0.0-6.0-1.0","95da2c84a74ae79d9ef6902e0e1fb5f69e454e851ebbef1779d21ac2d4a674e8","arctic","arctic","7110","","<p>Thank you for your responses. You will now listen to the second story.</p><p>Remember, as you listen to the story you will see letters appear on the screen.</br>As quickly as possible, press <b>&lt;x&gt;</b> if the letter is lowercase and <b>&lt;m&gt;</b> if the letter is uppercase.</p><p>Press <b>&lt;x&gt;</b> or <b>&lt;m&gt;</b> to begin listening!</p>","","77","","","","","","","","","","","","","","","","","","","",""
"html-keyboard-response","61","2192484","0.0-6.0-2.0-0.0","95da2c84a74ae79d9ef6902e0e1fb5f69e454e851ebbef1779d21ac2d4a674e8","arctic","arctic","null","","<div style=""font-size:60px;"" tabindex=""0"">+</div>","","null","","","","","","","","","","","","","","","","","","","",""
"dual-task","null","null","null","","arctic","arctic","1060","","d","null","88","88","1","swim-dual-task","","d","lowercase","18000","0","6","95da2c84a74ae79d9ef6902e0e1fb5f69e454e851ebbef1779d21ac2d4a674e8","18000.299999952316","1060","88","1","swim","","","","",""
"dual-task","null","null","null","","arctic","arctic","1064.2000000476837","","N","null","77","77","1","swim-dual-task","","N","uppercase","30000","0","6","95da2c84a74ae79d9ef6902e0e1fb5f69e454e851ebbef1779d21ac2d4a674e8","29999.399999976158","1064.2000000476837","77","1","swim","","","","",""
"dual-task","null","null","null","","arctic","arctic","945.6000000238419","","b","null","88","88","1","swim-dual-task","","b","lowercase","40000","0","6","95da2c84a74ae79d9ef6902e0e1fb5f69e454e851ebbef1779d21ac2d4a674e8","39999.699999928474","945.6000000238419","88","1","swim","","","","",""
"dual-task","null","null","null","","arctic","arctic","1472.6000000238419","","G","null","77","77","1","swim-dual-task","","G","uppercase","54000","0","6","95da2c84a74ae79d9ef6902e0e1fb5f69e454e851ebbef1779d21ac2d4a674e8","54000.299999952316","1472.6000000238419","77","1","swim","","","","",""
"dual-task","null","null","null","","arctic","arctic","172.60000002384186","","F","null","88","77","0","swim-dual-task","","F","uppercase","62000","0","6","95da2c84a74ae79d9ef6902e0e1fb5f69e454e851ebbef1779d21ac2d4a674e8","62000.199999928474","172.60000002384186","88","0","swim","","","","",""
"dual-task","null","null","null","","arctic","arctic","1145.3999999761581","","e","null","88","88","1","swim-dual-task","","e","lowercase","76000","0","6","95da2c84a74ae79d9ef6902e0e1fb5f69e454e851ebbef1779d21ac2d4a674e8","76000","1145.3999999761581","88","1","swim","","","","",""
"dual-task","null","null","null","","arctic","arctic","1596.6999999284744","","h","null","88","88","1","swim-dual-task","","h","lowercase","86000","0","6","95da2c84a74ae79d9ef6902e0e1fb5f69e454e851ebbef1779d21ac2d4a674e8","85999.19999992847","1596.6999999284744","88","1","swim","","","","",""
"dual-task","null","null","null","","arctic","arctic","1005.7000000476837","","b","null","88","88","1","swim-dual-task","","b","lowercase","100000","0","6","95da2c84a74ae79d9ef6902e0e1fb5f69e454e851ebbef1779d21ac2d4a674e8","100000.39999997616","1005.7000000476837","88","1","swim","","","","",""
"dual-task","null","null","null","","arctic","arctic","1069.2000000476837","","G","null","77","77","1","swim-dual-task","","G","uppercase","106000","0","6","95da2c84a74ae79d9ef6902e0e1fb5f69e454e851ebbef1779d21ac2d4a674e8","106000.10000002384","1069.2000000476837","77","1","swim","","","","",""
"dual-task","null","null","null","","arctic","arctic","972.3000000715256","","d","null","88","88","1","swim-dual-task","","d","lowercase","114000","0","6","95da2c84a74ae79d9ef6902e0e1fb5f69e454e851ebbef1779d21ac2d4a674e8","114000.10000002384","972.3000000715256","88","1","swim","","","","",""
"dual-task","null","null","null","","arctic","arctic","1007","","F","null","77","77","1","swim-dual-task","","F","uppercase","128000","0","6","95da2c84a74ae79d9ef6902e0e1fb5f69e454e851ebbef1779d21ac2d4a674e8","128000.39999997616","1007","77","1","swim","","","","",""
"dual-task","null","null","null","","arctic","arctic","985.0999999046326","","Q","null","77","77","1","swim-dual-task","","Q","uppercase","140000","0","6","95da2c84a74ae79d9ef6902e0e1fb5f69e454e851ebbef1779d21ac2d4a674e8","139999.5","985.0999999046326","77","1","swim","","","","",""
"dual-task","null","null","null","","arctic","arctic","984","","r","null","88","88","1","swim-dual-task","","r","lowercase","152000","0","6","95da2c84a74ae79d9ef6902e0e1fb5f69e454e851ebbef1779d21ac2d4a674e8","152000.79999995232","984","88","1","swim","","","","",""
"dual-task","null","null","null","","arctic","arctic","941.7000000476837","","h","null","88","88","1","swim-dual-task","","h","lowercase","164000","0","6","95da2c84a74ae79d9ef6902e0e1fb5f69e454e851ebbef1779d21ac2d4a674e8","164001.69999992847","941.7000000476837","88","1","swim","","","","",""
"dual-task","null","null","null","","arctic","arctic","1418.1000000238419","","a","null","88","88","1","swim-dual-task","","a","lowercase","172000","0","6","95da2c84a74ae79d9ef6902e0e1fb5f69e454e851ebbef1779d21ac2d4a674e8","172002","1418.1000000238419","88","1","swim","","","","",""
"dual-task","null","null","null","","arctic","arctic","1046.7999999523163","","q","null","88","88","1","swim-dual-task","","q","lowercase","184000","0","6","95da2c84a74ae79d9ef6902e0e1fb5f69e454e851ebbef1779d21ac2d4a674e8","184000.39999997616","1046.7999999523163","88","1","swim","","","","",""
"dual-task","null","null","null","","arctic","arctic","1197.5","","a","null","88","88","1","swim-dual-task","","a","lowercase","194000","0","6","95da2c84a74ae79d9ef6902e0e1fb5f69e454e851ebbef1779d21ac2d4a674e8","194001","1197.5","88","1","swim","","","","",""
"dual-task","null","null","null","","arctic","arctic","884.6999999284744","","E","null","77","77","1","swim-dual-task","","E","uppercase","206000","0","6","95da2c84a74ae79d9ef6902e0e1fb5f69e454e851ebbef1779d21ac2d4a674e8","206001.19999992847","884.6999999284744","77","1","swim","","","","",""
"dual-task","null","null","null","","arctic","arctic","906","","t","null","88","88","1","swim-dual-task","","t","lowercase","220000","0","6","95da2c84a74ae79d9ef6902e0e1fb5f69e454e851ebbef1779d21ac2d4a674e8","220000.79999995232","906","88","1","swim","","","","",""
"dual-task","null","null","null","","arctic","arctic","1237.8999999761581","","G","null","77","77","1","swim-dual-task","","G","uppercase","232000","0","6","95da2c84a74ae79d9ef6902e0e1fb5f69e454e851ebbef1779d21ac2d4a674e8","232000.79999995232","1237.8999999761581","77","1","swim","","","","",""
"dual-task","null","null","null","","arctic","arctic","843.2000000476837","","t","null","88","88","1","swim-dual-task","","t","lowercase","242000","0","6","95da2c84a74ae79d9ef6902e0e1fb5f69e454e851ebbef1779d21ac2d4a674e8","242001.19999992847","843.2000000476837","88","1","swim","","","","",""
"dual-task","null","null","null","","arctic","arctic","857.3000000715256","","h","null","88","88","1","swim-dual-task","","h","lowercase","256000","0","6","95da2c84a74ae79d9ef6902e0e1fb5f69e454e851ebbef1779d21ac2d4a674e8","256001.69999992847","857.3000000715256","88","1","swim","","","","",""
"dual-task","null","null","null","","arctic","arctic","NA","","H","null","NA","77","0","swim-dual-task","","H","uppercase","262000","1","6","95da2c84a74ae79d9ef6902e0e1fb5f69e454e851ebbef1779d21ac2d4a674e8","262001.69999992847","NA","NA","0","swim","","","","",""
"dual-task","null","null","null","","arctic","arctic","788.6000000238419","","N","null","88","77","0","swim-dual-task","","N","uppercase","272000","0","6","95da2c84a74ae79d9ef6902e0e1fb5f69e454e851ebbef1779d21ac2d4a674e8","272001.39999997616","788.6000000238419","88","0","swim","","","","",""
"dual-task","null","null","null","","arctic","arctic","976.6999999284744","","A","null","77","77","1","swim-dual-task","","A","uppercase","280000","0","6","95da2c84a74ae79d9ef6902e0e1fb5f69e454e851ebbef1779d21ac2d4a674e8","280000.10000002384","976.6999999284744","77","1","swim","","","","",""
"dual-task","null","null","null","","arctic","arctic","1042.9000000953674","","g","null","88","88","1","swim-dual-task","","g","lowercase","288000","0","6","95da2c84a74ae79d9ef6902e0e1fb5f69e454e851ebbef1779d21ac2d4a674e8","288002.5","1042.9000000953674","88","1","swim","","","","",""
"dual-task","null","null","null","","arctic","arctic","NA","","b","null","NA","88","0","swim-dual-task","","b","lowercase","300000","1","6","95da2c84a74ae79d9ef6902e0e1fb5f69e454e851ebbef1779d21ac2d4a674e8","300000.60000002384","NA","NA","0","swim","","","","",""
"dual-task","null","null","null","","arctic","arctic","NA","","e","null","NA","88","0","swim-dual-task","","e","lowercase","308000","1","6","95da2c84a74ae79d9ef6902e0e1fb5f69e454e851ebbef1779d21ac2d4a674e8","308001.2999999523","NA","NA","0","swim","","","","",""
"dual-task","null","null","null","","arctic","arctic","1954.7000000476837","","H","null","77","77","1","swim-dual-task","","H","uppercase","314000","0","6","95da2c84a74ae79d9ef6902e0e1fb5f69e454e851ebbef1779d21ac2d4a674e8","314000.5","1954.7000000476837","77","1","swim","","","","",""
"dual-task","null","null","null","","arctic","arctic","934.2000000476837","","r","null","88","88","1","swim-dual-task","","r","lowercase","324000","0","6","95da2c84a74ae79d9ef6902e0e1fb5f69e454e851ebbef1779d21ac2d4a674e8","324001.2999999523","934.2000000476837","88","1","swim","","","","",""
"dual-task","null","null","null","","arctic","arctic","1751.3999999761581","","F","null","77","77","1","swim-dual-task","","F","uppercase","334000","0","6","95da2c84a74ae79d9ef6902e0e1fb5f69e454e851ebbef1779d21ac2d4a674e8","334001.39999997616","1751.3999999761581","77","1","swim","","","","",""
"dual-task","null","null","null","","arctic","arctic","860.1000000238419","","E","null","77","77","1","swim-dual-task","","E","uppercase","342000","0","6","95da2c84a74ae79d9ef6902e0e1fb5f69e454e851ebbef1779d21ac2d4a674e8","341999.89999997616","860.1000000238419","77","1","swim","","","","",""
"dual-task","null","null","null","","arctic","arctic","1216.1999999284744","","F","null","77","77","1","swim-dual-task","","F","uppercase","350000","0","6","95da2c84a74ae79d9ef6902e0e1fb5f69e454e851ebbef1779d21ac2d4a674e8","350001.10000002384","1216.1999999284744","77","1","swim","","","","",""
"dual-task","null","null","null","","arctic","arctic","NA","","Q","null","NA","77","0","swim-dual-task","","Q","uppercase","358000","1","6","95da2c84a74ae79d9ef6902e0e1fb5f69e454e851ebbef1779d21ac2d4a674e8","358001","NA","NA","0","swim","","","","",""
"dual-task","null","null","null","","arctic","arctic","1480.7999999523163","","A","null","77","77","1","swim-dual-task","","A","uppercase","368000","0","6","95da2c84a74ae79d9ef6902e0e1fb5f69e454e851ebbef1779d21ac2d4a674e8","368000.2999999523","1480.7999999523163","77","1","swim","","","","",""
"dual-task","null","null","null","","arctic","arctic","851.0999999046326","","B","null","77","77","1","swim-dual-task","","B","uppercase","376000","0","6","95da2c84a74ae79d9ef6902e0e1fb5f69e454e851ebbef1779d21ac2d4a674e8","376003.60000002384","851.0999999046326","77","1","swim","","","","",""
"dual-task","null","null","null","","arctic","arctic","1625.8000000715256","","f","null","88","88","1","swim-dual-task","","f","lowercase","386000","0","6","95da2c84a74ae79d9ef6902e0e1fb5f69e454e851ebbef1779d21ac2d4a674e8","386004.60000002384","1625.8000000715256","88","1","swim","","","","",""
"dual-task","null","null","null","","arctic","arctic","1983.8000000715256","","q","null","88","88","1","swim-dual-task","","q","lowercase","396000","0","6","95da2c84a74ae79d9ef6902e0e1fb5f69e454e851ebbef1779d21ac2d4a674e8","396000.7999999523","1983.8000000715256","88","1","swim","","","","",""
"dual-task","null","null","null","","arctic","arctic","1718.5999999046326","","g","null","88","88","1","swim-dual-task","","g","lowercase","402000","0","6","95da2c84a74ae79d9ef6902e0e1fb5f69e454e851ebbef1779d21ac2d4a674e8","402036.2999999523","1718.5999999046326","88","1","swim","","","","",""
"dual-task","null","null","null","","arctic","arctic","858.5","","f","null","88","88","1","swim-dual-task","","f","lowercase","414000","0","6","95da2c84a74ae79d9ef6902e0e1fb5f69e454e851ebbef1779d21ac2d4a674e8","414000.7999999523","858.5","88","1","swim","","","","",""
"dual-task","null","null","null","","arctic","arctic","847.2999999523163","","H","null","88","77","0","swim-dual-task","","H","uppercase","426000","0","6","95da2c84a74ae79d9ef6902e0e1fb5f69e454e851ebbef1779d21ac2d4a674e8","426000.89999997616","847.2999999523163","88","0","swim","","","","",""
"dual-task","null","null","null","","arctic","arctic","1377.2000000476837","","A","null","77","77","1","swim-dual-task","","A","uppercase","434000","0","6","95da2c84a74ae79d9ef6902e0e1fb5f69e454e851ebbef1779d21ac2d4a674e8","434145.39999997616","1377.2000000476837","77","1","swim","","","","",""
"dual-task","null","null","null","","arctic","arctic","NA","","E","null","NA","77","0","swim-dual-task","","E","uppercase","446000","1","6","95da2c84a74ae79d9ef6902e0e1fb5f69e454e851ebbef1779d21ac2d4a674e8","446000.1999999285","NA","NA","0","swim","","","","",""
"dual-task","null","null","null","","arctic","arctic","1392.6999999284744","","B","null","77","77","1","swim-dual-task","","B","uppercase","452000","0","6","95da2c84a74ae79d9ef6902e0e1fb5f69e454e851ebbef1779d21ac2d4a674e8","452000.7999999523","1392.6999999284744","77","1","swim","","","","",""
"dual-task","null","null","null","","arctic","arctic","830.3999999761581","","A","null","88","77","0","swim-dual-task","","A","uppercase","462000","0","6","95da2c84a74ae79d9ef6902e0e1fb5f69e454e851ebbef1779d21ac2d4a674e8","462001.10000002384","830.3999999761581","88","0","swim","","","","",""
"dual-task","null","null","null","","arctic","arctic","1434.3999999761581","","r","null","88","88","1","swim-dual-task","","r","lowercase","468000","0","6","95da2c84a74ae79d9ef6902e0e1fb5f69e454e851ebbef1779d21ac2d4a674e8","468000.6999999285","1434.3999999761581","88","1","swim","","","","",""
"dual-task","null","null","null","","arctic","arctic","901.2999999523163","","D","null","77","77","1","swim-dual-task","","D","uppercase","480000","0","6","95da2c84a74ae79d9ef6902e0e1fb5f69e454e851ebbef1779d21ac2d4a674e8","480000.2999999523","901.2999999523163","77","1","swim","","","","",""
"dual-task","null","null","null","","arctic","arctic","873.2999999523163","","a","null","88","88","1","swim-dual-task","","a","lowercase","488000","0","6","95da2c84a74ae79d9ef6902e0e1fb5f69e454e851ebbef1779d21ac2d4a674e8","488001.60000002384","873.2999999523163","88","1","swim","","","","",""
"dual-task","null","null","null","","arctic","arctic","1011.2000000476837","","B","null","77","77","1","swim-dual-task","","B","uppercase","496000","0","6","95da2c84a74ae79d9ef6902e0e1fb5f69e454e851ebbef1779d21ac2d4a674e8","496001.2999999523","1011.2000000476837","77","1","swim","","","","",""
"dual-task","null","null","null","","arctic","arctic","1192.8999999761581","","g","null","88","88","1","swim-dual-task","","g","lowercase","504000","0","6","95da2c84a74ae79d9ef6902e0e1fb5f69e454e851ebbef1779d21ac2d4a674e8","504001.1999999285","1192.8999999761581","88","1","swim","","","","",""
"dual-task","null","null","null","","arctic","arctic","939.6000000238419","","q","null","88","88","1","swim-dual-task","","q","lowercase","514000","0","6","95da2c84a74ae79d9ef6902e0e1fb5f69e454e851ebbef1779d21ac2d4a674e8","514000.89999997616","939.6000000238419","88","1","swim","","","","",""
"dual-task","null","null","null","","arctic","arctic","890.2999999523163","","q","null","88","88","1","swim-dual-task","","q","lowercase","526000","0","6","95da2c84a74ae79d9ef6902e0e1fb5f69e454e851ebbef1779d21ac2d4a674e8","526001.2999999523","890.2999999523163","88","1","swim","","","","",""
"dual-task","null","null","null","","arctic","arctic","1056.6999999284744","","t","null","88","88","1","swim-dual-task","","t","lowercase","534000","0","6","95da2c84a74ae79d9ef6902e0e1fb5f69e454e851ebbef1779d21ac2d4a674e8","534002","1056.6999999284744","88","1","swim","","","","",""
"dual-task","null","null","null","","arctic","arctic","NA","","R","null","NA","77","0","swim-dual-task","","R","uppercase","546000","1","6","95da2c84a74ae79d9ef6902e0e1fb5f69e454e851ebbef1779d21ac2d4a674e8","546001.2999999523","NA","NA","0","swim","","","","",""
"dual-task","null","null","null","","arctic","arctic","896.5","","n","null","88","88","1","swim-dual-task","","n","lowercase","558000","0","6","95da2c84a74ae79d9ef6902e0e1fb5f69e454e851ebbef1779d21ac2d4a674e8","558000.6999999285","896.5","88","1","swim","","","","",""
"dual-task","null","null","null","","arctic","arctic","1067","","D","null","77","77","1","swim-dual-task","","D","uppercase","570000","0","6","95da2c84a74ae79d9ef6902e0e1fb5f69e454e851ebbef1779d21ac2d4a674e8","570000.6000000238","1067","77","1","swim","","","","",""
"dual-task","null","null","null","","arctic","arctic","1065.5","","B","null","77","77","1","swim-dual-task","","B","uppercase","582000","0","6","95da2c84a74ae79d9ef6902e0e1fb5f69e454e851ebbef1779d21ac2d4a674e8","582001.1999999285","1065.5","77","1","swim","","","","",""
"dual-task","null","null","null","","arctic","arctic","931.2000000476837","","R","null","77","77","1","swim-dual-task","","R","uppercase","594000","0","6","95da2c84a74ae79d9ef6902e0e1fb5f69e454e851ebbef1779d21ac2d4a674e8","594001.7999999523","931.2000000476837","77","1","swim","","","","",""
"dual-task","null","null","null","","arctic","arctic","1003.9000000953674","","T","null","77","77","1","swim-dual-task","","T","uppercase","602000","0","6","95da2c84a74ae79d9ef6902e0e1fb5f69e454e851ebbef1779d21ac2d4a674e8","602000.6999999285","1003.9000000953674","77","1","swim","","","","",""
"dual-task","null","null","null","","arctic","arctic","896.3000000715256","","f","null","88","88","1","swim-dual-task","","f","lowercase","616000","0","6","95da2c84a74ae79d9ef6902e0e1fb5f69e454e851ebbef1779d21ac2d4a674e8","616003","896.3000000715256","88","1","swim","","","","",""
"dual-task","null","null","null","","arctic","arctic","1818.5","","D","null","77","77","1","swim-dual-task","","D","uppercase","622000","0","6","95da2c84a74ae79d9ef6902e0e1fb5f69e454e851ebbef1779d21ac2d4a674e8","622006.8999999762","1818.5","77","1","swim","","","","",""
"dual-task","null","null","null","","arctic","arctic","1589.1000000238419","","T","null","77","77","1","swim-dual-task","","T","uppercase","636000","0","6","95da2c84a74ae79d9ef6902e0e1fb5f69e454e851ebbef1779d21ac2d4a674e8","636000.6000000238","1589.1000000238419","77","1","swim","","","","",""
"dual-task","null","null","null","","arctic","arctic","NA","","e","null","NA","88","0","swim-dual-task","","e","lowercase","644000","1","6","95da2c84a74ae79d9ef6902e0e1fb5f69e454e851ebbef1779d21ac2d4a674e8","644001.6999999285","NA","NA","0","swim","","","","",""
"dual-task","null","null","null","","arctic","arctic","1471.3999999761581","","T","null","77","77","1","swim-dual-task","","T","uppercase","654000","0","6","95da2c84a74ae79d9ef6902e0e1fb5f69e454e851ebbef1779d21ac2d4a674e8","654001.5","1471.3999999761581","77","1","swim","","","","",""
"dual-task","null","null","null","","arctic","arctic","1082.6000000238419","","N","null","77","77","1","swim-dual-task","","N","uppercase","668000","0","6","95da2c84a74ae79d9ef6902e0e1fb5f69e454e851ebbef1779d21ac2d4a674e8","668000.2999999523","1082.6000000238419","77","1","swim","","","","",""
"dual-task","null","null","null","","arctic","arctic","1022.5","","d","null","88","88","1","swim-dual-task","","d","lowercase","676000","0","6","95da2c84a74ae79d9ef6902e0e1fb5f69e454e851ebbef1779d21ac2d4a674e8","676013.5","1022.5","88","1","swim","","","","",""
"dual-task","null","null","null","","arctic","arctic","1001.6000000238419","","n","null","88","88","1","swim-dual-task","","n","lowercase","686000","0","6","95da2c84a74ae79d9ef6902e0e1fb5f69e454e851ebbef1779d21ac2d4a674e8","686001","1001.6000000238419","88","1","swim","","","","",""
"dual-task","null","null","null","","arctic","arctic","868.7999999523163","","r","null","88","88","1","swim-dual-task","","r","lowercase","698000","0","6","95da2c84a74ae79d9ef6902e0e1fb5f69e454e851ebbef1779d21ac2d4a674e8","698001.5","868.7999999523163","88","1","swim","","","","",""
"dual-task","null","null","null","","arctic","arctic","1013.2000000476837","","n","null","88","88","1","swim-dual-task","","n","lowercase","708000","0","6","95da2c84a74ae79d9ef6902e0e1fb5f69e454e851ebbef1779d21ac2d4a674e8","708002","1013.2000000476837","88","1","swim","","","","",""
"dual-task","null","null","null","","arctic","arctic","1020.8999999761581","","H","null","77","77","1","swim-dual-task","","H","uppercase","720000","0","6","95da2c84a74ae79d9ef6902e0e1fb5f69e454e851ebbef1779d21ac2d4a674e8","720000.6999999285","1020.8999999761581","77","1","swim","","","","",""
"dual-task","null","null","null","","arctic","arctic","1055.8999999761581","","N","null","77","77","1","swim-dual-task","","N","uppercase","728000","0","6","95da2c84a74ae79d9ef6902e0e1fb5f69e454e851ebbef1779d21ac2d4a674e8","728001.5","1055.8999999761581","77","1","swim","","","","",""
"dual-task","null","null","null","","arctic","arctic","NA","","n","null","NA","88","0","swim-dual-task","","n","lowercase","740000","1","6","95da2c84a74ae79d9ef6902e0e1fb5f69e454e851ebbef1779d21ac2d4a674e8","740002.6000000238","NA","NA","0","swim","","","","",""
"dual-task","null","null","null","","arctic","arctic","988.7000000476837","","b","null","88","88","1","swim-dual-task","","b","lowercase","754000","0","6","95da2c84a74ae79d9ef6902e0e1fb5f69e454e851ebbef1779d21ac2d4a674e8","754001.6999999285","988.7000000476837","88","1","swim","","","","",""
"dual-task","null","null","null","","arctic","arctic","967.3999999761581","","d","null","88","88","1","swim-dual-task","","d","lowercase","762000","0","6","95da2c84a74ae79d9ef6902e0e1fb5f69e454e851ebbef1779d21ac2d4a674e8","762001.1999999285","967.3999999761581","88","1","swim","","","","",""
"dual-task","null","null","null","","arctic","arctic","NA","","a","null","NA","88","0","swim-dual-task","","a","lowercase","770000","1","6","95da2c84a74ae79d9ef6902e0e1fb5f69e454e851ebbef1779d21ac2d4a674e8","770002.6000000238","NA","NA","0","swim","","","","",""
"dual-task","null","null","null","","arctic","arctic","1356.3999999761581","","R","null","88","77","0","swim-dual-task","","R","uppercase","778000","0","6","95da2c84a74ae79d9ef6902e0e1fb5f69e454e851ebbef1779d21ac2d4a674e8","778000.7999999523","1356.3999999761581","88","0","swim","","","","",""
"dual-task","null","null","null","","arctic","arctic","1462.1999999284744","","D","null","77","77","1","swim-dual-task","","D","uppercase","786000","0","6","95da2c84a74ae79d9ef6902e0e1fb5f69e454e851ebbef1779d21ac2d4a674e8","786001.1999999285","1462.1999999284744","77","1","swim","","","","",""
"dual-task","null","null","null","","arctic","arctic","931.1999999284744","","R","null","77","77","1","swim-dual-task","","R","uppercase","800000","0","6","95da2c84a74ae79d9ef6902e0e1fb5f69e454e851ebbef1779d21ac2d4a674e8","800000.8999999762","931.1999999284744","77","1","swim","","","","",""
"audio-keyboard-response","62","3003316","0.0-6.0-2.0-1.0","95da2c84a74ae79d9ef6902e0e1fb5f69e454e851ebbef1779d21ac2d4a674e8","arctic","arctic","null","","audio/story_swim.mp3","","null","","","","","","","","","","","","","","","","","","","",""
"html-button-response","63","3276809","0.0-6.0-2.0-2.0","95da2c84a74ae79d9ef6902e0e1fb5f69e454e851ebbef1779d21ac2d4a674e8","arctic","arctic","273490","","<p>This concludes the story. Thank you for listening.</p><p>You will now answer some questions about the content of the story.</p>","0","","","","","","","","","","","","","","","","","","","","",""
"survey-multi-choice","64","3283811","0.0-6.0-2.0-3.0-0.0","95da2c84a74ae79d9ef6902e0e1fb5f69e454e851ebbef1779d21ac2d4a674e8","arctic","arctic","6995","","<b>How many times did the astronaut candidates have to complete the final exercise to pass?</b>","","","","0","swim-comprehension","","","","","","","","","","","","","{""Q0"":""Ten""}","","","",""
"survey-multi-choice","65","3295665","0.0-6.0-2.0-3.0-0.1","95da2c84a74ae79d9ef6902e0e1fb5f69e454e851ebbef1779d21ac2d4a674e8","arctic","arctic","11595","","<b>What gave the narrator his greatest feeling of accomplishment?</b>","","","","1","swim-comprehension","","","","","","","","","","","","","{""Q0"":""Passing the water survival course""}","","","",""
"survey-multi-choice","66","3354044","0.0-6.0-2.0-3.0-0.2","95da2c84a74ae79d9ef6902e0e1fb5f69e454e851ebbef1779d21ac2d4a674e8","arctic","arctic","58117","","<b>How did the narrator train for his swim test?</b>","","","","0","swim-comprehension","","","","","","","","","","","","","{""Q0"":""Swam at the lake every day""}","","","",""
"survey-multi-choice","67","3369964","0.0-6.0-2.0-3.0-0.3","95da2c84a74ae79d9ef6902e0e1fb5f69e454e851ebbef1779d21ac2d4a674e8","arctic","arctic","15658","","<b>How often does the narrator swim, now that he is a good swimmer?</b>","","","","0","swim-comprehension","","","","","","","","","","","","","{""Q0"":""Every weekend with his kids""}","","","",""
"survey-multi-choice","68","3387297","0.0-6.0-2.0-3.0-0.4","95da2c84a74ae79d9ef6902e0e1fb5f69e454e851ebbef1779d21ac2d4a674e8","arctic","arctic","17070","","<b>How many astronaut candidates reported for duty at the Johnson Space Center?</b>","","","","0","swim-comprehension","","","","","","","","","","","","","{""Q0"":""One hundred""}","","","",""
"survey-multi-choice","69","3393906","0.0-6.0-2.0-3.0-0.5","95da2c84a74ae79d9ef6902e0e1fb5f69e454e851ebbef1779d21ac2d4a674e8","arctic","arctic","6339","","<b>How many astronaut candidates passed the first swim test?</b>","","","","1","swim-comprehension","","","","","","","","","","","","","{""Q0"":""All of them""}","","","",""
"survey-multi-choice","70","3408457","0.0-6.0-2.0-3.0-0.6","95da2c84a74ae79d9ef6902e0e1fb5f69e454e851ebbef1779d21ac2d4a674e8","arctic","arctic","14286","","<b>What was the final step of the first swim test in the pool?</b>","","","","0","swim-comprehension","","","","","","","","","","","","","{""Q0"":""Hold breath for two minutes""}","","","",""
"survey-multi-choice","71","3413616","0.0-6.0-2.0-3.0-0.7","95da2c84a74ae79d9ef6902e0e1fb5f69e454e851ebbef1779d21ac2d4a674e8","arctic","arctic","4899","","<b>What is the narrator afraid of, aside from the water?</b>","","","","1","swim-comprehension","","","","","","","","","","","","","{""Q0"":""Heights""}","","","",""
"survey-multi-choice","72","3426656","0.0-6.0-2.0-3.0-0.8","95da2c84a74ae79d9ef6902e0e1fb5f69e454e851ebbef1779d21ac2d4a674e8","arctic","arctic","12705","","<b>What were the astronaut candidates trained to do at the naval air station?</b>","","","","1","swim-comprehension","","","","","","","","","","","","","{""Q0"":""Eject out of aircraft and survive in water long enough to be rescued""}","","","",""
"survey-multi-choice","73","3436235","0.0-6.0-2.0-3.0-0.9","95da2c84a74ae79d9ef6902e0e1fb5f69e454e851ebbef1779d21ac2d4a674e8","arctic","arctic","9316","","<b>Where is the home of naval aviation?</b>","","","","0","swim-comprehension","","","","","","","","","","","","","{""Q0"":""Dallas""}","","","",""
"html-button-response","74","3441070","0.0-6.0-2.0-4.0","95da2c84a74ae79d9ef6902e0e1fb5f69e454e851ebbef1779d21ac2d4a674e8","arctic","arctic","4581","","<p>Thank you for your responses.</p><p>You will now answer some questions about your impressions of the story.</p>","0","","","","","","","","","","","","","","","","","","","","",""
"html-button-response","75","3442462","0.0-6.0-2.0-5.0-0.0","95da2c84a74ae79d9ef6902e0e1fb5f69e454e851ebbef1779d21ac2d4a674e8","arctic","arctic","1387","","A5","5","","","","swim-engagement","","","","","","","","","","","","","","6","absorption","",""
"html-button-response","76","3444015","0.0-6.0-2.0-5.0-0.1","95da2c84a74ae79d9ef6902e0e1fb5f69e454e851ebbef1779d21ac2d4a674e8","arctic","arctic","1299","","MS1","4","","","","swim-engagement","","","","","","","","","","","","","","5","mental-sim","",""
"html-button-response","77","3445479","0.0-6.0-2.0-5.0-0.2","95da2c84a74ae79d9ef6902e0e1fb5f69e454e851ebbef1779d21ac2d4a674e8","arctic","arctic","1211","","A2","5","","","","swim-engagement","","","","","","","","","","","","","","6","absorption","",""
"html-button-response","78","3447241","0.0-6.0-2.0-5.0-0.3","95da2c84a74ae79d9ef6902e0e1fb5f69e454e851ebbef1779d21ac2d4a674e8","arctic","arctic","1507","","A1","6","","","","swim-engagement","","","","","","","","","","","","","","7","absorption","",""
"html-button-response","79","3448504","0.0-6.0-2.0-5.0-0.4","95da2c84a74ae79d9ef6902e0e1fb5f69e454e851ebbef1779d21ac2d4a674e8","arctic","arctic","1007","","E8","6","","","","swim-engagement","","","","","","","","","","","","","","7","enjoyment","",""
"html-button-response","80","3449273","0.0-6.0-2.0-5.0-0.5","95da2c84a74ae79d9ef6902e0e1fb5f69e454e851ebbef1779d21ac2d4a674e8","arctic","arctic","512","","MS3","6","","","","swim-engagement","","","","","","","","","","","","","","7","mental-sim","",""
"html-button-response","81","3449858","0.0-6.0-2.0-5.0-0.6","95da2c84a74ae79d9ef6902e0e1fb5f69e454e851ebbef1779d21ac2d4a674e8","arctic","arctic","326","","A3","6","","","","swim-engagement","","","","","","","","","","","","","","7","absorption","",""
"html-button-response","82","3450386","0.0-6.0-2.0-5.0-0.7","95da2c84a74ae79d9ef6902e0e1fb5f69e454e851ebbef1779d21ac2d4a674e8","arctic","arctic","262","","EE3","6","","","","swim-engagement","","","","","","","","","","","","","","7","emo-engage","",""
"html-button-response","83","3450825","0.0-6.0-2.0-5.0-0.8","95da2c84a74ae79d9ef6902e0e1fb5f69e454e851ebbef1779d21ac2d4a674e8","arctic","arctic","184","","EE4","6","","","","swim-engagement","","","","","","","","","","","","","","7","emo-engage","",""
"html-button-response","84","3451186","0.0-6.0-2.0-5.0-0.9","95da2c84a74ae79d9ef6902e0e1fb5f69e454e851ebbef1779d21ac2d4a674e8","arctic","arctic","105","","E1","6","","","","swim-engagement","","","","","","","","","","","","","","7","enjoyment","",""
"html-button-response","85","3451545","0.0-6.0-2.0-5.0-0.10","95da2c84a74ae79d9ef6902e0e1fb5f69e454e851ebbef1779d21ac2d4a674e8","arctic","arctic","104","","E10","6","","","","swim-engagement","","","","","","","","","","","","","","7","enjoyment","",""
"html-button-response","86","3452088","0.0-6.0-2.0-5.0-0.11","95da2c84a74ae79d9ef6902e0e1fb5f69e454e851ebbef1779d21ac2d4a674e8","arctic","arctic","289","","EE5","6","","","","swim-engagement","","","","","","","","","","","","","","7","emo-engage","",""
"html-button-response","87","3453521","0.0-6.0-2.0-5.0-0.12","95da2c84a74ae79d9ef6902e0e1fb5f69e454e851ebbef1779d21ac2d4a674e8","arctic","arctic","1177","","E6","6","","","","swim-engagement","","","","","","","","","","","","","","7","enjoyment","",""
"html-button-response","88","3454529","0.0-6.0-2.0-5.0-0.13","95da2c84a74ae79d9ef6902e0e1fb5f69e454e851ebbef1779d21ac2d4a674e8","arctic","arctic","752","","A4","6","","","","swim-engagement","","","","","","","","","","","","","","7","absorption","",""
"html-button-response","89","3455538","0.0-6.0-2.0-5.0-0.14","95da2c84a74ae79d9ef6902e0e1fb5f69e454e851ebbef1779d21ac2d4a674e8","arctic","arctic","753","","MS2","6","","","","swim-engagement","","","","","","","","","","","","","","7","mental-sim","",""
"html-button-response","90","3458821","0.0-6.0-2.0-5.0-0.15","95da2c84a74ae79d9ef6902e0e1fb5f69e454e851ebbef1779d21ac2d4a674e8","arctic","arctic","3031","","EE2","4","","","","swim-engagement","","","","","","","","","","","","","","5","emo-engage","",""
"html-button-response","91","3459892","0.0-6.0-2.0-5.0-0.16","95da2c84a74ae79d9ef6902e0e1fb5f69e454e851ebbef1779d21ac2d4a674e8","arctic","arctic","815","","EE1","6","","","","swim-engagement","","","","","","","","","","","","","","7","emo-engage","",""
"html-button-response","92","3461282","0.0-6.0-2.0-5.0-0.17","95da2c84a74ae79d9ef6902e0e1fb5f69e454e851ebbef1779d21ac2d4a674e8","arctic","arctic","1136","","E7","4","","","","swim-engagement","","","","","","","","","","","","","","5","enjoyment","",""
"html-button-response","93","3463521","0.0-8.0","95da2c84a74ae79d9ef6902e0e1fb5f69e454e851ebbef1779d21ac2d4a674e8","arctic","arctic","1986","","<p>Thank you for your responses.</p><p>You will now answer some demographic, hearing, and general health questions.</p>","0","","","","","","","","","","","","","","","","","","","","",""
"survey-multi-choice","94","3467515","0.0-9.0-0.0","95da2c84a74ae79d9ef6902e0e1fb5f69e454e851ebbef1779d21ac2d4a674e8","arctic","arctic","3986","","","","","","","survey","","","","","","","","","","","","","{""Q0"":""Chrome""}","","","browser",""
"survey-text","95","3471022","0.0-9.0-1.0","95da2c84a74ae79d9ef6902e0e1fb5f69e454e851ebbef1779d21ac2d4a674e8","arctic","arctic","3243.7999999523163","","","","","","","survey","","","","","","","","","","","","","{""AGE"":""25""}","","","age","25"
"survey-multi-choice","96","3474275","0.0-9.0-2.0","95da2c84a74ae79d9ef6902e0e1fb5f69e454e851ebbef1779d21ac2d4a674e8","arctic","arctic","2988","","","","","","","survey","","","","","","","","","","","","","{""Q0"":""Male""}","","","gender","Male"
"survey-multi-choice","97","3478200","0.0-9.0-4.0","95da2c84a74ae79d9ef6902e0e1fb5f69e454e851ebbef1779d21ac2d4a674e8","arctic","arctic","3665","","","","","","","survey","","","","","","","","","","","","","{""Q0"":""Right""}","","","handedness","Right"
"survey-multi-choice","98","3481209","0.0-9.0-5.0","95da2c84a74ae79d9ef6902e0e1fb5f69e454e851ebbef1779d21ac2d4a674e8","arctic","arctic","2750","","","","","","","survey","","","","","","","","","","","","","{""Q0"":""Bachelor's Degree""}","","","education","Bachelor's Degree"
"survey-text","99","3487007","0.0-10.0-0.0","95da2c84a74ae79d9ef6902e0e1fb5f69e454e851ebbef1779d21ac2d4a674e8","arctic","arctic","5534.300000071526","","","","","","","survey","","","","","","","","","","","","","{""L1"":""English""}","","","first-language","English"
"survey-text","100","3552521","0.0-10.0-1.0","95da2c84a74ae79d9ef6902e0e1fb5f69e454e851ebbef1779d21ac2d4a674e8","arctic","arctic","65245.199999928474","","","","","","","survey","","","","","","","","","","","","","{""L2name"":"""",""L2fluency"":"""",""L3name"":"""",""L3fluency"":"""",""L4name"":"""",""L4fluency"":""""}","","","additional-languages","{""L2name"":"""",""L2fluency"":"""",""L3name"":"""",""L3fluency"":"""",""L4name"":"""",""L4fluency"":""""}"
"survey-multi-choice","101","3561431","0.0-10.0-2.0","95da2c84a74ae79d9ef6902e0e1fb5f69e454e851ebbef1779d21ac2d4a674e8","arctic","arctic","8650","","","","","","","survey","","","","","","","","","","","","","{""Q0"":""No""}","","","hearing-aid","No"
"survey-multi-choice","102","3572505","0.0-10.0-3.0","95da2c84a74ae79d9ef6902e0e1fb5f69e454e851ebbef1779d21ac2d4a674e8","arctic","arctic","10813","","","","","","","survey","","","","","","","","","","","","","{""Q0"":""Never""}","","","ringing-ears","Never"
"survey-multi-choice","103","3576516","0.0-10.0-5.0","95da2c84a74ae79d9ef6902e0e1fb5f69e454e851ebbef1779d21ac2d4a674e8","arctic","arctic","3753","","","","","","","survey","","","","","","","","","","","","","{""Q0"":""No""}","","","neuro-disease","No"
"survey-multi-choice","104","3581078","0.0-10.0-7.0","95da2c84a74ae79d9ef6902e0e1fb5f69e454e851ebbef1779d21ac2d4a674e8","arctic","arctic","4305","","","","","","","survey","","","","","","","","","","","","","{""Q0"":""No""}","","","take-meds","No"
"survey-text","105","3591084","0.0-10.0-9.0","95da2c84a74ae79d9ef6902e0e1fb5f69e454e851ebbef1779d21ac2d4a674e8","arctic","arctic","9740.799999952316","","","","","","","survey","","","","","","","","","","","","","{""HC"":""None""}","","","health-concerns","None"
"html-button-response","106","3602010","0.0-11.0-0.0","95da2c84a74ae79d9ef6902e0e1fb5f69e454e851ebbef1779d21ac2d4a674e8","arctic","arctic","10672","","<p>How would you describe your musical skills/experiences?</p>","0","","","","survey","","","","","","","","","","","","","","","","music-skill","1"
"survey-multi-choice","107","3605787","0.0-11.0-1.0","95da2c84a74ae79d9ef6902e0e1fb5f69e454e851ebbef1779d21ac2d4a674e8","arctic","arctic","3521","","","","","","","survey","","","","","","","","","","","","","{""Q0"":""No""}","","","music-instrument","No"
"html-button-response","108","3610822","0.0-12.0-0.0","95da2c84a74ae79d9ef6902e0e1fb5f69e454e851ebbef1779d21ac2d4a674e8","arctic","arctic","4780","","<p>How would you describe your general hearing abilities?</p>","5","","","","survey","","","","","","","","","","","","","","","","ssq-01","6"
"html-button-response","109","3613920","0.0-12.0-1.0","95da2c84a74ae79d9ef6902e0e1fb5f69e454e851ebbef1779d21ac2d4a674e8","arctic","arctic","2844","","<p>When you talk with someone at a place that strongly reverberates/echoes (e.g., in a church or train station),</br>can you understand what the person says?</p>","10","","","","survey","","","","","","","","","","","","","","","","ssq-02","10"
"html-button-response","110","3619056","0.0-12.0-2.0","95da2c84a74ae79d9ef6902e0e1fb5f69e454e851ebbef1779d21ac2d4a674e8","arctic","arctic","4880","","<p>When you are with a group (~5 people) in a lively restaurant, can you follow the group's conversation?</p>","10","","","","survey","","","","","","","","","","","","","","","","ssq-03","10"
"html-button-response","111","3627436","0.0-12.0-3.0","95da2c84a74ae79d9ef6902e0e1fb5f69e454e851ebbef1779d21ac2d4a674e8","arctic","arctic","8124","","<p>Based on the sound of a bus or truck, can you tell whether it is moving towards or away from you?</p>","10","","","","survey","","","","","","","","","","","","","","","","ssq-04","10"
"html-button-response","112","3632193","0.0-12.0-4.0","95da2c84a74ae79d9ef6902e0e1fb5f69e454e851ebbef1779d21ac2d4a674e8","arctic","arctic","4500","","<p>When you are in an unknown environment, can you tell from which direction a brief sound originates?</p>","10","","","","survey","","","","","","","","","","","","","","","","ssq-05","10"
"html-button-response","113","3635357","0.0-12.0-5.0","95da2c84a74ae79d9ef6902e0e1fb5f69e454e851ebbef1779d21ac2d4a674e8","arctic","arctic","2909","","<p>Are you able to ignore distracting sounds when you concentrate on a specific aspect of your acoustic surrounding?</p>","10","","","","survey","","","","","","","","","","","","","","","","ssq-06","10"
"fullscreen","114","3636615","0.0-13.0","95da2c84a74ae79d9ef6902e0e1fb5f69e454e851ebbef1779d21ac2d4a674e8","arctic","arctic","","","","","","","","","true","","","","","","","","","","","","","","","",""
