"trial_type","trial_index","time_elapsed","internal_node_id","ParticipantID","firstStory","scramStory","rt","url","stimulus","button_pressed","key_press","correctRESP","correct","designation","success","letterStim","letterType","ONSET","TIMEOUT","CONDITION","Participant","ONSET_ACTUAL","RT","RESP","ACC","STORY","responses","response","type","surveyQuestion","QRESP"
"pavlovia","0","2","0.0-0.0","01d92d17ed0ea9d99d2bac6381808c7ee69318be66dd3daf29c6bf4568786f8d","swim","arctic","","","","","","","","","","","","","","","","","","","","","","","","",""
"external-html","1","7143","0.0-1.0","01d92d17ed0ea9d99d2bac6381808c7ee69318be66dd3daf29c6bf4568786f8d","swim","arctic","6994","consent/consent_updated.html","","","","","","","","","","","","","","","","","","","","","","",""
"html-button-response","2","11373","0.0-2.0-0.0","01d92d17ed0ea9d99d2bac6381808c7ee69318be66dd3daf29c6bf4568786f8d","swim","arctic","4228","","<p>Before we begin the main task, you will complete a short volume calibration and headphone check.</p><p>Please make sure you are in a quiet listening environment, that you are wearing headphones, and that your computer's volume is turned on.<p></p>","0","","","","","","","","","","","","","","","","","","","","",""
"html-button-response","3","15630","0.0-2.0-1.0","01d92d17ed0ea9d99d2bac6381808c7ee69318be66dd3daf29c6bf4568786f8d","swim","arctic","3993","","<p>The volume calibration will be first.</p><p>You will hear a thirty-second noise. Please adjust your computer's volume so that this noise is being presented at a comfortable level.<p></p>","0","","","","","","","","","","","","","","","","","","","","",""
"audio-button-response","4","45885","0.0-2.0-2.0","01d92d17ed0ea9d99d2bac6381808c7ee69318be66dd3daf29c6bf4568786f8d","swim","arctic","null","","audio/volumetest.mp3","null","","","","","","","","","","","","","","","","","","","","",""
"html-keyboard-response","5","53524","0.0-3.0-0.0","01d92d17ed0ea9d99d2bac6381808c7ee69318be66dd3daf29c6bf4568786f8d","swim","arctic","7639","","<p>You will now complete a short headphone check.</p><p>On each trial, you will hear three tones. One of these tones will be quieter than the others. Your task is to identify whether the quiet tone occurred first, second, or third.</p><p>There are six trials in total.<p></p><p></p>(Press SPACEBAR to begin)","","32","","","","","","","","","","","","","","","","","","","",""
"html-keyboard-response","6","54290","0.0-3.0-1.0-0.0","01d92d17ed0ea9d99d2bac6381808c7ee69318be66dd3daf29c6bf4568786f8d","swim","arctic","null","","<div style=""font-size:60px;"">+</div>","","null","","","","","","","","","","","","","","","","","","","",""
"audio-button-response","7","58457","0.0-3.0-1.0-1.0","01d92d17ed0ea9d99d2bac6381808c7ee69318be66dd3daf29c6bf4568786f8d","swim","arctic","4166","","audio/t2_2.mp3","1","","1","1","headphone-test","","","","","","","","","","","","","","","","",""
"html-keyboard-response","8","58969","0.0-3.0-1.0-2.0","01d92d17ed0ea9d99d2bac6381808c7ee69318be66dd3daf29c6bf4568786f8d","swim","arctic","null","","<p>Correct</p>","","null","","","","","","","","","","","","","","","","","","","",""
"html-keyboard-response","9","59475","0.0-3.0-1.0-0.1","01d92d17ed0ea9d99d2bac6381808c7ee69318be66dd3daf29c6bf4568786f8d","swim","arctic","null","","<div style=""font-size:60px;"">+</div>","","null","","","","","","","","","","","","","","","","","","","",""
"audio-button-response","10","63586","0.0-3.0-1.0-1.1","01d92d17ed0ea9d99d2bac6381808c7ee69318be66dd3daf29c6bf4568786f8d","swim","arctic","4110","","audio/t1_2.mp3","0","","0","1","headphone-test","","","","","","","","","","","","","","","","",""
"html-keyboard-response","11","64090","0.0-3.0-1.0-2.1","01d92d17ed0ea9d99d2bac6381808c7ee69318be66dd3daf29c6bf4568786f8d","swim","arctic","null","","<p>Correct</p>","","null","","","","","","","","","","","","","","","","","","","",""
"html-keyboard-response","12","64599","0.0-3.0-1.0-0.2","01d92d17ed0ea9d99d2bac6381808c7ee69318be66dd3daf29c6bf4568786f8d","swim","arctic","null","","<div style=""font-size:60px;"">+</div>","","null","","","","","","","","","","","","","","","","","","","",""
"audio-button-response","13","69534","0.0-3.0-1.0-1.2","01d92d17ed0ea9d99d2bac6381808c7ee69318be66dd3daf29c6bf4568786f8d","swim","arctic","4934","","audio/t2_1.mp3","0","","1","0","headphone-test","","","","","","","","","","","","","","","","",""
"html-keyboard-response","14","70036","0.0-3.0-1.0-2.2","01d92d17ed0ea9d99d2bac6381808c7ee69318be66dd3daf29c6bf4568786f8d","swim","arctic","null","","<p>Incorrect</p>","","null","","","","","","","","","","","","","","","","","","","",""
"html-keyboard-response","15","70540","0.0-3.0-1.0-0.3","01d92d17ed0ea9d99d2bac6381808c7ee69318be66dd3daf29c6bf4568786f8d","swim","arctic","null","","<div style=""font-size:60px;"">+</div>","","null","","","","","","","","","","","","","","","","","","","",""
"audio-button-response","16","75168","0.0-3.0-1.0-1.3","01d92d17ed0ea9d99d2bac6381808c7ee69318be66dd3daf29c6bf4568786f8d","swim","arctic","4628","","audio/t1_1.mp3","0","","0","1","headphone-test","","","","","","","","","","","","","","","","",""
"html-keyboard-response","17","75669","0.0-3.0-1.0-2.3","01d92d17ed0ea9d99d2bac6381808c7ee69318be66dd3daf29c6bf4568786f8d","swim","arctic","null","","<p>Correct</p>","","null","","","","","","","","","","","","","","","","","","","",""
"html-keyboard-response","18","76172","0.0-3.0-1.0-0.4","01d92d17ed0ea9d99d2bac6381808c7ee69318be66dd3daf29c6bf4568786f8d","swim","arctic","null","","<div style=""font-size:60px;"">+</div>","","null","","","","","","","","","","","","","","","","","","","",""
"audio-button-response","19","80410","0.0-3.0-1.0-1.4","01d92d17ed0ea9d99d2bac6381808c7ee69318be66dd3daf29c6bf4568786f8d","swim","arctic","4237","","audio/t3_2.mp3","2","","2","1","headphone-test","","","","","","","","","","","","","","","","",""
"html-keyboard-response","20","80912","0.0-3.0-1.0-2.4","01d92d17ed0ea9d99d2bac6381808c7ee69318be66dd3daf29c6bf4568786f8d","swim","arctic","null","","<p>Correct</p>","","null","","","","","","","","","","","","","","","","","","","",""
"html-keyboard-response","21","81418","0.0-3.0-1.0-0.5","01d92d17ed0ea9d99d2bac6381808c7ee69318be66dd3daf29c6bf4568786f8d","swim","arctic","null","","<div style=""font-size:60px;"">+</div>","","null","","","","","","","","","","","","","","","","","","","",""
"audio-button-response","22","85700","0.0-3.0-1.0-1.5","01d92d17ed0ea9d99d2bac6381808c7ee69318be66dd3daf29c6bf4568786f8d","swim","arctic","4281","","audio/t3_1.mp3","2","","2","1","headphone-test","","","","","","","","","","","","","","","","",""
"html-keyboard-response","23","86201","0.0-3.0-1.0-2.5","01d92d17ed0ea9d99d2bac6381808c7ee69318be66dd3daf29c6bf4568786f8d","swim","arctic","null","","<p>Correct</p>","","null","","","","","","","","","","","","","","","","","","","",""
"fullscreen","24","150079","0.0-4.0","01d92d17ed0ea9d99d2bac6381808c7ee69318be66dd3daf29c6bf4568786f8d","swim","arctic","","","","","","","","","true","","","","","","","","","","","","","","","",""
"html-button-response","25","223407","0.0-5.0-0.0","01d92d17ed0ea9d99d2bac6381808c7ee69318be66dd3daf29c6bf4568786f8d","swim","arctic","73328","","<p>There are two blocks to this experiment.</p><p>In each block, you will hear a ~13.5 minute story. One of the stories will be scrambled. Please listen carefully to both stories and understand them as best you can.</p><p>After each story, you will be asked some questions to assess your comprehension.</p>","0","","","","","","","","","","","","","","","","","","","","",""
"html-button-response","26","245725","0.0-5.0-1.0","01d92d17ed0ea9d99d2bac6381808c7ee69318be66dd3daf29c6bf4568786f8d","swim","arctic","22318","","<p>During each story, there will be an additional task.</p><p>A letter will occasionally appear on the screen.</br>Your job is to - as quickly as you can - decide whether the letter is lowercase or uppercase and press one of two keys on the keyboard:</p><p>If the letter is <b>lowercase</b>, press key &lt;<b>x</b>&gt;.</p><p>If the letter is <b>uppercase</b>, press key &lt;<b>m</b>&gt;.</p>","0","","","","","","","","","","","","","","","","","","","","",""
"html-keyboard-response","27","694345","0.0-5.0-2.0","01d92d17ed0ea9d99d2bac6381808c7ee69318be66dd3daf29c6bf4568786f8d","swim","arctic","448619","","<p>Because we want your responses to be as quick as possible, please keep your index fingers over the keys while listening.</p><p>Each block lasts about 20 minutes.</p><p><b>Press &lt;x&gt; or &lt;m&gt; to start the first block!</b></p>","","77","","","","","","","","","","","","","","","","","","","",""
"html-keyboard-response","28","694846","0.0-7.0-0.0-0.0","01d92d17ed0ea9d99d2bac6381808c7ee69318be66dd3daf29c6bf4568786f8d","swim","arctic","null","","<div style=""font-size:60px;"" tabindex=""0"">+</div>","","null","","","","","","","","","","","","","","","","","","","",""
"dual-task","null","null","null","","swim","arctic","NA","","g","null","NA","88","0","swim-dual-task","","g","lowercase","16000","1","5","01d92d17ed0ea9d99d2bac6381808c7ee69318be66dd3daf29c6bf4568786f8d","16007.100000023842","NA","NA","0","swim","","","","",""
"dual-task","null","null","null","","swim","arctic","1208.5999999046326","","B","null","77","77","1","swim-dual-task","","B","uppercase","26000","0","5","01d92d17ed0ea9d99d2bac6381808c7ee69318be66dd3daf29c6bf4568786f8d","26000.700000047684","1208.5999999046326","77","1","swim","","","","",""
"dual-task","null","null","null","","swim","arctic","1258.3999999761581","","Q","null","77","77","1","swim-dual-task","","Q","uppercase","38000","0","5","01d92d17ed0ea9d99d2bac6381808c7ee69318be66dd3daf29c6bf4568786f8d","38015.39999997616","1258.3999999761581","77","1","swim","","","","",""
"dual-task","null","null","null","","swim","arctic","1051.7999999523163","","G","null","77","77","1","swim-dual-task","","G","uppercase","48000","0","5","01d92d17ed0ea9d99d2bac6381808c7ee69318be66dd3daf29c6bf4568786f8d","48005.60000002384","1051.7999999523163","77","1","swim","","","","",""
"dual-task","null","null","null","","swim","arctic","1161.6000000238419","","E","null","77","77","1","swim-dual-task","","E","uppercase","54000","0","5","01d92d17ed0ea9d99d2bac6381808c7ee69318be66dd3daf29c6bf4568786f8d","54008.10000002384","1161.6000000238419","77","1","swim","","","","",""
"dual-task","null","null","null","","swim","arctic","537.9000000953674","","E","null","77","77","1","swim-dual-task","","E","uppercase","64000","0","5","01d92d17ed0ea9d99d2bac6381808c7ee69318be66dd3daf29c6bf4568786f8d","63999.800000071526","537.9000000953674","77","1","swim","","","","",""
"dual-task","null","null","null","","swim","arctic","439.5","","B","null","77","77","1","swim-dual-task","","B","uppercase","74000","0","5","01d92d17ed0ea9d99d2bac6381808c7ee69318be66dd3daf29c6bf4568786f8d","74010.10000002384","439.5","77","1","swim","","","","",""
"dual-task","null","null","null","","swim","arctic","523.7999999523163","","N","null","77","77","1","swim-dual-task","","N","uppercase","80000","0","5","01d92d17ed0ea9d99d2bac6381808c7ee69318be66dd3daf29c6bf4568786f8d","80005.5","523.7999999523163","77","1","swim","","","","",""
"dual-task","null","null","null","","swim","arctic","498.2000000476837","","E","null","77","77","1","swim-dual-task","","E","uppercase","92000","0","5","01d92d17ed0ea9d99d2bac6381808c7ee69318be66dd3daf29c6bf4568786f8d","92007.39999997616","498.2000000476837","77","1","swim","","","","",""
"dual-task","null","null","null","","swim","arctic","663.7000000476837","","A","null","77","77","1","swim-dual-task","","A","uppercase","104000","0","5","01d92d17ed0ea9d99d2bac6381808c7ee69318be66dd3daf29c6bf4568786f8d","104001.80000007153","663.7000000476837","77","1","swim","","","","",""
"dual-task","null","null","null","","swim","arctic","505","","D","null","77","77","1","swim-dual-task","","D","uppercase","112000","0","5","01d92d17ed0ea9d99d2bac6381808c7ee69318be66dd3daf29c6bf4568786f8d","112008.10000002384","505","77","1","swim","","","","",""
"dual-task","null","null","null","","swim","arctic","499.10000002384186","","q","null","77","88","0","swim-dual-task","","q","lowercase","126000","0","5","01d92d17ed0ea9d99d2bac6381808c7ee69318be66dd3daf29c6bf4568786f8d","126014.30000007153","499.10000002384186","77","0","swim","","","","",""
"dual-task","null","null","null","","swim","arctic","852.3999999761581","","F","null","77","77","1","swim-dual-task","","F","uppercase","138000","0","5","01d92d17ed0ea9d99d2bac6381808c7ee69318be66dd3daf29c6bf4568786f8d","138013","852.3999999761581","77","1","swim","","","","",""
"dual-task","null","null","null","","swim","arctic","873.3999999761581","","g","null","88","88","1","swim-dual-task","","g","lowercase","144000","0","5","01d92d17ed0ea9d99d2bac6381808c7ee69318be66dd3daf29c6bf4568786f8d","144007.60000002384","873.3999999761581","88","1","swim","","","","",""
"dual-task","null","null","null","","swim","arctic","554.8999999761581","","e","null","88","88","1","swim-dual-task","","e","lowercase","156000","0","5","01d92d17ed0ea9d99d2bac6381808c7ee69318be66dd3daf29c6bf4568786f8d","156014.39999997616","554.8999999761581","88","1","swim","","","","",""
"dual-task","null","null","null","","swim","arctic","654.6999999284744","","R","null","77","77","1","swim-dual-task","","R","uppercase","168000","0","5","01d92d17ed0ea9d99d2bac6381808c7ee69318be66dd3daf29c6bf4568786f8d","168010.60000002384","654.6999999284744","77","1","swim","","","","",""
"dual-task","null","null","null","","swim","arctic","511.2999999523163","","F","null","77","77","1","swim-dual-task","","F","uppercase","178000","0","5","01d92d17ed0ea9d99d2bac6381808c7ee69318be66dd3daf29c6bf4568786f8d","178001.80000007153","511.2999999523163","77","1","swim","","","","",""
"dual-task","null","null","null","","swim","arctic","580.2000000476837","","T","null","77","77","1","swim-dual-task","","T","uppercase","186000","0","5","01d92d17ed0ea9d99d2bac6381808c7ee69318be66dd3daf29c6bf4568786f8d","186005.5","580.2000000476837","77","1","swim","","","","",""
"dual-task","null","null","null","","swim","arctic","433.60000002384186","","T","null","77","77","1","swim-dual-task","","T","uppercase","194000","0","5","01d92d17ed0ea9d99d2bac6381808c7ee69318be66dd3daf29c6bf4568786f8d","194007.30000007153","433.60000002384186","77","1","swim","","","","",""
"dual-task","null","null","null","","swim","arctic","575.3000000715256","","R","null","77","77","1","swim-dual-task","","R","uppercase","204000","0","5","01d92d17ed0ea9d99d2bac6381808c7ee69318be66dd3daf29c6bf4568786f8d","204002.5","575.3000000715256","77","1","swim","","","","",""
"dual-task","null","null","null","","swim","arctic","710.1000000238419","","G","null","77","77","1","swim-dual-task","","G","uppercase","212000","0","5","01d92d17ed0ea9d99d2bac6381808c7ee69318be66dd3daf29c6bf4568786f8d","212002.80000007153","710.1000000238419","77","1","swim","","","","",""
"dual-task","null","null","null","","swim","arctic","605.7000000476837","","n","null","77","88","0","swim-dual-task","","n","lowercase","224000","0","5","01d92d17ed0ea9d99d2bac6381808c7ee69318be66dd3daf29c6bf4568786f8d","224011.30000007153","605.7000000476837","77","0","swim","","","","",""
"dual-task","null","null","null","","swim","arctic","641.5","","f","null","88","88","1","swim-dual-task","","f","lowercase","236000","0","5","01d92d17ed0ea9d99d2bac6381808c7ee69318be66dd3daf29c6bf4568786f8d","236007.5","641.5","88","1","swim","","","","",""
"dual-task","null","null","null","","swim","arctic","581.3999999761581","","e","null","88","88","1","swim-dual-task","","e","lowercase","248000","0","5","01d92d17ed0ea9d99d2bac6381808c7ee69318be66dd3daf29c6bf4568786f8d","248011.80000007153","581.3999999761581","88","1","swim","","","","",""
"dual-task","null","null","null","","swim","arctic","529.2000000476837","","N","null","77","77","1","swim-dual-task","","N","uppercase","254000","0","5","01d92d17ed0ea9d99d2bac6381808c7ee69318be66dd3daf29c6bf4568786f8d","254015.60000002384","529.2000000476837","77","1","swim","","","","",""
"dual-task","null","null","null","","swim","arctic","566.6000000238419","","H","null","77","77","1","swim-dual-task","","H","uppercase","266000","0","5","01d92d17ed0ea9d99d2bac6381808c7ee69318be66dd3daf29c6bf4568786f8d","266010.39999997616","566.6000000238419","77","1","swim","","","","",""
"dual-task","null","null","null","","swim","arctic","646.1999999284744","","F","null","77","77","1","swim-dual-task","","F","uppercase","276000","0","5","01d92d17ed0ea9d99d2bac6381808c7ee69318be66dd3daf29c6bf4568786f8d","276002.7000000477","646.1999999284744","77","1","swim","","","","",""
"dual-task","null","null","null","","swim","arctic","515.5","","A","null","77","77","1","swim-dual-task","","A","uppercase","290000","0","5","01d92d17ed0ea9d99d2bac6381808c7ee69318be66dd3daf29c6bf4568786f8d","290005.5","515.5","77","1","swim","","","","",""
"dual-task","null","null","null","","swim","arctic","687.0999999046326","","a","null","88","88","1","swim-dual-task","","a","lowercase","298000","0","5","01d92d17ed0ea9d99d2bac6381808c7ee69318be66dd3daf29c6bf4568786f8d","298009.2000000477","687.0999999046326","88","1","swim","","","","",""
"dual-task","null","null","null","","swim","arctic","536.2000000476837","","n","null","88","88","1","swim-dual-task","","n","lowercase","308000","0","5","01d92d17ed0ea9d99d2bac6381808c7ee69318be66dd3daf29c6bf4568786f8d","308008.7000000477","536.2000000476837","88","1","swim","","","","",""
"dual-task","null","null","null","","swim","arctic","542.3000000715256","","H","null","77","77","1","swim-dual-task","","H","uppercase","320000","0","5","01d92d17ed0ea9d99d2bac6381808c7ee69318be66dd3daf29c6bf4568786f8d","320002.39999997616","542.3000000715256","77","1","swim","","","","",""
"dual-task","null","null","null","","swim","arctic","739.6000000238419","","b","null","88","88","1","swim-dual-task","","b","lowercase","332000","0","5","01d92d17ed0ea9d99d2bac6381808c7ee69318be66dd3daf29c6bf4568786f8d","332005.39999997616","739.6000000238419","88","1","swim","","","","",""
"dual-task","null","null","null","","swim","arctic","514.3000000715256","","A","null","77","77","1","swim-dual-task","","A","uppercase","342000","0","5","01d92d17ed0ea9d99d2bac6381808c7ee69318be66dd3daf29c6bf4568786f8d","342014.10000002384","514.3000000715256","77","1","swim","","","","",""
"dual-task","null","null","null","","swim","arctic","520.3000000715256","","B","null","77","77","1","swim-dual-task","","B","uppercase","354000","0","5","01d92d17ed0ea9d99d2bac6381808c7ee69318be66dd3daf29c6bf4568786f8d","354008.5","520.3000000715256","77","1","swim","","","","",""
"dual-task","null","null","null","","swim","arctic","886.7000000476837","","r","null","88","88","1","swim-dual-task","","r","lowercase","362000","0","5","01d92d17ed0ea9d99d2bac6381808c7ee69318be66dd3daf29c6bf4568786f8d","362009.5","886.7000000476837","88","1","swim","","","","",""
"dual-task","null","null","null","","swim","arctic","728.7000000476837","","r","null","88","88","1","swim-dual-task","","r","lowercase","370000","0","5","01d92d17ed0ea9d99d2bac6381808c7ee69318be66dd3daf29c6bf4568786f8d","370015.89999997616","728.7000000476837","88","1","swim","","","","",""
"dual-task","null","null","null","","swim","arctic","533.8000000715256","","t","null","88","88","1","swim-dual-task","","t","lowercase","380000","0","5","01d92d17ed0ea9d99d2bac6381808c7ee69318be66dd3daf29c6bf4568786f8d","380002.39999997616","533.8000000715256","88","1","swim","","","","",""
"dual-task","null","null","null","","swim","arctic","567.3999999761581","","a","null","88","88","1","swim-dual-task","","a","lowercase","388000","0","5","01d92d17ed0ea9d99d2bac6381808c7ee69318be66dd3daf29c6bf4568786f8d","388009.2000000477","567.3999999761581","88","1","swim","","","","",""
"dual-task","null","null","null","","swim","arctic","637.7999999523163","","t","null","88","88","1","swim-dual-task","","t","lowercase","402000","0","5","01d92d17ed0ea9d99d2bac6381808c7ee69318be66dd3daf29c6bf4568786f8d","402002.7000000477","637.7999999523163","88","1","swim","","","","",""
"dual-task","null","null","null","","swim","arctic","485.2999999523163","","d","null","88","88","1","swim-dual-task","","d","lowercase","412000","0","5","01d92d17ed0ea9d99d2bac6381808c7ee69318be66dd3daf29c6bf4568786f8d","412010.7000000477","485.2999999523163","88","1","swim","","","","",""
"dual-task","null","null","null","","swim","arctic","528.5","","N","null","77","77","1","swim-dual-task","","N","uppercase","422000","0","5","01d92d17ed0ea9d99d2bac6381808c7ee69318be66dd3daf29c6bf4568786f8d","422008.3000000715","528.5","77","1","swim","","","","",""
"dual-task","null","null","null","","swim","arctic","599.4000000953674","","D","null","77","77","1","swim-dual-task","","D","uppercase","432000","0","5","01d92d17ed0ea9d99d2bac6381808c7ee69318be66dd3daf29c6bf4568786f8d","432008.89999997616","599.4000000953674","77","1","swim","","","","",""
"dual-task","null","null","null","","swim","arctic","630.2999999523163","","f","null","88","88","1","swim-dual-task","","f","lowercase","444000","0","5","01d92d17ed0ea9d99d2bac6381808c7ee69318be66dd3daf29c6bf4568786f8d","444010.3000000715","630.2999999523163","88","1","swim","","","","",""
"dual-task","null","null","null","","swim","arctic","839.1000000238419","","A","null","77","77","1","swim-dual-task","","A","uppercase","450000","0","5","01d92d17ed0ea9d99d2bac6381808c7ee69318be66dd3daf29c6bf4568786f8d","450009.3000000715","839.1000000238419","77","1","swim","","","","",""
"dual-task","null","null","null","","swim","arctic","525.3000000715256","","d","null","88","88","1","swim-dual-task","","d","lowercase","464000","0","5","01d92d17ed0ea9d99d2bac6381808c7ee69318be66dd3daf29c6bf4568786f8d","464011","525.3000000715256","88","1","swim","","","","",""
"dual-task","null","null","null","","swim","arctic","741.2999999523163","","B","null","77","77","1","swim-dual-task","","B","uppercase","470000","0","5","01d92d17ed0ea9d99d2bac6381808c7ee69318be66dd3daf29c6bf4568786f8d","470002.60000002384","741.2999999523163","77","1","swim","","","","",""
"dual-task","null","null","null","","swim","arctic","569.8999999761581","","T","null","77","77","1","swim-dual-task","","T","uppercase","482000","0","5","01d92d17ed0ea9d99d2bac6381808c7ee69318be66dd3daf29c6bf4568786f8d","482014.3000000715","569.8999999761581","77","1","swim","","","","",""
"dual-task","null","null","null","","swim","arctic","741.1000000238419","","e","null","88","88","1","swim-dual-task","","e","lowercase","490000","0","5","01d92d17ed0ea9d99d2bac6381808c7ee69318be66dd3daf29c6bf4568786f8d","490010.8000000715","741.1000000238419","88","1","swim","","","","",""
"dual-task","null","null","null","","swim","arctic","623.7999999523163","","t","null","88","88","1","swim-dual-task","","t","lowercase","500000","0","5","01d92d17ed0ea9d99d2bac6381808c7ee69318be66dd3daf29c6bf4568786f8d","500008.3000000715","623.7999999523163","88","1","swim","","","","",""
"dual-task","null","null","null","","swim","arctic","682.3999999761581","","b","null","88","88","1","swim-dual-task","","b","lowercase","506000","0","5","01d92d17ed0ea9d99d2bac6381808c7ee69318be66dd3daf29c6bf4568786f8d","506005.3000000715","682.3999999761581","88","1","swim","","","","",""
"dual-task","null","null","null","","swim","arctic","462.7999999523163","","n","null","88","88","1","swim-dual-task","","n","lowercase","516000","0","5","01d92d17ed0ea9d99d2bac6381808c7ee69318be66dd3daf29c6bf4568786f8d","516009.3000000715","462.7999999523163","88","1","swim","","","","",""
"dual-task","null","null","null","","swim","arctic","554.6000000238419","","b","null","88","88","1","swim-dual-task","","b","lowercase","530000","0","5","01d92d17ed0ea9d99d2bac6381808c7ee69318be66dd3daf29c6bf4568786f8d","530013.5","554.6000000238419","88","1","swim","","","","",""
"dual-task","null","null","null","","swim","arctic","527.6999999284744","","H","null","77","77","1","swim-dual-task","","H","uppercase","542000","0","5","01d92d17ed0ea9d99d2bac6381808c7ee69318be66dd3daf29c6bf4568786f8d","542008.3000000715","527.6999999284744","77","1","swim","","","","",""
"dual-task","null","null","null","","swim","arctic","597.6999999284744","","Q","null","77","77","1","swim-dual-task","","Q","uppercase","552000","0","5","01d92d17ed0ea9d99d2bac6381808c7ee69318be66dd3daf29c6bf4568786f8d","552010.3000000715","597.6999999284744","77","1","swim","","","","",""
"dual-task","null","null","null","","swim","arctic","562.2999999523163","","h","null","88","88","1","swim-dual-task","","h","lowercase","564000","0","5","01d92d17ed0ea9d99d2bac6381808c7ee69318be66dd3daf29c6bf4568786f8d","564013.5","562.2999999523163","88","1","swim","","","","",""
"dual-task","null","null","null","","swim","arctic","591.1000000238419","","G","null","77","77","1","swim-dual-task","","G","uppercase","572000","0","5","01d92d17ed0ea9d99d2bac6381808c7ee69318be66dd3daf29c6bf4568786f8d","572000.8000000715","591.1000000238419","77","1","swim","","","","",""
"dual-task","null","null","null","","swim","arctic","576.6000000238419","","Q","null","77","77","1","swim-dual-task","","Q","uppercase","586000","0","5","01d92d17ed0ea9d99d2bac6381808c7ee69318be66dd3daf29c6bf4568786f8d","586015.3999999762","576.6000000238419","77","1","swim","","","","",""
"dual-task","null","null","null","","swim","arctic","545.2000000476837","","r","null","88","88","1","swim-dual-task","","r","lowercase","598000","0","5","01d92d17ed0ea9d99d2bac6381808c7ee69318be66dd3daf29c6bf4568786f8d","598014.6000000238","545.2000000476837","88","1","swim","","","","",""
"dual-task","null","null","null","","swim","arctic","710.3999999761581","","D","null","77","77","1","swim-dual-task","","D","uppercase","610000","0","5","01d92d17ed0ea9d99d2bac6381808c7ee69318be66dd3daf29c6bf4568786f8d","610009.3000000715","710.3999999761581","77","1","swim","","","","",""
"dual-task","null","null","null","","swim","arctic","536.5","","t","null","88","88","1","swim-dual-task","","t","lowercase","616000","0","5","01d92d17ed0ea9d99d2bac6381808c7ee69318be66dd3daf29c6bf4568786f8d","616014.8999999762","536.5","88","1","swim","","","","",""
"dual-task","null","null","null","","swim","arctic","442.89999997615814","","a","null","88","88","1","swim-dual-task","","a","lowercase","630000","0","5","01d92d17ed0ea9d99d2bac6381808c7ee69318be66dd3daf29c6bf4568786f8d","630013.3000000715","442.89999997615814","88","1","swim","","","","",""
"dual-task","null","null","null","","swim","arctic","614.3999999761581","","N","null","77","77","1","swim-dual-task","","N","uppercase","642000","0","5","01d92d17ed0ea9d99d2bac6381808c7ee69318be66dd3daf29c6bf4568786f8d","642001.2000000477","614.3999999761581","77","1","swim","","","","",""
"dual-task","null","null","null","","swim","arctic","595","","r","null","88","88","1","swim-dual-task","","r","lowercase","650000","0","5","01d92d17ed0ea9d99d2bac6381808c7ee69318be66dd3daf29c6bf4568786f8d","650004.3999999762","595","88","1","swim","","","","",""
"dual-task","null","null","null","","swim","arctic","632.2999999523163","","F","null","88","77","0","swim-dual-task","","F","uppercase","658000","0","5","01d92d17ed0ea9d99d2bac6381808c7ee69318be66dd3daf29c6bf4568786f8d","658015.3000000715","632.2999999523163","88","0","swim","","","","",""
"dual-task","null","null","null","","swim","arctic","706.8999999761581","","h","null","88","88","1","swim-dual-task","","h","lowercase","666000","0","5","01d92d17ed0ea9d99d2bac6381808c7ee69318be66dd3daf29c6bf4568786f8d","666012.2000000477","706.8999999761581","88","1","swim","","","","",""
"dual-task","null","null","null","","swim","arctic","594.7999999523163","","h","null","88","88","1","swim-dual-task","","h","lowercase","674000","0","5","01d92d17ed0ea9d99d2bac6381808c7ee69318be66dd3daf29c6bf4568786f8d","674012.8000000715","594.7999999523163","88","1","swim","","","","",""
"dual-task","null","null","null","","swim","arctic","577.8999999761581","","R","null","77","77","1","swim-dual-task","","R","uppercase","684000","0","5","01d92d17ed0ea9d99d2bac6381808c7ee69318be66dd3daf29c6bf4568786f8d","684005.3000000715","577.8999999761581","77","1","swim","","","","",""
"dual-task","null","null","null","","swim","arctic","553.0999999046326","","q","null","88","88","1","swim-dual-task","","q","lowercase","696000","0","5","01d92d17ed0ea9d99d2bac6381808c7ee69318be66dd3daf29c6bf4568786f8d","696006.3999999762","553.0999999046326","88","1","swim","","","","",""
"dual-task","null","null","null","","swim","arctic","913.7999999523163","","g","null","88","88","1","swim-dual-task","","g","lowercase","702000","0","5","01d92d17ed0ea9d99d2bac6381808c7ee69318be66dd3daf29c6bf4568786f8d","702013.3999999762","913.7999999523163","88","1","swim","","","","",""
"dual-task","null","null","null","","swim","arctic","575","","f","null","88","88","1","swim-dual-task","","f","lowercase","716000","0","5","01d92d17ed0ea9d99d2bac6381808c7ee69318be66dd3daf29c6bf4568786f8d","716000.8000000715","575","88","1","swim","","","","",""
"dual-task","null","null","null","","swim","arctic","611.1999999284744","","Q","null","77","77","1","swim-dual-task","","Q","uppercase","726000","0","5","01d92d17ed0ea9d99d2bac6381808c7ee69318be66dd3daf29c6bf4568786f8d","726012.3999999762","611.1999999284744","77","1","swim","","","","",""
"dual-task","null","null","null","","swim","arctic","629.7999999523163","","h","null","88","88","1","swim-dual-task","","h","lowercase","732000","0","5","01d92d17ed0ea9d99d2bac6381808c7ee69318be66dd3daf29c6bf4568786f8d","732009.3000000715","629.7999999523163","88","1","swim","","","","",""
"dual-task","null","null","null","","swim","arctic","549.6999999284744","","D","null","77","77","1","swim-dual-task","","D","uppercase","740000","0","5","01d92d17ed0ea9d99d2bac6381808c7ee69318be66dd3daf29c6bf4568786f8d","740009.7000000477","549.6999999284744","77","1","swim","","","","",""
"dual-task","null","null","null","","swim","arctic","612","","q","null","88","88","1","swim-dual-task","","q","lowercase","752000","0","5","01d92d17ed0ea9d99d2bac6381808c7ee69318be66dd3daf29c6bf4568786f8d","752011.8000000715","612","88","1","swim","","","","",""
"dual-task","null","null","null","","swim","arctic","523.8999999761581","","n","null","88","88","1","swim-dual-task","","n","lowercase","764000","0","5","01d92d17ed0ea9d99d2bac6381808c7ee69318be66dd3daf29c6bf4568786f8d","764011.3999999762","523.8999999761581","88","1","swim","","","","",""
"dual-task","null","null","null","","swim","arctic","525.8999999761581","","d","null","88","88","1","swim-dual-task","","d","lowercase","776000","0","5","01d92d17ed0ea9d99d2bac6381808c7ee69318be66dd3daf29c6bf4568786f8d","776009.3000000715","525.8999999761581","88","1","swim","","","","",""
"dual-task","null","null","null","","swim","arctic","601","","T","null","77","77","1","swim-dual-task","","T","uppercase","786000","0","5","01d92d17ed0ea9d99d2bac6381808c7ee69318be66dd3daf29c6bf4568786f8d","786006.3000000715","601","77","1","swim","","","","",""
"dual-task","null","null","null","","swim","arctic","865.6999999284744","","d","null","88","88","1","swim-dual-task","","d","lowercase","798000","0","5","01d92d17ed0ea9d99d2bac6381808c7ee69318be66dd3daf29c6bf4568786f8d","798005.3999999762","865.6999999284744","88","1","swim","","","","",""
"audio-keyboard-response","29","1504886","0.0-7.0-0.0-1.0","01d92d17ed0ea9d99d2bac6381808c7ee69318be66dd3daf29c6bf4568786f8d","swim","arctic","null","","audio/story_swim.mp3","","null","","","","","","","","","","","","","","","","","","","",""
"html-button-response","30","1523420","0.0-7.0-0.0-2.0","01d92d17ed0ea9d99d2bac6381808c7ee69318be66dd3daf29c6bf4568786f8d","swim","arctic","18533","","<p>This concludes the story. Thank you for listening.</p><p>You will now answer some questions about the content of the story.</p>","0","","","","","","","","","","","","","","","","","","","","",""
"survey-multi-choice","31","1530252","0.0-7.0-0.0-3.0-0.0","01d92d17ed0ea9d99d2bac6381808c7ee69318be66dd3daf29c6bf4568786f8d","swim","arctic","6830","","<b>How many astronaut candidates passed the first swim test?</b>","","","","1","swim-comprehension","","","","","","","","","","","","","{""Q0"":""All of them""}","","","",""
"survey-multi-choice","32","1539866","0.0-7.0-0.0-3.0-0.1","01d92d17ed0ea9d99d2bac6381808c7ee69318be66dd3daf29c6bf4568786f8d","swim","arctic","9361","","<b>How many astronaut candidates reported for duty at the Johnson Space Center?</b>","","","","1","swim-comprehension","","","","","","","","","","","","","{""Q0"":""Forty-four""}","","","",""
"survey-multi-choice","33","1549082","0.0-7.0-0.0-3.0-0.2","01d92d17ed0ea9d99d2bac6381808c7ee69318be66dd3daf29c6bf4568786f8d","swim","arctic","8965","","<b>What gave the narrator his greatest feeling of accomplishment?</b>","","","","1","swim-comprehension","","","","","","","","","","","","","{""Q0"":""Passing the water survival course""}","","","",""
"survey-multi-choice","34","1569884","0.0-7.0-0.0-3.0-0.3","01d92d17ed0ea9d99d2bac6381808c7ee69318be66dd3daf29c6bf4568786f8d","swim","arctic","20550","","<b>How did the narrator train for his swim test?</b>","","","","0","swim-comprehension","","","","","","","","","","","","","{""Q0"":""Swam at the lake every day""}","","","",""
"survey-multi-choice","35","1577770","0.0-7.0-0.0-3.0-0.4","01d92d17ed0ea9d99d2bac6381808c7ee69318be66dd3daf29c6bf4568786f8d","swim","arctic","7634","","<b>What was the final step of the first swim test in the pool?</b>","","","","1","swim-comprehension","","","","","","","","","","","","","{""Q0"":""Tread water with hands above the water""}","","","",""
"survey-multi-choice","36","1584148","0.0-7.0-0.0-3.0-0.5","01d92d17ed0ea9d99d2bac6381808c7ee69318be66dd3daf29c6bf4568786f8d","swim","arctic","6126","","<b>How often does the narrator swim, now that he is a good swimmer?</b>","","","","1","swim-comprehension","","","","","","","","","","","","","{""Q0"":""Never swam again in his life""}","","","",""
"survey-multi-choice","37","1587866","0.0-7.0-0.0-3.0-0.6","01d92d17ed0ea9d99d2bac6381808c7ee69318be66dd3daf29c6bf4568786f8d","swim","arctic","3466","","<b>Where is the home of naval aviation?</b>","","","","1","swim-comprehension","","","","","","","","","","","","","{""Q0"":""Pensacola""}","","","",""
"survey-multi-choice","38","1592256","0.0-7.0-0.0-3.0-0.7","01d92d17ed0ea9d99d2bac6381808c7ee69318be66dd3daf29c6bf4568786f8d","swim","arctic","4137","","<b>What is the narrator afraid of, aside from the water?</b>","","","","1","swim-comprehension","","","","","","","","","","","","","{""Q0"":""Heights""}","","","",""
"survey-multi-choice","39","1600952","0.0-7.0-0.0-3.0-0.8","01d92d17ed0ea9d99d2bac6381808c7ee69318be66dd3daf29c6bf4568786f8d","swim","arctic","8444","","<b>What were the astronaut candidates trained to do at the naval air station?</b>","","","","1","swim-comprehension","","","","","","","","","","","","","{""Q0"":""Eject out of aircraft and survive in water long enough to be rescued""}","","","",""
"survey-multi-choice","40","1607168","0.0-7.0-0.0-3.0-0.9","01d92d17ed0ea9d99d2bac6381808c7ee69318be66dd3daf29c6bf4568786f8d","swim","arctic","5962","","<b>How many times did the astronaut candidates have to complete the final exercise to pass?</b>","","","","1","swim-comprehension","","","","","","","","","","","","","{""Q0"":""Two""}","","","",""
"html-button-response","41","1609764","0.0-7.0-0.0-4.0","01d92d17ed0ea9d99d2bac6381808c7ee69318be66dd3daf29c6bf4568786f8d","swim","arctic","2344","","<p>Thank you for your responses.</p><p>You will now answer some questions about your impressions of the story.</p>","0","","","","","","","","","","","","","","","","","","","","",""
"html-button-response","42","1612456","0.0-7.0-0.0-5.0-0.0","01d92d17ed0ea9d99d2bac6381808c7ee69318be66dd3daf29c6bf4568786f8d","swim","arctic","2691","","MS1","6","","","","swim-engagement","","","","","","","","","","","","","","7","mental-sim","",""
"html-button-response","43","1615734","0.0-7.0-0.0-5.0-0.1","01d92d17ed0ea9d99d2bac6381808c7ee69318be66dd3daf29c6bf4568786f8d","swim","arctic","3026","","EE4","6","","","","swim-engagement","","","","","","","","","","","","","","7","emo-engage","",""
"html-button-response","44","1618730","0.0-7.0-0.0-5.0-0.2","01d92d17ed0ea9d99d2bac6381808c7ee69318be66dd3daf29c6bf4568786f8d","swim","arctic","2745","","MS3","6","","","","swim-engagement","","","","","","","","","","","","","","7","mental-sim","",""
"html-button-response","45","1620397","0.0-7.0-0.0-5.0-0.3","01d92d17ed0ea9d99d2bac6381808c7ee69318be66dd3daf29c6bf4568786f8d","swim","arctic","1415","","E1","6","","","","swim-engagement","","","","","","","","","","","","","","7","enjoyment","",""
"html-button-response","46","1621942","0.0-7.0-0.0-5.0-0.4","01d92d17ed0ea9d99d2bac6381808c7ee69318be66dd3daf29c6bf4568786f8d","swim","arctic","1294","","E8","6","","","","swim-engagement","","","","","","","","","","","","","","7","enjoyment","",""
"html-button-response","47","1625621","0.0-7.0-0.0-5.0-0.5","01d92d17ed0ea9d99d2bac6381808c7ee69318be66dd3daf29c6bf4568786f8d","swim","arctic","3426","","A1","6","","","","swim-engagement","","","","","","","","","","","","","","7","absorption","",""
"html-button-response","48","1627351","0.0-7.0-0.0-5.0-0.6","01d92d17ed0ea9d99d2bac6381808c7ee69318be66dd3daf29c6bf4568786f8d","swim","arctic","1479","","EE3","6","","","","swim-engagement","","","","","","","","","","","","","","7","emo-engage","",""
"html-button-response","49","1631181","0.0-7.0-0.0-5.0-0.7","01d92d17ed0ea9d99d2bac6381808c7ee69318be66dd3daf29c6bf4568786f8d","swim","arctic","3578","","A5","6","","","","swim-engagement","","","","","","","","","","","","","","7","absorption","",""
"html-button-response","50","1633465","0.0-7.0-0.0-5.0-0.8","01d92d17ed0ea9d99d2bac6381808c7ee69318be66dd3daf29c6bf4568786f8d","swim","arctic","2032","","EE2","6","","","","swim-engagement","","","","","","","","","","","","","","7","emo-engage","",""
"html-button-response","51","1639437","0.0-7.0-0.0-5.0-0.9","01d92d17ed0ea9d99d2bac6381808c7ee69318be66dd3daf29c6bf4568786f8d","swim","arctic","5719","","A2","6","","","","swim-engagement","","","","","","","","","","","","","","7","absorption","",""
"html-button-response","52","1643099","0.0-7.0-0.0-5.0-0.10","01d92d17ed0ea9d99d2bac6381808c7ee69318be66dd3daf29c6bf4568786f8d","swim","arctic","3410","","EE1","6","","","","swim-engagement","","","","","","","","","","","","","","7","emo-engage","",""
"html-button-response","53","1645077","0.0-7.0-0.0-5.0-0.11","01d92d17ed0ea9d99d2bac6381808c7ee69318be66dd3daf29c6bf4568786f8d","swim","arctic","1726","","E7","6","","","","swim-engagement","","","","","","","","","","","","","","7","enjoyment","",""
"html-button-response","54","1648491","0.0-7.0-0.0-5.0-0.12","01d92d17ed0ea9d99d2bac6381808c7ee69318be66dd3daf29c6bf4568786f8d","swim","arctic","3163","","MS2","6","","","","swim-engagement","","","","","","","","","","","","","","7","mental-sim","",""
"html-button-response","55","1652651","0.0-7.0-0.0-5.0-0.13","01d92d17ed0ea9d99d2bac6381808c7ee69318be66dd3daf29c6bf4568786f8d","swim","arctic","3908","","EE5","6","","","","swim-engagement","","","","","","","","","","","","","","7","emo-engage","",""
"html-button-response","56","1654349","0.0-7.0-0.0-5.0-0.14","01d92d17ed0ea9d99d2bac6381808c7ee69318be66dd3daf29c6bf4568786f8d","swim","arctic","1446","","E10","6","","","","swim-engagement","","","","","","","","","","","","","","7","enjoyment","",""
"html-button-response","57","1655839","0.0-7.0-0.0-5.0-0.15","01d92d17ed0ea9d99d2bac6381808c7ee69318be66dd3daf29c6bf4568786f8d","swim","arctic","1239","","A3","6","","","","swim-engagement","","","","","","","","","","","","","","7","absorption","",""
"html-button-response","58","1661905","0.0-7.0-0.0-5.0-0.16","01d92d17ed0ea9d99d2bac6381808c7ee69318be66dd3daf29c6bf4568786f8d","swim","arctic","5815","","A4","6","","","","swim-engagement","","","","","","","","","","","","","","7","absorption","",""
"html-button-response","59","1663877","0.0-7.0-0.0-5.0-0.17","01d92d17ed0ea9d99d2bac6381808c7ee69318be66dd3daf29c6bf4568786f8d","swim","arctic","1720","","E6","6","","","","swim-engagement","","","","","","","","","","","","","","7","enjoyment","",""
"html-keyboard-response","60","1678622","0.0-7.0-1.0","01d92d17ed0ea9d99d2bac6381808c7ee69318be66dd3daf29c6bf4568786f8d","swim","arctic","14495","","<p>Thank you for your responses. You will now listen to the second story.</p><p>Remember, as you listen to the story you will see letters appear on the screen.</br>As quickly as possible, press <b>&lt;x&gt;</b> if the letter is lowercase and <b>&lt;m&gt;</b> if the letter is uppercase.</p><p>Press <b>&lt;x&gt;</b> or <b>&lt;m&gt;</b> to begin listening!</p>","","88","","","","","","","","","","","","","","","","","","","",""
"html-keyboard-response","61","1679123","0.0-7.0-2.0-0.0","01d92d17ed0ea9d99d2bac6381808c7ee69318be66dd3daf29c6bf4568786f8d","swim","arctic","null","","<div style=""font-size:60px;"" tabindex=""0"">+</div>","","null","","","","","","","","","","","","","","","","","","","",""
"dual-task","null","null","null","","swim","arctic","NA","","B","null","NA","77","0","arctic-dual-task","","B","uppercase","18000","1","5","01d92d17ed0ea9d99d2bac6381808c7ee69318be66dd3daf29c6bf4568786f8d","18014.099999904633","NA","NA","0","arctic","","","","",""
"dual-task","null","null","null","","swim","arctic","NA","","N","null","NA","77","0","arctic-dual-task","","N","uppercase","32000","1","5","01d92d17ed0ea9d99d2bac6381808c7ee69318be66dd3daf29c6bf4568786f8d","32002.699999928474","NA","NA","0","arctic","","","","",""
"dual-task","null","null","null","","swim","arctic","606.3999999761581","","G","null","77","77","1","arctic-dual-task","","G","uppercase","42000","0","5","01d92d17ed0ea9d99d2bac6381808c7ee69318be66dd3daf29c6bf4568786f8d","42004.09999990463","606.3999999761581","77","1","arctic","","","","",""
"dual-task","null","null","null","","swim","arctic","671.6000000238419","","B","null","77","77","1","arctic-dual-task","","B","uppercase","56000","0","5","01d92d17ed0ea9d99d2bac6381808c7ee69318be66dd3daf29c6bf4568786f8d","56003.39999997616","671.6000000238419","77","1","arctic","","","","",""
"dual-task","null","null","null","","swim","arctic","923.8000000715256","","b","null","88","88","1","arctic-dual-task","","b","lowercase","68000","0","5","01d92d17ed0ea9d99d2bac6381808c7ee69318be66dd3daf29c6bf4568786f8d","68007.09999990463","923.8000000715256","88","1","arctic","","","","",""
"dual-task","null","null","null","","swim","arctic","822.5","","r","null","88","88","1","arctic-dual-task","","r","lowercase","82000","0","5","01d92d17ed0ea9d99d2bac6381808c7ee69318be66dd3daf29c6bf4568786f8d","82012.19999992847","822.5","88","1","arctic","","","","",""
"dual-task","null","null","null","","swim","arctic","592.8000000715256","","g","null","88","88","1","arctic-dual-task","","g","lowercase","88000","0","5","01d92d17ed0ea9d99d2bac6381808c7ee69318be66dd3daf29c6bf4568786f8d","88001.5","592.8000000715256","88","1","arctic","","","","",""
"dual-task","null","null","null","","swim","arctic","471.10000002384186","","d","null","88","88","1","arctic-dual-task","","d","lowercase","100000","0","5","01d92d17ed0ea9d99d2bac6381808c7ee69318be66dd3daf29c6bf4568786f8d","100004.09999990463","471.10000002384186","88","1","arctic","","","","",""
"dual-task","null","null","null","","swim","arctic","483.7000000476837","","n","null","88","88","1","arctic-dual-task","","n","lowercase","108000","0","5","01d92d17ed0ea9d99d2bac6381808c7ee69318be66dd3daf29c6bf4568786f8d","108006.19999992847","483.7000000476837","88","1","arctic","","","","",""
"dual-task","null","null","null","","swim","arctic","752.6999999284744","","r","null","88","88","1","arctic-dual-task","","r","lowercase","116000","0","5","01d92d17ed0ea9d99d2bac6381808c7ee69318be66dd3daf29c6bf4568786f8d","116001.89999997616","752.6999999284744","88","1","arctic","","","","",""
"dual-task","null","null","null","","swim","arctic","540","","Q","null","77","77","1","arctic-dual-task","","Q","uppercase","124000","0","5","01d92d17ed0ea9d99d2bac6381808c7ee69318be66dd3daf29c6bf4568786f8d","124006.09999990463","540","77","1","arctic","","","","",""
"dual-task","null","null","null","","swim","arctic","477.10000002384186","","g","null","88","88","1","arctic-dual-task","","g","lowercase","134000","0","5","01d92d17ed0ea9d99d2bac6381808c7ee69318be66dd3daf29c6bf4568786f8d","134013.19999992847","477.10000002384186","88","1","arctic","","","","",""
"dual-task","null","null","null","","swim","arctic","807.2999999523163","","e","null","88","88","1","arctic-dual-task","","e","lowercase","144000","0","5","01d92d17ed0ea9d99d2bac6381808c7ee69318be66dd3daf29c6bf4568786f8d","144003.19999992847","807.2999999523163","88","1","arctic","","","","",""
"dual-task","null","null","null","","swim","arctic","952.1000000238419","","d","null","88","88","1","arctic-dual-task","","d","lowercase","150000","0","5","01d92d17ed0ea9d99d2bac6381808c7ee69318be66dd3daf29c6bf4568786f8d","150002.09999990463","952.1000000238419","88","1","arctic","","","","",""
"dual-task","null","null","null","","swim","arctic","453.5","","e","null","88","88","1","arctic-dual-task","","e","lowercase","160000","0","5","01d92d17ed0ea9d99d2bac6381808c7ee69318be66dd3daf29c6bf4568786f8d","160004.79999995232","453.5","88","1","arctic","","","","",""
"dual-task","null","null","null","","swim","arctic","516.5","","a","null","88","88","1","arctic-dual-task","","a","lowercase","170000","0","5","01d92d17ed0ea9d99d2bac6381808c7ee69318be66dd3daf29c6bf4568786f8d","170013.79999995232","516.5","88","1","arctic","","","","",""
"dual-task","null","null","null","","swim","arctic","541.7000000476837","","b","null","88","88","1","arctic-dual-task","","b","lowercase","176000","0","5","01d92d17ed0ea9d99d2bac6381808c7ee69318be66dd3daf29c6bf4568786f8d","176012.29999995232","541.7000000476837","88","1","arctic","","","","",""
"dual-task","null","null","null","","swim","arctic","507","","H","null","77","77","1","arctic-dual-task","","H","uppercase","188000","0","5","01d92d17ed0ea9d99d2bac6381808c7ee69318be66dd3daf29c6bf4568786f8d","188015.39999997616","507","77","1","arctic","","","","",""
"dual-task","null","null","null","","swim","arctic","478.2000000476837","","G","null","77","77","1","arctic-dual-task","","G","uppercase","194000","0","5","01d92d17ed0ea9d99d2bac6381808c7ee69318be66dd3daf29c6bf4568786f8d","194003.69999992847","478.2000000476837","77","1","arctic","","","","",""
"dual-task","null","null","null","","swim","arctic","539","","a","null","88","88","1","arctic-dual-task","","a","lowercase","204000","0","5","01d92d17ed0ea9d99d2bac6381808c7ee69318be66dd3daf29c6bf4568786f8d","204015.29999995232","539","88","1","arctic","","","","",""
"dual-task","null","null","null","","swim","arctic","492.7000000476837","","N","null","77","77","1","arctic-dual-task","","N","uppercase","214000","0","5","01d92d17ed0ea9d99d2bac6381808c7ee69318be66dd3daf29c6bf4568786f8d","214005","492.7000000476837","77","1","arctic","","","","",""
"dual-task","null","null","null","","swim","arctic","531.8999999761581","","b","null","88","88","1","arctic-dual-task","","b","lowercase","224000","0","5","01d92d17ed0ea9d99d2bac6381808c7ee69318be66dd3daf29c6bf4568786f8d","224006.29999995232","531.8999999761581","88","1","arctic","","","","",""
"dual-task","null","null","null","","swim","arctic","1242.6000000238419","","a","null","88","88","1","arctic-dual-task","","a","lowercase","230000","0","5","01d92d17ed0ea9d99d2bac6381808c7ee69318be66dd3daf29c6bf4568786f8d","230007.19999992847","1242.6000000238419","88","1","arctic","","","","",""
"dual-task","null","null","null","","swim","arctic","515.6999999284744","","e","null","88","88","1","arctic-dual-task","","e","lowercase","244000","0","5","01d92d17ed0ea9d99d2bac6381808c7ee69318be66dd3daf29c6bf4568786f8d","244006.29999995232","515.6999999284744","88","1","arctic","","","","",""
"dual-task","null","null","null","","swim","arctic","776.9000000953674","","a","null","88","88","1","arctic-dual-task","","a","lowercase","258000","0","5","01d92d17ed0ea9d99d2bac6381808c7ee69318be66dd3daf29c6bf4568786f8d","258002.09999990463","776.9000000953674","88","1","arctic","","","","",""
"dual-task","null","null","null","","swim","arctic","594.7000000476837","","R","null","77","77","1","arctic-dual-task","","R","uppercase","266000","0","5","01d92d17ed0ea9d99d2bac6381808c7ee69318be66dd3daf29c6bf4568786f8d","266007.09999990463","594.7000000476837","77","1","arctic","","","","",""
"dual-task","null","null","null","","swim","arctic","639.7999999523163","","f","null","88","88","1","arctic-dual-task","","f","lowercase","276000","0","5","01d92d17ed0ea9d99d2bac6381808c7ee69318be66dd3daf29c6bf4568786f8d","276002.2999999523","639.7999999523163","88","1","arctic","","","","",""
"dual-task","null","null","null","","swim","arctic","568.2000000476837","","t","null","88","88","1","arctic-dual-task","","t","lowercase","290000","0","5","01d92d17ed0ea9d99d2bac6381808c7ee69318be66dd3daf29c6bf4568786f8d","290009.7999999523","568.2000000476837","88","1","arctic","","","","",""
"dual-task","null","null","null","","swim","arctic","711.3999999761581","","A","null","77","77","1","arctic-dual-task","","A","uppercase","298000","0","5","01d92d17ed0ea9d99d2bac6381808c7ee69318be66dd3daf29c6bf4568786f8d","298002.09999990463","711.3999999761581","77","1","arctic","","","","",""
"dual-task","null","null","null","","swim","arctic","524.7000000476837","","A","null","77","77","1","arctic-dual-task","","A","uppercase","306000","0","5","01d92d17ed0ea9d99d2bac6381808c7ee69318be66dd3daf29c6bf4568786f8d","306013.1999999285","524.7000000476837","77","1","arctic","","","","",""
"dual-task","null","null","null","","swim","arctic","576.6000000238419","","f","null","88","88","1","arctic-dual-task","","f","lowercase","316000","0","5","01d92d17ed0ea9d99d2bac6381808c7ee69318be66dd3daf29c6bf4568786f8d","316001.1999999285","576.6000000238419","88","1","arctic","","","","",""
"dual-task","null","null","null","","swim","arctic","578.1000000238419","","n","null","88","88","1","arctic-dual-task","","n","lowercase","328000","0","5","01d92d17ed0ea9d99d2bac6381808c7ee69318be66dd3daf29c6bf4568786f8d","328008.2999999523","578.1000000238419","88","1","arctic","","","","",""
"dual-task","null","null","null","","swim","arctic","705.1999999284744","","h","null","88","88","1","arctic-dual-task","","h","lowercase","342000","0","5","01d92d17ed0ea9d99d2bac6381808c7ee69318be66dd3daf29c6bf4568786f8d","342000.89999997616","705.1999999284744","88","1","arctic","","","","",""
"dual-task","null","null","null","","swim","arctic","448.7000000476837","","h","null","88","88","1","arctic-dual-task","","h","lowercase","354000","0","5","01d92d17ed0ea9d99d2bac6381808c7ee69318be66dd3daf29c6bf4568786f8d","354009.2999999523","448.7000000476837","88","1","arctic","","","","",""
"dual-task","null","null","null","","swim","arctic","523.6999999284744","","D","null","77","77","1","arctic-dual-task","","D","uppercase","364000","0","5","01d92d17ed0ea9d99d2bac6381808c7ee69318be66dd3daf29c6bf4568786f8d","364006","523.6999999284744","77","1","arctic","","","","",""
"dual-task","null","null","null","","swim","arctic","595.6000000238419","","E","null","77","77","1","arctic-dual-task","","E","uppercase","372000","0","5","01d92d17ed0ea9d99d2bac6381808c7ee69318be66dd3daf29c6bf4568786f8d","372013.6999999285","595.6000000238419","77","1","arctic","","","","",""
"dual-task","null","null","null","","swim","arctic","1132.6000000238419","","r","null","88","88","1","arctic-dual-task","","r","lowercase","378000","0","5","01d92d17ed0ea9d99d2bac6381808c7ee69318be66dd3daf29c6bf4568786f8d","378005.09999990463","1132.6000000238419","88","1","arctic","","","","",""
"dual-task","null","null","null","","swim","arctic","534.7999999523163","","F","null","77","77","1","arctic-dual-task","","F","uppercase","388000","0","5","01d92d17ed0ea9d99d2bac6381808c7ee69318be66dd3daf29c6bf4568786f8d","388010.5","534.7999999523163","77","1","arctic","","","","",""
"dual-task","null","null","null","","swim","arctic","578.6000000238419","","H","null","77","77","1","arctic-dual-task","","H","uppercase","394000","0","5","01d92d17ed0ea9d99d2bac6381808c7ee69318be66dd3daf29c6bf4568786f8d","394015.09999990463","578.6000000238419","77","1","arctic","","","","",""
"dual-task","null","null","null","","swim","arctic","557.3999999761581","","R","null","77","77","1","arctic-dual-task","","R","uppercase","406000","0","5","01d92d17ed0ea9d99d2bac6381808c7ee69318be66dd3daf29c6bf4568786f8d","406012.1999999285","557.3999999761581","77","1","arctic","","","","",""
"dual-task","null","null","null","","swim","arctic","455.10000002384186","","B","null","77","77","1","arctic-dual-task","","B","uppercase","412000","0","5","01d92d17ed0ea9d99d2bac6381808c7ee69318be66dd3daf29c6bf4568786f8d","412002.09999990463","455.10000002384186","77","1","arctic","","","","",""
"dual-task","null","null","null","","swim","arctic","418.5","","G","null","77","77","1","arctic-dual-task","","G","uppercase","426000","0","5","01d92d17ed0ea9d99d2bac6381808c7ee69318be66dd3daf29c6bf4568786f8d","426007.09999990463","418.5","77","1","arctic","","","","",""
"dual-task","null","null","null","","swim","arctic","732.8000000715256","","r","null","88","88","1","arctic-dual-task","","r","lowercase","438000","0","5","01d92d17ed0ea9d99d2bac6381808c7ee69318be66dd3daf29c6bf4568786f8d","438012.2999999523","732.8000000715256","88","1","arctic","","","","",""
"dual-task","null","null","null","","swim","arctic","545.3999999761581","","q","null","88","88","1","arctic-dual-task","","q","lowercase","450000","0","5","01d92d17ed0ea9d99d2bac6381808c7ee69318be66dd3daf29c6bf4568786f8d","450015.5","545.3999999761581","88","1","arctic","","","","",""
"dual-task","null","null","null","","swim","arctic","440.10000002384186","","Q","null","77","77","1","arctic-dual-task","","Q","uppercase","462000","0","5","01d92d17ed0ea9d99d2bac6381808c7ee69318be66dd3daf29c6bf4568786f8d","462000.6999999285","440.10000002384186","77","1","arctic","","","","",""
"dual-task","null","null","null","","swim","arctic","1002.5","","f","null","88","88","1","arctic-dual-task","","f","lowercase","474000","0","5","01d92d17ed0ea9d99d2bac6381808c7ee69318be66dd3daf29c6bf4568786f8d","474014.7999999523","1002.5","88","1","arctic","","","","",""
"dual-task","null","null","null","","swim","arctic","728.8000000715256","","N","null","77","77","1","arctic-dual-task","","N","uppercase","482000","0","5","01d92d17ed0ea9d99d2bac6381808c7ee69318be66dd3daf29c6bf4568786f8d","482015.5","728.8000000715256","77","1","arctic","","","","",""
"dual-task","null","null","null","","swim","arctic","498.7000000476837","","n","null","88","88","1","arctic-dual-task","","n","lowercase","488000","0","5","01d92d17ed0ea9d99d2bac6381808c7ee69318be66dd3daf29c6bf4568786f8d","488007.09999990463","498.7000000476837","88","1","arctic","","","","",""
"dual-task","null","null","null","","swim","arctic","708.7000000476837","","Q","null","77","77","1","arctic-dual-task","","Q","uppercase","494000","0","5","01d92d17ed0ea9d99d2bac6381808c7ee69318be66dd3daf29c6bf4568786f8d","494004.09999990463","708.7000000476837","77","1","arctic","","","","",""
"dual-task","null","null","null","","swim","arctic","508","","A","null","77","77","1","arctic-dual-task","","A","uppercase","500000","0","5","01d92d17ed0ea9d99d2bac6381808c7ee69318be66dd3daf29c6bf4568786f8d","500005.2999999523","508","77","1","arctic","","","","",""
"dual-task","null","null","null","","swim","arctic","918.6000000238419","","N","null","77","77","1","arctic-dual-task","","N","uppercase","508000","0","5","01d92d17ed0ea9d99d2bac6381808c7ee69318be66dd3daf29c6bf4568786f8d","508010.1999999285","918.6000000238419","77","1","arctic","","","","",""
"dual-task","null","null","null","","swim","arctic","485.10000002384186","","n","null","88","88","1","arctic-dual-task","","n","lowercase","522000","0","5","01d92d17ed0ea9d99d2bac6381808c7ee69318be66dd3daf29c6bf4568786f8d","522004","485.10000002384186","88","1","arctic","","","","",""
"dual-task","null","null","null","","swim","arctic","481","","Q","null","77","77","1","arctic-dual-task","","Q","uppercase","534000","0","5","01d92d17ed0ea9d99d2bac6381808c7ee69318be66dd3daf29c6bf4568786f8d","534008.0999999046","481","77","1","arctic","","","","",""
"dual-task","null","null","null","","swim","arctic","551.0999999046326","","T","null","77","77","1","arctic-dual-task","","T","uppercase","546000","0","5","01d92d17ed0ea9d99d2bac6381808c7ee69318be66dd3daf29c6bf4568786f8d","546002","551.0999999046326","77","1","arctic","","","","",""
"dual-task","null","null","null","","swim","arctic","551.3000000715256","","R","null","77","77","1","arctic-dual-task","","R","uppercase","560000","0","5","01d92d17ed0ea9d99d2bac6381808c7ee69318be66dd3daf29c6bf4568786f8d","560001.5999999046","551.3000000715256","77","1","arctic","","","","",""
"dual-task","null","null","null","","swim","arctic","452.09999990463257","","G","null","77","77","1","arctic-dual-task","","G","uppercase","574000","0","5","01d92d17ed0ea9d99d2bac6381808c7ee69318be66dd3daf29c6bf4568786f8d","574005","452.09999990463257","77","1","arctic","","","","",""
"dual-task","null","null","null","","swim","arctic","724.5","","D","null","77","77","1","arctic-dual-task","","D","uppercase","588000","0","5","01d92d17ed0ea9d99d2bac6381808c7ee69318be66dd3daf29c6bf4568786f8d","588012.3999999762","724.5","77","1","arctic","","","","",""
"dual-task","null","null","null","","swim","arctic","913.8000000715256","","g","null","88","88","1","arctic-dual-task","","g","lowercase","602000","0","5","01d92d17ed0ea9d99d2bac6381808c7ee69318be66dd3daf29c6bf4568786f8d","602015.0999999046","913.8000000715256","88","1","arctic","","","","",""
"dual-task","null","null","null","","swim","arctic","765.6000000238419","","f","null","88","88","1","arctic-dual-task","","f","lowercase","610000","0","5","01d92d17ed0ea9d99d2bac6381808c7ee69318be66dd3daf29c6bf4568786f8d","610010.7999999523","765.6000000238419","88","1","arctic","","","","",""
"dual-task","null","null","null","","swim","arctic","622.5","","T","null","77","77","1","arctic-dual-task","","T","uppercase","620000","0","5","01d92d17ed0ea9d99d2bac6381808c7ee69318be66dd3daf29c6bf4568786f8d","620002.1999999285","622.5","77","1","arctic","","","","",""
"dual-task","null","null","null","","swim","arctic","513.3999999761581","","q","null","88","88","1","arctic-dual-task","","q","lowercase","634000","0","5","01d92d17ed0ea9d99d2bac6381808c7ee69318be66dd3daf29c6bf4568786f8d","634015.1999999285","513.3999999761581","88","1","arctic","","","","",""
"dual-task","null","null","null","","swim","arctic","553.7000000476837","","D","null","77","77","1","arctic-dual-task","","D","uppercase","648000","0","5","01d92d17ed0ea9d99d2bac6381808c7ee69318be66dd3daf29c6bf4568786f8d","648007","553.7000000476837","77","1","arctic","","","","",""
"dual-task","null","null","null","","swim","arctic","502","","g","null","88","88","1","arctic-dual-task","","g","lowercase","656000","0","5","01d92d17ed0ea9d99d2bac6381808c7ee69318be66dd3daf29c6bf4568786f8d","656002.0999999046","502","88","1","arctic","","","","",""
"dual-task","null","null","null","","swim","arctic","603.6000000238419","","F","null","77","77","1","arctic-dual-task","","F","uppercase","668000","0","5","01d92d17ed0ea9d99d2bac6381808c7ee69318be66dd3daf29c6bf4568786f8d","668005.0999999046","603.6000000238419","77","1","arctic","","","","",""
"dual-task","null","null","null","","swim","arctic","557.2000000476837","","F","null","77","77","1","arctic-dual-task","","F","uppercase","676000","0","5","01d92d17ed0ea9d99d2bac6381808c7ee69318be66dd3daf29c6bf4568786f8d","676003.0999999046","557.2000000476837","77","1","arctic","","","","",""
"dual-task","null","null","null","","swim","arctic","605.8000000715256","","D","null","77","77","1","arctic-dual-task","","D","uppercase","690000","0","5","01d92d17ed0ea9d99d2bac6381808c7ee69318be66dd3daf29c6bf4568786f8d","690010.6999999285","605.8000000715256","77","1","arctic","","","","",""
"dual-task","null","null","null","","swim","arctic","867.7000000476837","","e","null","88","88","1","arctic-dual-task","","e","lowercase","700000","0","5","01d92d17ed0ea9d99d2bac6381808c7ee69318be66dd3daf29c6bf4568786f8d","700012.5999999046","867.7000000476837","88","1","arctic","","","","",""
"dual-task","null","null","null","","swim","arctic","464.6999999284744","","E","null","77","77","1","arctic-dual-task","","E","uppercase","708000","0","5","01d92d17ed0ea9d99d2bac6381808c7ee69318be66dd3daf29c6bf4568786f8d","708015.3999999762","464.6999999284744","77","1","arctic","","","","",""
"dual-task","null","null","null","","swim","arctic","753","","h","null","88","88","1","arctic-dual-task","","h","lowercase","720000","0","5","01d92d17ed0ea9d99d2bac6381808c7ee69318be66dd3daf29c6bf4568786f8d","720015.5","753","88","1","arctic","","","","",""
"dual-task","null","null","null","","swim","arctic","817.3000000715256","","E","null","88","77","0","arctic-dual-task","","E","uppercase","726000","0","5","01d92d17ed0ea9d99d2bac6381808c7ee69318be66dd3daf29c6bf4568786f8d","726006.6999999285","817.3000000715256","88","0","arctic","","","","",""
"dual-task","null","null","null","","swim","arctic","859.3999999761581","","q","null","88","88","1","arctic-dual-task","","q","lowercase","736000","0","5","01d92d17ed0ea9d99d2bac6381808c7ee69318be66dd3daf29c6bf4568786f8d","736005","859.3999999761581","88","1","arctic","","","","",""
"dual-task","null","null","null","","swim","arctic","537.7000000476837","","d","null","88","88","1","arctic-dual-task","","d","lowercase","746000","0","5","01d92d17ed0ea9d99d2bac6381808c7ee69318be66dd3daf29c6bf4568786f8d","746014.1999999285","537.7000000476837","88","1","arctic","","","","",""
"dual-task","null","null","null","","swim","arctic","578.2000000476837","","F","null","77","77","1","arctic-dual-task","","F","uppercase","758000","0","5","01d92d17ed0ea9d99d2bac6381808c7ee69318be66dd3daf29c6bf4568786f8d","758006.1999999285","578.2000000476837","77","1","arctic","","","","",""
"dual-task","null","null","null","","swim","arctic","1203.9000000953674","","d","null","88","88","1","arctic-dual-task","","d","lowercase","764000","0","5","01d92d17ed0ea9d99d2bac6381808c7ee69318be66dd3daf29c6bf4568786f8d","764004.0999999046","1203.9000000953674","88","1","arctic","","","","",""
"dual-task","null","null","null","","swim","arctic","507.89999997615814","","A","null","77","77","1","arctic-dual-task","","A","uppercase","774000","0","5","01d92d17ed0ea9d99d2bac6381808c7ee69318be66dd3daf29c6bf4568786f8d","774012.5","507.89999997615814","77","1","arctic","","","","",""
"dual-task","null","null","null","","swim","arctic","674.1999999284744","","T","null","77","77","1","arctic-dual-task","","T","uppercase","786000","0","5","01d92d17ed0ea9d99d2bac6381808c7ee69318be66dd3daf29c6bf4568786f8d","786006","674.1999999284744","77","1","arctic","","","","",""
"audio-keyboard-response","62","2477142","0.0-7.0-2.0-1.0","01d92d17ed0ea9d99d2bac6381808c7ee69318be66dd3daf29c6bf4568786f8d","swim","arctic","null","","audio/story_arctic_scrambled.mp3","","null","","","","","","","","","","","","","","","","","","","",""
"html-button-response","63","2481320","0.0-7.0-2.0-2.0","01d92d17ed0ea9d99d2bac6381808c7ee69318be66dd3daf29c6bf4568786f8d","swim","arctic","4177","","<p>This concludes the story. Thank you for listening.</p><p>You will now answer some questions about the content of the story.</p>","0","","","","","","","","","","","","","","","","","","","","",""
"survey-multi-choice","64","2490484","0.0-7.0-2.0-3.0-0.0","01d92d17ed0ea9d99d2bac6381808c7ee69318be66dd3daf29c6bf4568786f8d","swim","arctic","9162","","<b>How did the narrator&#39;s neighbour respond when she told him about her expedition?</b>","","","","1","arctic-comprehension","","","","","","","","","","","","","{""Q0"":""He said she was going to fail.""}","","","",""
"survey-multi-choice","65","2499058","0.0-7.0-2.0-3.0-0.1","01d92d17ed0ea9d99d2bac6381808c7ee69318be66dd3daf29c6bf4568786f8d","swim","arctic","8321","","<b>How did the dogs respond when they saw the bears?</b>","","","","1","arctic-comprehension","","","","","","","","","","","","","{""Q0"":""Approached them""}","","","",""
"survey-multi-choice","66","2507660","0.0-7.0-2.0-3.0-0.2","01d92d17ed0ea9d99d2bac6381808c7ee69318be66dd3daf29c6bf4568786f8d","swim","arctic","8345","","<b>How many sponsorships did the narrator receive to support her expedition?</b>","","","","1","arctic-comprehension","","","","","","","","","","","","","{""Q0"":""None""}","","","",""
"survey-multi-choice","67","2517658","0.0-7.0-2.0-3.0-0.3","01d92d17ed0ea9d99d2bac6381808c7ee69318be66dd3daf29c6bf4568786f8d","swim","arctic","9744","","<b>What were the weather conditions in the Arctic like the winter of the narrator&#39;s expedition?</b>","","","","1","arctic-comprehension","","","","","","","","","","","","","{""Q0"":""There were more storms than any other winter in recorded history.""}","","","",""
"survey-multi-choice","68","2526432","0.0-7.0-2.0-3.0-0.4","01d92d17ed0ea9d99d2bac6381808c7ee69318be66dd3daf29c6bf4568786f8d","swim","arctic","8522","","<b>What was the objective of the narrator&#39;s expedition?</b>","","","","0","arctic-comprehension","","","","","","","","","","","","","{""Q0"":""Dogsled across Greenland""}","","","",""
"survey-multi-choice","69","2536822","0.0-7.0-2.0-3.0-0.5","01d92d17ed0ea9d99d2bac6381808c7ee69318be66dd3daf29c6bf4568786f8d","swim","arctic","10139","","<b>What is the name of the narrator&#39;s neighbour?</b>","","","","1","arctic-comprehension","","","","","","","","","","","","","{""Q0"":""Dave""}","","","",""
"survey-multi-choice","70","2543296","0.0-7.0-2.0-3.0-0.6","01d92d17ed0ea9d99d2bac6381808c7ee69318be66dd3daf29c6bf4568786f8d","swim","arctic","6221","","<b>How did the narrator&#39;s encounter with the polar bears end?</b>","","","","1","arctic-comprehension","","","","","","","","","","","","","{""Q0"":""The bears walked back to their den.""}","","","",""
"survey-multi-choice","71","2547718","0.0-7.0-2.0-3.0-0.7","01d92d17ed0ea9d99d2bac6381808c7ee69318be66dd3daf29c6bf4568786f8d","swim","arctic","4169","","<b>Which dog on the narrator&#39;s dog team never followed instructions?</b>","","","","1","arctic-comprehension","","","","","","","","","","","","","{""Q0"":""Robert""}","","","",""
"survey-multi-choice","72","2557510","0.0-7.0-2.0-3.0-0.8","01d92d17ed0ea9d99d2bac6381808c7ee69318be66dd3daf29c6bf4568786f8d","swim","arctic","9539","","<b>How did the narrator prepare for her expedition?</b>","","","","0","arctic-comprehension","","","","","","","","","","","","","{""Q0"":""Practiced living on rations and taking cold showers""}","","","",""
"survey-multi-choice","73","2566364","0.0-7.0-2.0-3.0-0.9","01d92d17ed0ea9d99d2bac6381808c7ee69318be66dd3daf29c6bf4568786f8d","swim","arctic","8602","","<b>What did the narrator do for leisure while in her tent?</b>","","","","1","arctic-comprehension","","","","","","","","","","","","","{""Q0"":""Read""}","","","",""
"html-button-response","74","2568438","0.0-7.0-2.0-4.0","01d92d17ed0ea9d99d2bac6381808c7ee69318be66dd3daf29c6bf4568786f8d","swim","arctic","1822","","<p>Thank you for your responses.</p><p>You will now answer some questions about your impressions of the story.</p>","0","","","","","","","","","","","","","","","","","","","","",""
"html-button-response","75","2570410","0.0-7.0-2.0-5.0-0.0","01d92d17ed0ea9d99d2bac6381808c7ee69318be66dd3daf29c6bf4568786f8d","swim","arctic","1971","","E10","0","","","","arctic-engagement","","","","","","","","","","","","","","1","enjoyment","",""
"html-button-response","76","2572252","0.0-7.0-2.0-5.0-0.1","01d92d17ed0ea9d99d2bac6381808c7ee69318be66dd3daf29c6bf4568786f8d","swim","arctic","1591","","A4","0","","","","arctic-engagement","","","","","","","","","","","","","","1","absorption","",""
"html-button-response","77","2574662","0.0-7.0-2.0-5.0-0.2","01d92d17ed0ea9d99d2bac6381808c7ee69318be66dd3daf29c6bf4568786f8d","swim","arctic","2158","","A3","1","","","","arctic-engagement","","","","","","","","","","","","","","2","absorption","",""
"html-button-response","78","2577346","0.0-7.0-2.0-5.0-0.3","01d92d17ed0ea9d99d2bac6381808c7ee69318be66dd3daf29c6bf4568786f8d","swim","arctic","2432","","EE1","0","","","","arctic-engagement","","","","","","","","","","","","","","1","emo-engage","",""
"html-button-response","79","2580174","0.0-7.0-2.0-5.0-0.4","01d92d17ed0ea9d99d2bac6381808c7ee69318be66dd3daf29c6bf4568786f8d","swim","arctic","2577","","A2","1","","","","arctic-engagement","","","","","","","","","","","","","","2","absorption","",""
"html-button-response","80","2582706","0.0-7.0-2.0-5.0-0.5","01d92d17ed0ea9d99d2bac6381808c7ee69318be66dd3daf29c6bf4568786f8d","swim","arctic","2280","","E8","1","","","","arctic-engagement","","","","","","","","","","","","","","2","enjoyment","",""
"html-button-response","81","2586078","0.0-7.0-2.0-5.0-0.6","01d92d17ed0ea9d99d2bac6381808c7ee69318be66dd3daf29c6bf4568786f8d","swim","arctic","3119","","MS3","0","","","","arctic-engagement","","","","","","","","","","","","","","1","mental-sim","",""
"html-button-response","82","2588002","0.0-7.0-2.0-5.0-0.7","01d92d17ed0ea9d99d2bac6381808c7ee69318be66dd3daf29c6bf4568786f8d","swim","arctic","1671","","MS2","0","","","","arctic-engagement","","","","","","","","","","","","","","1","mental-sim","",""
"html-button-response","83","2588787","0.0-7.0-2.0-5.0-0.8","01d92d17ed0ea9d99d2bac6381808c7ee69318be66dd3daf29c6bf4568786f8d","swim","arctic","533","","EE5","1","","","","arctic-engagement","","","","","","","","","","","","","","2","emo-engage","",""
"html-button-response","84","2589924","0.0-7.0-2.0-5.0-0.9","01d92d17ed0ea9d99d2bac6381808c7ee69318be66dd3daf29c6bf4568786f8d","swim","arctic","886","","EE3","1","","","","arctic-engagement","","","","","","","","","","","","","","2","emo-engage","",""
"html-button-response","85","2593810","0.0-7.0-2.0-5.0-0.10","01d92d17ed0ea9d99d2bac6381808c7ee69318be66dd3daf29c6bf4568786f8d","swim","arctic","3634","","E7","2","","","","arctic-engagement","","","","","","","","","","","","","","3","enjoyment","",""
"html-button-response","86","2595588","0.0-7.0-2.0-5.0-0.11","01d92d17ed0ea9d99d2bac6381808c7ee69318be66dd3daf29c6bf4568786f8d","swim","arctic","1527","","EE2","1","","","","arctic-engagement","","","","","","","","","","","","","","2","emo-engage","",""
"html-button-response","87","2597670","0.0-7.0-2.0-5.0-0.12","01d92d17ed0ea9d99d2bac6381808c7ee69318be66dd3daf29c6bf4568786f8d","swim","arctic","1830","","EE4","1","","","","arctic-engagement","","","","","","","","","","","","","","2","emo-engage","",""
"html-button-response","88","2599850","0.0-7.0-2.0-5.0-0.13","01d92d17ed0ea9d99d2bac6381808c7ee69318be66dd3daf29c6bf4568786f8d","swim","arctic","1929","","E1","1","","","","arctic-engagement","","","","","","","","","","","","","","2","enjoyment","",""
"html-button-response","89","2602862","0.0-7.0-2.0-5.0-0.14","01d92d17ed0ea9d99d2bac6381808c7ee69318be66dd3daf29c6bf4568786f8d","swim","arctic","2759","","E6","2","","","","arctic-engagement","","","","","","","","","","","","","","3","enjoyment","",""
"html-button-response","90","2605770","0.0-7.0-2.0-5.0-0.15","01d92d17ed0ea9d99d2bac6381808c7ee69318be66dd3daf29c6bf4568786f8d","swim","arctic","2656","","A1","1","","","","arctic-engagement","","","","","","","","","","","","","","2","absorption","",""
"html-button-response","91","2608846","0.0-7.0-2.0-5.0-0.16","01d92d17ed0ea9d99d2bac6381808c7ee69318be66dd3daf29c6bf4568786f8d","swim","arctic","2824","","MS1","2","","","","arctic-engagement","","","","","","","","","","","","","","3","mental-sim","",""
"html-button-response","92","2612426","0.0-7.0-2.0-5.0-0.17","01d92d17ed0ea9d99d2bac6381808c7ee69318be66dd3daf29c6bf4568786f8d","swim","arctic","3329","","A5","0","","","","arctic-engagement","","","","","","","","","","","","","","1","absorption","",""
"html-button-response","93","2614068","0.0-8.0","01d92d17ed0ea9d99d2bac6381808c7ee69318be66dd3daf29c6bf4568786f8d","swim","arctic","1391","","<p>Thank you for your responses.</p><p>You will now answer some demographic, hearing, and general health questions.</p>","0","","","","","","","","","","","","","","","","","","","","",""
"survey-multi-choice","94","2617368","0.0-9.0-0.0","01d92d17ed0ea9d99d2bac6381808c7ee69318be66dd3daf29c6bf4568786f8d","swim","arctic","3298","","","","","","","survey","","","","","","","","","","","","","{""Q0"":""Chrome""}","","","browser",""
"survey-text","95","2620494","0.0-9.0-1.0","01d92d17ed0ea9d99d2bac6381808c7ee69318be66dd3daf29c6bf4568786f8d","swim","arctic","2873.7000000476837","","","","","","","survey","","","","","","","","","","","","","{""AGE"":""36""}","","","age","36"
"survey-multi-choice","96","2622560","0.0-9.0-2.0","01d92d17ed0ea9d99d2bac6381808c7ee69318be66dd3daf29c6bf4568786f8d","swim","arctic","1813","","","","","","","survey","","","","","","","","","","","","","{""Q0"":""Male""}","","","gender","Male"
"survey-multi-choice","97","2624956","0.0-9.0-4.0","01d92d17ed0ea9d99d2bac6381808c7ee69318be66dd3daf29c6bf4568786f8d","swim","arctic","2145","","","","","","","survey","","","","","","","","","","","","","{""Q0"":""Right""}","","","handedness","Right"
"survey-multi-choice","98","2626910","0.0-9.0-5.0","01d92d17ed0ea9d99d2bac6381808c7ee69318be66dd3daf29c6bf4568786f8d","swim","arctic","1702","","","","","","","survey","","","","","","","","","","","","","{""Q0"":""Bachelor's Degree""}","","","education","Bachelor's Degree"
"survey-text","99","2634470","0.0-10.0-0.0","01d92d17ed0ea9d99d2bac6381808c7ee69318be66dd3daf29c6bf4568786f8d","swim","arctic","7308.400000095367","","","","","","","survey","","","","","","","","","","","","","{""L1"":""english""}","","","first-language","english"
"survey-text","100","2637072","0.0-10.0-1.0","01d92d17ed0ea9d99d2bac6381808c7ee69318be66dd3daf29c6bf4568786f8d","swim","arctic","2347.2000000476837","","","","","","","survey","","","","","","","","","","","","","{""L2name"":"""",""L2fluency"":"""",""L3name"":"""",""L3fluency"":"""",""L4name"":"""",""L4fluency"":""""}","","","additional-languages","{""L2name"":"""",""L2fluency"":"""",""L3name"":"""",""L3fluency"":"""",""L4name"":"""",""L4fluency"":""""}"
"survey-multi-choice","101","2640244","0.0-10.0-2.0","01d92d17ed0ea9d99d2bac6381808c7ee69318be66dd3daf29c6bf4568786f8d","swim","arctic","2919","","","","","","","survey","","","","","","","","","","","","","{""Q0"":""No""}","","","hearing-aid","No"
"survey-multi-choice","102","2643352","0.0-10.0-3.0","01d92d17ed0ea9d99d2bac6381808c7ee69318be66dd3daf29c6bf4568786f8d","swim","arctic","2856","","","","","","","survey","","","","","","","","","","","","","{""Q0"":""Never""}","","","ringing-ears","Never"
"survey-multi-choice","103","2646068","0.0-10.0-5.0","01d92d17ed0ea9d99d2bac6381808c7ee69318be66dd3daf29c6bf4568786f8d","swim","arctic","2465","","","","","","","survey","","","","","","","","","","","","","{""Q0"":""No""}","","","neuro-disease","No"
"survey-multi-choice","104","2651644","0.0-10.0-7.0","01d92d17ed0ea9d99d2bac6381808c7ee69318be66dd3daf29c6bf4568786f8d","swim","arctic","5325","","","","","","","survey","","","","","","","","","","","","","{""Q0"":""Yes""}","","","take-meds","Yes"
"survey-text","105","2663062","0.0-10.0-8.0-0.0","01d92d17ed0ea9d99d2bac6381808c7ee69318be66dd3daf29c6bf4568786f8d","swim","arctic","11166.100000023842","","","","","","","survey","","","","","","","","","","","","","{""MED"":""Metoprolol, beta-blocker""}","","","take-meds-clarify","Metoprolol, beta-blocker"
"survey-text","106","2669126","0.0-10.0-9.0","01d92d17ed0ea9d99d2bac6381808c7ee69318be66dd3daf29c6bf4568786f8d","swim","arctic","5808.800000071526","","","","","","","survey","","","","","","","","","","","","","{""HC"":""""}","","","health-concerns",""
"html-button-response","107","2676986","0.0-11.0-0.0","01d92d17ed0ea9d99d2bac6381808c7ee69318be66dd3daf29c6bf4568786f8d","swim","arctic","7608","","<p>How would you describe your musical skills/experiences?</p>","5","","","","survey","","","","","","","","","","","","","","","","music-skill","6"
"survey-multi-choice","108","2684557","0.0-11.0-1.0","01d92d17ed0ea9d99d2bac6381808c7ee69318be66dd3daf29c6bf4568786f8d","swim","arctic","7320","","","","","","","survey","","","","","","","","","","","","","{""Q0"":""No""}","","","music-instrument","No"
"html-button-response","109","2690496","0.0-12.0-0.0","01d92d17ed0ea9d99d2bac6381808c7ee69318be66dd3daf29c6bf4568786f8d","swim","arctic","5686","","<p>How would you describe your general hearing abilities?</p>","5","","","","survey","","","","","","","","","","","","","","","","ssq-01","6"
"html-button-response","110","2696680","0.0-12.0-1.0","01d92d17ed0ea9d99d2bac6381808c7ee69318be66dd3daf29c6bf4568786f8d","swim","arctic","5923","","<p>When you talk with someone at a place that strongly reverberates/echoes (e.g., in a church or train station),</br>can you understand what the person says?</p>","8","","","","survey","","","","","","","","","","","","","","","","ssq-02","8"
"html-button-response","111","2701856","0.0-12.0-2.0","01d92d17ed0ea9d99d2bac6381808c7ee69318be66dd3daf29c6bf4568786f8d","swim","arctic","4925","","<p>When you are with a group (~5 people) in a lively restaurant, can you follow the group's conversation?</p>","9","","","","survey","","","","","","","","","","","","","","","","ssq-03","9"
"html-button-response","112","2707080","0.0-12.0-3.0","01d92d17ed0ea9d99d2bac6381808c7ee69318be66dd3daf29c6bf4568786f8d","swim","arctic","4972","","<p>Based on the sound of a bus or truck, can you tell whether it is moving towards or away from you?</p>","8","","","","survey","","","","","","","","","","","","","","","","ssq-04","8"
"html-button-response","113","2710140","0.0-12.0-4.0","01d92d17ed0ea9d99d2bac6381808c7ee69318be66dd3daf29c6bf4568786f8d","swim","arctic","2808","","<p>When you are in an unknown environment, can you tell from which direction a brief sound originates?</p>","7","","","","survey","","","","","","","","","","","","","","","","ssq-05","7"
"html-button-response","114","2712320","0.0-12.0-5.0","01d92d17ed0ea9d99d2bac6381808c7ee69318be66dd3daf29c6bf4568786f8d","swim","arctic","1928","","<p>Are you able to ignore distracting sounds when you concentrate on a specific aspect of your acoustic surrounding?</p>","8","","","","survey","","","","","","","","","","","","","","","","ssq-06","8"
"fullscreen","115","2713571","0.0-13.0","01d92d17ed0ea9d99d2bac6381808c7ee69318be66dd3daf29c6bf4568786f8d","swim","arctic","","","","","","","","","true","","","","","","","","","","","","","","","",""
