"trial_type","trial_index","time_elapsed","internal_node_id","ParticipantID","firstStory","scramStory","rt","url","stimulus","button_pressed","key_press","correctRESP","correct","designation","success","letterStim","letterType","ONSET","TIMEOUT","CONDITION","Participant","ONSET_ACTUAL","RT","RESP","ACC","STORY","responses","response","type","surveyQuestion","QRESP"
"pavlovia","0","1167","0.0-0.0","c73ce4bda9ae7dee5b4db865cb8e13b07b22f90f1a48a6d4c71e3d8e57a38bea","arctic","swim","","","","","","","","","","","","","","","","","","","","","","","","",""
"external-html","1","19540","0.0-1.0","c73ce4bda9ae7dee5b4db865cb8e13b07b22f90f1a48a6d4c71e3d8e57a38bea","arctic","swim","14858","consent/consent_updated.html","","","","","","","","","","","","","","","","","","","","","","",""
"html-button-response","2","21530","0.0-2.0-0.0","c73ce4bda9ae7dee5b4db865cb8e13b07b22f90f1a48a6d4c71e3d8e57a38bea","arctic","swim","1979","","<p>Before we begin the main task, you will complete a short volume calibration and headphone check.</p><p>Please make sure you are in a quiet listening environment, that you are wearing headphones, and that your computer's volume is turned on.<p></p>","0","","","","","","","","","","","","","","","","","","","","",""
"html-button-response","3","39151","0.0-2.0-1.0","c73ce4bda9ae7dee5b4db865cb8e13b07b22f90f1a48a6d4c71e3d8e57a38bea","arctic","swim","17367","","<p>The volume calibration will be first.</p><p>You will hear a thirty-second noise. Please adjust your computer's volume so that this noise is being presented at a comfortable level.<p></p>","0","","","","","","","","","","","","","","","","","","","","",""
"audio-button-response","4","49671","0.0-2.0-2.0","c73ce4bda9ae7dee5b4db865cb8e13b07b22f90f1a48a6d4c71e3d8e57a38bea","arctic","swim","10169","","audio/volumetest.mp3","0","","","","","","","","","","","","","","","","","","","","",""
"html-keyboard-response","5","53671","0.0-3.0-0.0","c73ce4bda9ae7dee5b4db865cb8e13b07b22f90f1a48a6d4c71e3d8e57a38bea","arctic","swim","3694","","<p>You will now complete a short headphone check.</p><p>On each trial, you will hear three tones. One of these tones will be quieter than the others. Your task is to identify whether the quiet tone occurred first, second, or third.</p><p>There are six trials in total.<p></p><p></p>(Press SPACEBAR to begin)","","32","","","","","","","","","","","","","","","","","","","",""
"html-keyboard-response","6","54421","0.0-3.0-1.0-0.0","c73ce4bda9ae7dee5b4db865cb8e13b07b22f90f1a48a6d4c71e3d8e57a38bea","arctic","swim","null","","<div style=""font-size:60px;"">+</div>","","null","","","","","","","","","","","","","","","","","","","",""
"audio-button-response","7","75904","0.0-3.0-1.0-1.0","c73ce4bda9ae7dee5b4db865cb8e13b07b22f90f1a48a6d4c71e3d8e57a38bea","arctic","swim","21478","","audio/t2_1.mp3","1","","1","1","headphone-test","","","","","","","","","","","","","","","","",""
"html-keyboard-response","8","76408","0.0-3.0-1.0-2.0","c73ce4bda9ae7dee5b4db865cb8e13b07b22f90f1a48a6d4c71e3d8e57a38bea","arctic","swim","null","","<p>Correct</p>","","null","","","","","","","","","","","","","","","","","","","",""
"html-keyboard-response","9","76909","0.0-3.0-1.0-0.1","c73ce4bda9ae7dee5b4db865cb8e13b07b22f90f1a48a6d4c71e3d8e57a38bea","arctic","swim","null","","<div style=""font-size:60px;"">+</div>","","null","","","","","","","","","","","","","","","","","","","",""
"audio-button-response","10","82436","0.0-3.0-1.0-1.1","c73ce4bda9ae7dee5b4db865cb8e13b07b22f90f1a48a6d4c71e3d8e57a38bea","arctic","swim","5514","","audio/t2_2.mp3","1","","1","1","headphone-test","","","","","","","","","","","","","","","","",""
"html-keyboard-response","11","82938","0.0-3.0-1.0-2.1","c73ce4bda9ae7dee5b4db865cb8e13b07b22f90f1a48a6d4c71e3d8e57a38bea","arctic","swim","null","","<p>Correct</p>","","null","","","","","","","","","","","","","","","","","","","",""
"html-keyboard-response","12","83438","0.0-3.0-1.0-0.2","c73ce4bda9ae7dee5b4db865cb8e13b07b22f90f1a48a6d4c71e3d8e57a38bea","arctic","swim","null","","<div style=""font-size:60px;"">+</div>","","null","","","","","","","","","","","","","","","","","","","",""
"audio-button-response","13","89898","0.0-3.0-1.0-1.2","c73ce4bda9ae7dee5b4db865cb8e13b07b22f90f1a48a6d4c71e3d8e57a38bea","arctic","swim","6457","","audio/t3_2.mp3","2","","2","1","headphone-test","","","","","","","","","","","","","","","","",""
"html-keyboard-response","14","90401","0.0-3.0-1.0-2.2","c73ce4bda9ae7dee5b4db865cb8e13b07b22f90f1a48a6d4c71e3d8e57a38bea","arctic","swim","null","","<p>Correct</p>","","null","","","","","","","","","","","","","","","","","","","",""
"html-keyboard-response","15","90903","0.0-3.0-1.0-0.3","c73ce4bda9ae7dee5b4db865cb8e13b07b22f90f1a48a6d4c71e3d8e57a38bea","arctic","swim","null","","<div style=""font-size:60px;"">+</div>","","null","","","","","","","","","","","","","","","","","","","",""
"audio-button-response","16","95905","0.0-3.0-1.0-1.3","c73ce4bda9ae7dee5b4db865cb8e13b07b22f90f1a48a6d4c71e3d8e57a38bea","arctic","swim","4999","","audio/t1_2.mp3","0","","0","1","headphone-test","","","","","","","","","","","","","","","","",""
"html-keyboard-response","17","96408","0.0-3.0-1.0-2.3","c73ce4bda9ae7dee5b4db865cb8e13b07b22f90f1a48a6d4c71e3d8e57a38bea","arctic","swim","null","","<p>Correct</p>","","null","","","","","","","","","","","","","","","","","","","",""
"html-keyboard-response","18","96909","0.0-3.0-1.0-0.4","c73ce4bda9ae7dee5b4db865cb8e13b07b22f90f1a48a6d4c71e3d8e57a38bea","arctic","swim","null","","<div style=""font-size:60px;"">+</div>","","null","","","","","","","","","","","","","","","","","","","",""
"audio-button-response","19","101554","0.0-3.0-1.0-1.4","c73ce4bda9ae7dee5b4db865cb8e13b07b22f90f1a48a6d4c71e3d8e57a38bea","arctic","swim","4643","","audio/t3_1.mp3","2","","2","1","headphone-test","","","","","","","","","","","","","","","","",""
"html-keyboard-response","20","102059","0.0-3.0-1.0-2.4","c73ce4bda9ae7dee5b4db865cb8e13b07b22f90f1a48a6d4c71e3d8e57a38bea","arctic","swim","null","","<p>Correct</p>","","null","","","","","","","","","","","","","","","","","","","",""
"html-keyboard-response","21","102560","0.0-3.0-1.0-0.5","c73ce4bda9ae7dee5b4db865cb8e13b07b22f90f1a48a6d4c71e3d8e57a38bea","arctic","swim","null","","<div style=""font-size:60px;"">+</div>","","null","","","","","","","","","","","","","","","","","","","",""
"audio-button-response","22","107809","0.0-3.0-1.0-1.5","c73ce4bda9ae7dee5b4db865cb8e13b07b22f90f1a48a6d4c71e3d8e57a38bea","arctic","swim","5246","","audio/t1_1.mp3","0","","0","1","headphone-test","","","","","","","","","","","","","","","","",""
"html-keyboard-response","23","108311","0.0-3.0-1.0-2.5","c73ce4bda9ae7dee5b4db865cb8e13b07b22f90f1a48a6d4c71e3d8e57a38bea","arctic","swim","null","","<p>Correct</p>","","null","","","","","","","","","","","","","","","","","","","",""
"fullscreen","24","111028","0.0-4.0","c73ce4bda9ae7dee5b4db865cb8e13b07b22f90f1a48a6d4c71e3d8e57a38bea","arctic","swim","","","","","","","","","true","","","","","","","","","","","","","","","",""
"html-button-response","25","116467","0.0-5.0-0.0","c73ce4bda9ae7dee5b4db865cb8e13b07b22f90f1a48a6d4c71e3d8e57a38bea","arctic","swim","5437","","<p>There are two blocks to this experiment.</p><p>In each block, you will hear a ~13.5 minute story. One of the stories will be scrambled. Please listen carefully to both stories and understand them as best you can.</p><p>After each story, you will be asked some questions to assess your comprehension.</p>","0","","","","","","","","","","","","","","","","","","","","",""
"html-button-response","26","122907","0.0-5.0-1.0","c73ce4bda9ae7dee5b4db865cb8e13b07b22f90f1a48a6d4c71e3d8e57a38bea","arctic","swim","6440","","<p>During each story, there will be an additional task.</p><p>A letter will occasionally appear on the screen.</br>Your job is to - as quickly as you can - decide whether the letter is lowercase or uppercase and press one of two keys on the keyboard:</p><p>If the letter is <b>lowercase</b>, press key &lt;<b>x</b>&gt;.</p><p>If the letter is <b>uppercase</b>, press key &lt;<b>m</b>&gt;.</p>","0","","","","","","","","","","","","","","","","","","","","",""
"html-keyboard-response","27","127476","0.0-5.0-2.0","c73ce4bda9ae7dee5b4db865cb8e13b07b22f90f1a48a6d4c71e3d8e57a38bea","arctic","swim","4566","","<p>Because we want your responses to be as quick as possible, please keep your index fingers over the keys while listening.</p><p>Each block lasts about 20 minutes.</p><p><b>Press &lt;x&gt; or &lt;m&gt; to start the first block!</b></p>","","88","","","","","","","","","","","","","","","","","","","",""
"html-keyboard-response","28","127977","0.0-6.0-0.0-0.0","c73ce4bda9ae7dee5b4db865cb8e13b07b22f90f1a48a6d4c71e3d8e57a38bea","arctic","swim","null","","<div style=""font-size:60px;"" tabindex=""0"">+</div>","","null","","","","","","","","","","","","","","","","","","","",""
"dual-task","null","null","null","","arctic","swim","NA","","t","null","NA","88","0","arctic-dual-task","","t","lowercase","10000","1","1","c73ce4bda9ae7dee5b4db865cb8e13b07b22f90f1a48a6d4c71e3d8e57a38bea","10000","NA","NA","0","arctic","","","","",""
"dual-task","null","null","null","","arctic","swim","687","","F","null","77","77","1","arctic-dual-task","","F","uppercase","24000","0","1","c73ce4bda9ae7dee5b4db865cb8e13b07b22f90f1a48a6d4c71e3d8e57a38bea","23999","687","77","1","arctic","","","","",""
"dual-task","null","null","null","","arctic","swim","664","","n","null","88","88","1","arctic-dual-task","","n","lowercase","34000","0","1","c73ce4bda9ae7dee5b4db865cb8e13b07b22f90f1a48a6d4c71e3d8e57a38bea","34000","664","88","1","arctic","","","","",""
"dual-task","null","null","null","","arctic","swim","720","","q","null","77","88","0","arctic-dual-task","","q","lowercase","44000","0","1","c73ce4bda9ae7dee5b4db865cb8e13b07b22f90f1a48a6d4c71e3d8e57a38bea","44000","720","77","0","arctic","","","","",""
"dual-task","null","null","null","","arctic","swim","617","","f","null","88","88","1","arctic-dual-task","","f","lowercase","56000","0","1","c73ce4bda9ae7dee5b4db865cb8e13b07b22f90f1a48a6d4c71e3d8e57a38bea","56045","617","88","1","arctic","","","","",""
"dual-task","null","null","null","","arctic","swim","745","","R","null","77","77","1","arctic-dual-task","","R","uppercase","64000","0","1","c73ce4bda9ae7dee5b4db865cb8e13b07b22f90f1a48a6d4c71e3d8e57a38bea","63999","745","77","1","arctic","","","","",""
"dual-task","null","null","null","","arctic","swim","732","","F","null","88","77","0","arctic-dual-task","","F","uppercase","76000","0","1","c73ce4bda9ae7dee5b4db865cb8e13b07b22f90f1a48a6d4c71e3d8e57a38bea","75998","732","88","0","arctic","","","","",""
"dual-task","null","null","null","","arctic","swim","883","","T","null","77","77","1","arctic-dual-task","","T","uppercase","86000","0","1","c73ce4bda9ae7dee5b4db865cb8e13b07b22f90f1a48a6d4c71e3d8e57a38bea","85999","883","77","1","arctic","","","","",""
"dual-task","null","null","null","","arctic","swim","824","","D","null","77","77","1","arctic-dual-task","","D","uppercase","100000","0","1","c73ce4bda9ae7dee5b4db865cb8e13b07b22f90f1a48a6d4c71e3d8e57a38bea","99999","824","77","1","arctic","","","","",""
"dual-task","null","null","null","","arctic","swim","712","","t","null","88","88","1","arctic-dual-task","","t","lowercase","110000","0","1","c73ce4bda9ae7dee5b4db865cb8e13b07b22f90f1a48a6d4c71e3d8e57a38bea","109999","712","88","1","arctic","","","","",""
"dual-task","null","null","null","","arctic","swim","709","","B","null","77","77","1","arctic-dual-task","","B","uppercase","122000","0","1","c73ce4bda9ae7dee5b4db865cb8e13b07b22f90f1a48a6d4c71e3d8e57a38bea","122006","709","77","1","arctic","","","","",""
"dual-task","null","null","null","","arctic","swim","933","","F","null","77","77","1","arctic-dual-task","","F","uppercase","128000","0","1","c73ce4bda9ae7dee5b4db865cb8e13b07b22f90f1a48a6d4c71e3d8e57a38bea","128014","933","77","1","arctic","","","","",""
"dual-task","null","null","null","","arctic","swim","741","","G","null","77","77","1","arctic-dual-task","","G","uppercase","140000","0","1","c73ce4bda9ae7dee5b4db865cb8e13b07b22f90f1a48a6d4c71e3d8e57a38bea","140028","741","77","1","arctic","","","","",""
"dual-task","null","null","null","","arctic","swim","755","","h","null","88","88","1","arctic-dual-task","","h","lowercase","152000","0","1","c73ce4bda9ae7dee5b4db865cb8e13b07b22f90f1a48a6d4c71e3d8e57a38bea","152000","755","88","1","arctic","","","","",""
"dual-task","null","null","null","","arctic","swim","763","","q","null","88","88","1","arctic-dual-task","","q","lowercase","160000","0","1","c73ce4bda9ae7dee5b4db865cb8e13b07b22f90f1a48a6d4c71e3d8e57a38bea","160045","763","88","1","arctic","","","","",""
"dual-task","null","null","null","","arctic","swim","666","","G","null","77","77","1","arctic-dual-task","","G","uppercase","172000","0","1","c73ce4bda9ae7dee5b4db865cb8e13b07b22f90f1a48a6d4c71e3d8e57a38bea","171999","666","77","1","arctic","","","","",""
"dual-task","null","null","null","","arctic","swim","696","","g","null","88","88","1","arctic-dual-task","","g","lowercase","180000","0","1","c73ce4bda9ae7dee5b4db865cb8e13b07b22f90f1a48a6d4c71e3d8e57a38bea","180102","696","88","1","arctic","","","","",""
"dual-task","null","null","null","","arctic","swim","789","","Q","null","77","77","1","arctic-dual-task","","Q","uppercase","188000","0","1","c73ce4bda9ae7dee5b4db865cb8e13b07b22f90f1a48a6d4c71e3d8e57a38bea","187998","789","77","1","arctic","","","","",""
"dual-task","null","null","null","","arctic","swim","1831","","e","null","88","88","1","arctic-dual-task","","e","lowercase","196000","0","1","c73ce4bda9ae7dee5b4db865cb8e13b07b22f90f1a48a6d4c71e3d8e57a38bea","195999","1831","88","1","arctic","","","","",""
"dual-task","null","null","null","","arctic","swim","1058","","n","null","88","88","1","arctic-dual-task","","n","lowercase","208000","0","1","c73ce4bda9ae7dee5b4db865cb8e13b07b22f90f1a48a6d4c71e3d8e57a38bea","207999","1058","88","1","arctic","","","","",""
"dual-task","null","null","null","","arctic","swim","1047","","H","null","77","77","1","arctic-dual-task","","H","uppercase","218000","0","1","c73ce4bda9ae7dee5b4db865cb8e13b07b22f90f1a48a6d4c71e3d8e57a38bea","217998","1047","77","1","arctic","","","","",""
"dual-task","null","null","null","","arctic","swim","NA","","A","null","NA","77","0","arctic-dual-task","","A","uppercase","228000","1","1","c73ce4bda9ae7dee5b4db865cb8e13b07b22f90f1a48a6d4c71e3d8e57a38bea","228000","NA","NA","0","arctic","","","","",""
"dual-task","null","null","null","","arctic","swim","1731","","e","null","88","88","1","arctic-dual-task","","e","lowercase","242000","0","1","c73ce4bda9ae7dee5b4db865cb8e13b07b22f90f1a48a6d4c71e3d8e57a38bea","242001","1731","88","1","arctic","","","","",""
"dual-task","null","null","null","","arctic","swim","881","","G","null","77","77","1","arctic-dual-task","","G","uppercase","254000","0","1","c73ce4bda9ae7dee5b4db865cb8e13b07b22f90f1a48a6d4c71e3d8e57a38bea","254022","881","77","1","arctic","","","","",""
"dual-task","null","null","null","","arctic","swim","1049","","D","null","77","77","1","arctic-dual-task","","D","uppercase","260000","0","1","c73ce4bda9ae7dee5b4db865cb8e13b07b22f90f1a48a6d4c71e3d8e57a38bea","259999","1049","77","1","arctic","","","","",""
"dual-task","null","null","null","","arctic","swim","1309","","f","null","88","88","1","arctic-dual-task","","f","lowercase","270000","0","1","c73ce4bda9ae7dee5b4db865cb8e13b07b22f90f1a48a6d4c71e3d8e57a38bea","269999","1309","88","1","arctic","","","","",""
"dual-task","null","null","null","","arctic","swim","1311","","Q","null","77","77","1","arctic-dual-task","","Q","uppercase","282000","0","1","c73ce4bda9ae7dee5b4db865cb8e13b07b22f90f1a48a6d4c71e3d8e57a38bea","281999","1311","77","1","arctic","","","","",""
"dual-task","null","null","null","","arctic","swim","NA","","Q","null","NA","77","0","arctic-dual-task","","Q","uppercase","290000","1","1","c73ce4bda9ae7dee5b4db865cb8e13b07b22f90f1a48a6d4c71e3d8e57a38bea","289999","NA","NA","0","arctic","","","","",""
"dual-task","null","null","null","","arctic","swim","NA","","f","null","NA","88","0","arctic-dual-task","","f","lowercase","300000","1","1","c73ce4bda9ae7dee5b4db865cb8e13b07b22f90f1a48a6d4c71e3d8e57a38bea","300000","NA","NA","0","arctic","","","","",""
"dual-task","null","null","null","","arctic","swim","1601","","e","null","88","88","1","arctic-dual-task","","e","lowercase","312000","0","1","c73ce4bda9ae7dee5b4db865cb8e13b07b22f90f1a48a6d4c71e3d8e57a38bea","311999","1601","88","1","arctic","","","","",""
"dual-task","null","null","null","","arctic","swim","1455","","n","null","88","88","1","arctic-dual-task","","n","lowercase","320000","0","1","c73ce4bda9ae7dee5b4db865cb8e13b07b22f90f1a48a6d4c71e3d8e57a38bea","320085","1455","88","1","arctic","","","","",""
"dual-task","null","null","null","","arctic","swim","1828","","d","null","88","88","1","arctic-dual-task","","d","lowercase","332000","0","1","c73ce4bda9ae7dee5b4db865cb8e13b07b22f90f1a48a6d4c71e3d8e57a38bea","332000","1828","88","1","arctic","","","","",""
"dual-task","null","null","null","","arctic","swim","1186","","r","null","88","88","1","arctic-dual-task","","r","lowercase","340000","0","1","c73ce4bda9ae7dee5b4db865cb8e13b07b22f90f1a48a6d4c71e3d8e57a38bea","339999","1186","88","1","arctic","","","","",""
"dual-task","null","null","null","","arctic","swim","886","","A","null","77","77","1","arctic-dual-task","","A","uppercase","352000","0","1","c73ce4bda9ae7dee5b4db865cb8e13b07b22f90f1a48a6d4c71e3d8e57a38bea","352005","886","77","1","arctic","","","","",""
"dual-task","null","null","null","","arctic","swim","895","","D","null","77","77","1","arctic-dual-task","","D","uppercase","360000","0","1","c73ce4bda9ae7dee5b4db865cb8e13b07b22f90f1a48a6d4c71e3d8e57a38bea","360000","895","77","1","arctic","","","","",""
"dual-task","null","null","null","","arctic","swim","1200","","d","null","88","88","1","arctic-dual-task","","d","lowercase","368000","0","1","c73ce4bda9ae7dee5b4db865cb8e13b07b22f90f1a48a6d4c71e3d8e57a38bea","368000","1200","88","1","arctic","","","","",""
"dual-task","null","null","null","","arctic","swim","1137","","b","null","88","88","1","arctic-dual-task","","b","lowercase","382000","0","1","c73ce4bda9ae7dee5b4db865cb8e13b07b22f90f1a48a6d4c71e3d8e57a38bea","382000","1137","88","1","arctic","","","","",""
"dual-task","null","null","null","","arctic","swim","1718","","q","null","88","88","1","arctic-dual-task","","q","lowercase","396000","0","1","c73ce4bda9ae7dee5b4db865cb8e13b07b22f90f1a48a6d4c71e3d8e57a38bea","396076","1718","88","1","arctic","","","","",""
"dual-task","null","null","null","","arctic","swim","1332","","g","null","88","88","1","arctic-dual-task","","g","lowercase","406000","0","1","c73ce4bda9ae7dee5b4db865cb8e13b07b22f90f1a48a6d4c71e3d8e57a38bea","406000","1332","88","1","arctic","","","","",""
"dual-task","null","null","null","","arctic","swim","1045","","D","null","77","77","1","arctic-dual-task","","D","uppercase","414000","0","1","c73ce4bda9ae7dee5b4db865cb8e13b07b22f90f1a48a6d4c71e3d8e57a38bea","414000","1045","77","1","arctic","","","","",""
"dual-task","null","null","null","","arctic","swim","983","","g","null","88","88","1","arctic-dual-task","","g","lowercase","422000","0","1","c73ce4bda9ae7dee5b4db865cb8e13b07b22f90f1a48a6d4c71e3d8e57a38bea","422000","983","88","1","arctic","","","","",""
"dual-task","null","null","null","","arctic","swim","1230","","N","null","77","77","1","arctic-dual-task","","N","uppercase","432000","0","1","c73ce4bda9ae7dee5b4db865cb8e13b07b22f90f1a48a6d4c71e3d8e57a38bea","432000","1230","77","1","arctic","","","","",""
"dual-task","null","null","null","","arctic","swim","1004","","N","null","77","77","1","arctic-dual-task","","N","uppercase","440000","0","1","c73ce4bda9ae7dee5b4db865cb8e13b07b22f90f1a48a6d4c71e3d8e57a38bea","440000","1004","77","1","arctic","","","","",""
"dual-task","null","null","null","","arctic","swim","1366","","a","null","88","88","1","arctic-dual-task","","a","lowercase","454000","0","1","c73ce4bda9ae7dee5b4db865cb8e13b07b22f90f1a48a6d4c71e3d8e57a38bea","454000","1366","88","1","arctic","","","","",""
"dual-task","null","null","null","","arctic","swim","1004","","e","null","88","88","1","arctic-dual-task","","e","lowercase","462000","0","1","c73ce4bda9ae7dee5b4db865cb8e13b07b22f90f1a48a6d4c71e3d8e57a38bea","461999","1004","88","1","arctic","","","","",""
"dual-task","null","null","null","","arctic","swim","1088","","A","null","77","77","1","arctic-dual-task","","A","uppercase","472000","0","1","c73ce4bda9ae7dee5b4db865cb8e13b07b22f90f1a48a6d4c71e3d8e57a38bea","472000","1088","77","1","arctic","","","","",""
"dual-task","null","null","null","","arctic","swim","990","","b","null","88","88","1","arctic-dual-task","","b","lowercase","480000","0","1","c73ce4bda9ae7dee5b4db865cb8e13b07b22f90f1a48a6d4c71e3d8e57a38bea","480000","990","88","1","arctic","","","","",""
"dual-task","null","null","null","","arctic","swim","1038","","H","null","77","77","1","arctic-dual-task","","H","uppercase","486000","0","1","c73ce4bda9ae7dee5b4db865cb8e13b07b22f90f1a48a6d4c71e3d8e57a38bea","485999","1038","77","1","arctic","","","","",""
"dual-task","null","null","null","","arctic","swim","1228","","T","null","77","77","1","arctic-dual-task","","T","uppercase","496000","0","1","c73ce4bda9ae7dee5b4db865cb8e13b07b22f90f1a48a6d4c71e3d8e57a38bea","495999","1228","77","1","arctic","","","","",""
"dual-task","null","null","null","","arctic","swim","1087","","b","null","88","88","1","arctic-dual-task","","b","lowercase","508000","0","1","c73ce4bda9ae7dee5b4db865cb8e13b07b22f90f1a48a6d4c71e3d8e57a38bea","508000","1087","88","1","arctic","","","","",""
"dual-task","null","null","null","","arctic","swim","1918","","q","null","88","88","1","arctic-dual-task","","q","lowercase","514000","0","1","c73ce4bda9ae7dee5b4db865cb8e13b07b22f90f1a48a6d4c71e3d8e57a38bea","514000","1918","88","1","arctic","","","","",""
"dual-task","null","null","null","","arctic","swim","1134","","N","null","77","77","1","arctic-dual-task","","N","uppercase","520000","0","1","c73ce4bda9ae7dee5b4db865cb8e13b07b22f90f1a48a6d4c71e3d8e57a38bea","520000","1134","77","1","arctic","","","","",""
"dual-task","null","null","null","","arctic","swim","1672","","R","null","77","77","1","arctic-dual-task","","R","uppercase","530000","0","1","c73ce4bda9ae7dee5b4db865cb8e13b07b22f90f1a48a6d4c71e3d8e57a38bea","530231","1672","77","1","arctic","","","","",""
"dual-task","null","null","null","","arctic","swim","1677","","a","null","88","88","1","arctic-dual-task","","a","lowercase","542000","0","1","c73ce4bda9ae7dee5b4db865cb8e13b07b22f90f1a48a6d4c71e3d8e57a38bea","542232","1677","88","1","arctic","","","","",""
"dual-task","null","null","null","","arctic","swim","1425","","Q","null","77","77","1","arctic-dual-task","","Q","uppercase","554000","0","1","c73ce4bda9ae7dee5b4db865cb8e13b07b22f90f1a48a6d4c71e3d8e57a38bea","554000","1425","77","1","arctic","","","","",""
"dual-task","null","null","null","","arctic","swim","1061","","G","null","77","77","1","arctic-dual-task","","G","uppercase","562000","0","1","c73ce4bda9ae7dee5b4db865cb8e13b07b22f90f1a48a6d4c71e3d8e57a38bea","562062","1061","77","1","arctic","","","","",""
"dual-task","null","null","null","","arctic","swim","1585","","r","null","88","88","1","arctic-dual-task","","r","lowercase","570000","0","1","c73ce4bda9ae7dee5b4db865cb8e13b07b22f90f1a48a6d4c71e3d8e57a38bea","570002","1585","88","1","arctic","","","","",""
"dual-task","null","null","null","","arctic","swim","1177","","B","null","77","77","1","arctic-dual-task","","B","uppercase","578000","0","1","c73ce4bda9ae7dee5b4db865cb8e13b07b22f90f1a48a6d4c71e3d8e57a38bea","578001","1177","77","1","arctic","","","","",""
"dual-task","null","null","null","","arctic","swim","1028","","a","null","88","88","1","arctic-dual-task","","a","lowercase","586000","0","1","c73ce4bda9ae7dee5b4db865cb8e13b07b22f90f1a48a6d4c71e3d8e57a38bea","586001","1028","88","1","arctic","","","","",""
"dual-task","null","null","null","","arctic","swim","1183","","a","null","88","88","1","arctic-dual-task","","a","lowercase","594000","0","1","c73ce4bda9ae7dee5b4db865cb8e13b07b22f90f1a48a6d4c71e3d8e57a38bea","594001","1183","88","1","arctic","","","","",""
"dual-task","null","null","null","","arctic","swim","1128","","B","null","77","77","1","arctic-dual-task","","B","uppercase","608000","0","1","c73ce4bda9ae7dee5b4db865cb8e13b07b22f90f1a48a6d4c71e3d8e57a38bea","608001","1128","77","1","arctic","","","","",""
"dual-task","null","null","null","","arctic","swim","1039","","t","null","88","88","1","arctic-dual-task","","t","lowercase","618000","0","1","c73ce4bda9ae7dee5b4db865cb8e13b07b22f90f1a48a6d4c71e3d8e57a38bea","618000","1039","88","1","arctic","","","","",""
"dual-task","null","null","null","","arctic","swim","1555","","H","null","77","77","1","arctic-dual-task","","H","uppercase","626000","0","1","c73ce4bda9ae7dee5b4db865cb8e13b07b22f90f1a48a6d4c71e3d8e57a38bea","626001","1555","77","1","arctic","","","","",""
"dual-task","null","null","null","","arctic","swim","1195","","g","null","88","88","1","arctic-dual-task","","g","lowercase","638000","0","1","c73ce4bda9ae7dee5b4db865cb8e13b07b22f90f1a48a6d4c71e3d8e57a38bea","638001","1195","88","1","arctic","","","","",""
"dual-task","null","null","null","","arctic","swim","1122","","E","null","77","77","1","arctic-dual-task","","E","uppercase","646000","0","1","c73ce4bda9ae7dee5b4db865cb8e13b07b22f90f1a48a6d4c71e3d8e57a38bea","646001","1122","77","1","arctic","","","","",""
"dual-task","null","null","null","","arctic","swim","1468","","E","null","77","77","1","arctic-dual-task","","E","uppercase","658000","0","1","c73ce4bda9ae7dee5b4db865cb8e13b07b22f90f1a48a6d4c71e3d8e57a38bea","658001","1468","77","1","arctic","","","","",""
"dual-task","null","null","null","","arctic","swim","1137","","b","null","88","88","1","arctic-dual-task","","b","lowercase","670000","0","1","c73ce4bda9ae7dee5b4db865cb8e13b07b22f90f1a48a6d4c71e3d8e57a38bea","670001","1137","88","1","arctic","","","","",""
"dual-task","null","null","null","","arctic","swim","NA","","r","null","NA","88","0","arctic-dual-task","","r","lowercase","680000","1","1","c73ce4bda9ae7dee5b4db865cb8e13b07b22f90f1a48a6d4c71e3d8e57a38bea","680001","NA","NA","0","arctic","","","","",""
"dual-task","null","null","null","","arctic","swim","1208","","h","null","88","88","1","arctic-dual-task","","h","lowercase","688000","0","1","c73ce4bda9ae7dee5b4db865cb8e13b07b22f90f1a48a6d4c71e3d8e57a38bea","688001","1208","88","1","arctic","","","","",""
"dual-task","null","null","null","","arctic","swim","1210","","h","null","88","88","1","arctic-dual-task","","h","lowercase","702000","0","1","c73ce4bda9ae7dee5b4db865cb8e13b07b22f90f1a48a6d4c71e3d8e57a38bea","702001","1210","88","1","arctic","","","","",""
"dual-task","null","null","null","","arctic","swim","1121","","H","null","77","77","1","arctic-dual-task","","H","uppercase","716000","0","1","c73ce4bda9ae7dee5b4db865cb8e13b07b22f90f1a48a6d4c71e3d8e57a38bea","716001","1121","77","1","arctic","","","","",""
"dual-task","null","null","null","","arctic","swim","1369","","R","null","77","77","1","arctic-dual-task","","R","uppercase","724000","0","1","c73ce4bda9ae7dee5b4db865cb8e13b07b22f90f1a48a6d4c71e3d8e57a38bea","724001","1369","77","1","arctic","","","","",""
"dual-task","null","null","null","","arctic","swim","1460","","A","null","77","77","1","arctic-dual-task","","A","uppercase","734000","0","1","c73ce4bda9ae7dee5b4db865cb8e13b07b22f90f1a48a6d4c71e3d8e57a38bea","734001","1460","77","1","arctic","","","","",""
"dual-task","null","null","null","","arctic","swim","1007","","T","null","77","77","1","arctic-dual-task","","T","uppercase","744000","0","1","c73ce4bda9ae7dee5b4db865cb8e13b07b22f90f1a48a6d4c71e3d8e57a38bea","744000","1007","77","1","arctic","","","","",""
"dual-task","null","null","null","","arctic","swim","1954","","d","null","88","88","1","arctic-dual-task","","d","lowercase","754000","0","1","c73ce4bda9ae7dee5b4db865cb8e13b07b22f90f1a48a6d4c71e3d8e57a38bea","754001","1954","88","1","arctic","","","","",""
"dual-task","null","null","null","","arctic","swim","1493","","n","null","88","88","1","arctic-dual-task","","n","lowercase","766000","0","1","c73ce4bda9ae7dee5b4db865cb8e13b07b22f90f1a48a6d4c71e3d8e57a38bea","766001","1493","88","1","arctic","","","","",""
"dual-task","null","null","null","","arctic","swim","684","","t","null","88","88","1","arctic-dual-task","","t","lowercase","778000","0","1","c73ce4bda9ae7dee5b4db865cb8e13b07b22f90f1a48a6d4c71e3d8e57a38bea","778000","684","88","1","arctic","","","","",""
"dual-task","null","null","null","","arctic","swim","935","","R","null","77","77","1","arctic-dual-task","","R","uppercase","788000","0","1","c73ce4bda9ae7dee5b4db865cb8e13b07b22f90f1a48a6d4c71e3d8e57a38bea","788000","935","77","1","arctic","","","","",""
"audio-keyboard-response","29","926049","0.0-6.0-0.0-1.0","c73ce4bda9ae7dee5b4db865cb8e13b07b22f90f1a48a6d4c71e3d8e57a38bea","arctic","swim","null","","audio/story_arctic.mp3","","null","","","","","","","","","","","","","","","","","","","",""
"html-button-response","30","1013098","0.0-6.0-0.0-2.0","c73ce4bda9ae7dee5b4db865cb8e13b07b22f90f1a48a6d4c71e3d8e57a38bea","arctic","swim","87047","","<p>This concludes the story. Thank you for listening.</p><p>You will now answer some questions about the content of the story.</p>","0","","","","","","","","","","","","","","","","","","","","",""
"survey-multi-choice","31","1026722","0.0-6.0-0.0-3.0-0.0","c73ce4bda9ae7dee5b4db865cb8e13b07b22f90f1a48a6d4c71e3d8e57a38bea","arctic","swim","13609","","<b>What was the objective of the narrator&#39;s expedition?</b>","","","","1","arctic-comprehension","","","","","","","","","","","","","{""Q0"":""Dogsled across Arctic America""}","","","",""
"survey-multi-choice","32","1036723","0.0-6.0-0.0-3.0-0.1","c73ce4bda9ae7dee5b4db865cb8e13b07b22f90f1a48a6d4c71e3d8e57a38bea","arctic","swim","9733","","<b>Which dog on the narrator&#39;s dog team never followed instructions?</b>","","","","1","arctic-comprehension","","","","","","","","","","","","","{""Q0"":""Robert""}","","","",""
"survey-multi-choice","33","1045564","0.0-6.0-0.0-3.0-0.2","c73ce4bda9ae7dee5b4db865cb8e13b07b22f90f1a48a6d4c71e3d8e57a38bea","arctic","swim","8587","","<b>How did the dogs respond when they saw the bears?</b>","","","","0","arctic-comprehension","","","","","","","","","","","","","{""Q0"":""Ran away in shock""}","","","",""
"survey-multi-choice","34","1052299","0.0-6.0-0.0-3.0-0.3","c73ce4bda9ae7dee5b4db865cb8e13b07b22f90f1a48a6d4c71e3d8e57a38bea","arctic","swim","6480","","<b>How did the narrator prepare for her expedition?</b>","","","","0","arctic-comprehension","","","","","","","","","","","","","{""Q0"":""Practiced living on rations and taking cold showers""}","","","",""
"survey-multi-choice","35","1069723","0.0-6.0-0.0-3.0-0.4","c73ce4bda9ae7dee5b4db865cb8e13b07b22f90f1a48a6d4c71e3d8e57a38bea","arctic","swim","17167","","<b>What did the narrator do for leisure while in her tent?</b>","","","","0","arctic-comprehension","","","","","","","","","","","","","{""Q0"":""Take photos""}","","","",""
"survey-multi-choice","36","1074444","0.0-6.0-0.0-3.0-0.5","c73ce4bda9ae7dee5b4db865cb8e13b07b22f90f1a48a6d4c71e3d8e57a38bea","arctic","swim","4440","","<b>What were the weather conditions in the Arctic like the winter of the narrator&#39;s expedition?</b>","","","","0","arctic-comprehension","","","","","","","","","","","","","{""Q0"":""There were fewer storms than any other winter in recorded history.""}","","","",""
"survey-multi-choice","37","1078604","0.0-6.0-0.0-3.0-0.6","c73ce4bda9ae7dee5b4db865cb8e13b07b22f90f1a48a6d4c71e3d8e57a38bea","arctic","swim","3905","","<b>What is the name of the narrator&#39;s neighbour?</b>","","","","0","arctic-comprehension","","","","","","","","","","","","","{""Q0"":""Alan""}","","","",""
"survey-multi-choice","38","1081513","0.0-6.0-0.0-3.0-0.7","c73ce4bda9ae7dee5b4db865cb8e13b07b22f90f1a48a6d4c71e3d8e57a38bea","arctic","swim","2655","","<b>How did the narrator&#39;s neighbour respond when she told him about her expedition?</b>","","","","0","arctic-comprehension","","","","","","","","","","","","","{""Q0"":""He threw her a party.""}","","","",""
"survey-multi-choice","39","1090569","0.0-6.0-0.0-3.0-0.8","c73ce4bda9ae7dee5b4db865cb8e13b07b22f90f1a48a6d4c71e3d8e57a38bea","arctic","swim","8801","","<b>How many sponsorships did the narrator receive to support her expedition?</b>","","","","0","arctic-comprehension","","","","","","","","","","","","","{""Q0"":""Ten""}","","","",""
"survey-multi-choice","40","1093097","0.0-6.0-0.0-3.0-0.9","c73ce4bda9ae7dee5b4db865cb8e13b07b22f90f1a48a6d4c71e3d8e57a38bea","arctic","swim","2206","","<b>How did the narrator&#39;s encounter with the polar bears end?</b>","","","","0","arctic-comprehension","","","","","","","","","","","","","{""Q0"":""""}","","","",""
"html-button-response","41","1097319","0.0-6.0-0.0-4.0","c73ce4bda9ae7dee5b4db865cb8e13b07b22f90f1a48a6d4c71e3d8e57a38bea","arctic","swim","3964","","<p>Thank you for your responses.</p><p>You will now answer some questions about your impressions of the story.</p>","0","","","","","","","","","","","","","","","","","","","","",""
"html-button-response","42","1101627","0.0-6.0-0.0-5.0-0.0","c73ce4bda9ae7dee5b4db865cb8e13b07b22f90f1a48a6d4c71e3d8e57a38bea","arctic","swim","4303","","E10","6","","","","arctic-engagement","","","","","","","","","","","","","","7","enjoyment","",""
"html-button-response","43","1106196","0.0-6.0-0.0-5.0-0.1","c73ce4bda9ae7dee5b4db865cb8e13b07b22f90f1a48a6d4c71e3d8e57a38bea","arctic","swim","4311","","E7","6","","","","arctic-engagement","","","","","","","","","","","","","","7","enjoyment","",""
"html-button-response","44","1111813","0.0-6.0-0.0-5.0-0.2","c73ce4bda9ae7dee5b4db865cb8e13b07b22f90f1a48a6d4c71e3d8e57a38bea","arctic","swim","5358","","EE4","5","","","","arctic-engagement","","","","","","","","","","","","","","6","emo-engage","",""
"html-button-response","45","1119164","0.0-6.0-0.0-5.0-0.3","c73ce4bda9ae7dee5b4db865cb8e13b07b22f90f1a48a6d4c71e3d8e57a38bea","arctic","swim","7099","","EE1","4","","","","arctic-engagement","","","","","","","","","","","","","","5","emo-engage","",""
"html-button-response","46","1123279","0.0-6.0-0.0-5.0-0.4","c73ce4bda9ae7dee5b4db865cb8e13b07b22f90f1a48a6d4c71e3d8e57a38bea","arctic","swim","3861","","E8","6","","","","arctic-engagement","","","","","","","","","","","","","","7","enjoyment","",""
"html-button-response","47","1131780","0.0-6.0-0.0-5.0-0.5","c73ce4bda9ae7dee5b4db865cb8e13b07b22f90f1a48a6d4c71e3d8e57a38bea","arctic","swim","8249","","A2","6","","","","arctic-engagement","","","","","","","","","","","","","","7","absorption","",""
"html-button-response","48","1136573","0.0-6.0-0.0-5.0-0.6","c73ce4bda9ae7dee5b4db865cb8e13b07b22f90f1a48a6d4c71e3d8e57a38bea","arctic","swim","4518","","EE2","5","","","","arctic-engagement","","","","","","","","","","","","","","6","emo-engage","",""
"html-button-response","49","1141084","0.0-6.0-0.0-5.0-0.7","c73ce4bda9ae7dee5b4db865cb8e13b07b22f90f1a48a6d4c71e3d8e57a38bea","arctic","swim","4232","","MS1","6","","","","arctic-engagement","","","","","","","","","","","","","","7","mental-sim","",""
"html-button-response","50","1147275","0.0-6.0-0.0-5.0-0.8","c73ce4bda9ae7dee5b4db865cb8e13b07b22f90f1a48a6d4c71e3d8e57a38bea","arctic","swim","5934","","A5","4","","","","arctic-engagement","","","","","","","","","","","","","","5","absorption","",""
"html-button-response","51","1152426","0.0-6.0-0.0-5.0-0.9","c73ce4bda9ae7dee5b4db865cb8e13b07b22f90f1a48a6d4c71e3d8e57a38bea","arctic","swim","4897","","A1","5","","","","arctic-engagement","","","","","","","","","","","","","","6","absorption","",""
"html-button-response","52","1156433","0.0-6.0-0.0-5.0-0.10","c73ce4bda9ae7dee5b4db865cb8e13b07b22f90f1a48a6d4c71e3d8e57a38bea","arctic","swim","3752","","E6","6","","","","arctic-engagement","","","","","","","","","","","","","","7","enjoyment","",""
"html-button-response","53","1159329","0.0-6.0-0.0-5.0-0.11","c73ce4bda9ae7dee5b4db865cb8e13b07b22f90f1a48a6d4c71e3d8e57a38bea","arctic","swim","2643","","E1","6","","","","arctic-engagement","","","","","","","","","","","","","","7","enjoyment","",""
"html-button-response","54","1162405","0.0-6.0-0.0-5.0-0.12","c73ce4bda9ae7dee5b4db865cb8e13b07b22f90f1a48a6d4c71e3d8e57a38bea","arctic","swim","2821","","A3","6","","","","arctic-engagement","","","","","","","","","","","","","","7","absorption","",""
"html-button-response","55","1166886","0.0-6.0-0.0-5.0-0.13","c73ce4bda9ae7dee5b4db865cb8e13b07b22f90f1a48a6d4c71e3d8e57a38bea","arctic","swim","4177","","EE3","6","","","","arctic-engagement","","","","","","","","","","","","","","7","emo-engage","",""
"html-button-response","56","1171667","0.0-6.0-0.0-5.0-0.14","c73ce4bda9ae7dee5b4db865cb8e13b07b22f90f1a48a6d4c71e3d8e57a38bea","arctic","swim","4521","","MS3","5","","","","arctic-engagement","","","","","","","","","","","","","","6","mental-sim","",""
"html-button-response","57","1176243","0.0-6.0-0.0-5.0-0.15","c73ce4bda9ae7dee5b4db865cb8e13b07b22f90f1a48a6d4c71e3d8e57a38bea","arctic","swim","4322","","EE5","6","","","","arctic-engagement","","","","","","","","","","","","","","7","emo-engage","",""
"html-button-response","58","1181924","0.0-6.0-0.0-5.0-0.16","c73ce4bda9ae7dee5b4db865cb8e13b07b22f90f1a48a6d4c71e3d8e57a38bea","arctic","swim","5429","","A4","5","","","","arctic-engagement","","","","","","","","","","","","","","6","absorption","",""
"html-button-response","59","1188881","0.0-6.0-0.0-5.0-0.17","c73ce4bda9ae7dee5b4db865cb8e13b07b22f90f1a48a6d4c71e3d8e57a38bea","arctic","swim","6704","","MS2","6","","","","arctic-engagement","","","","","","","","","","","","","","7","mental-sim","",""
"html-keyboard-response","60","1204649","0.0-6.0-1.0","c73ce4bda9ae7dee5b4db865cb8e13b07b22f90f1a48a6d4c71e3d8e57a38bea","arctic","swim","15508","","<p>Thank you for your responses. You will now listen to the second story.</p><p>Remember, as you listen to the story you will see letters appear on the screen.</br>As quickly as possible, press <b>&lt;x&gt;</b> if the letter is lowercase and <b>&lt;m&gt;</b> if the letter is uppercase.</p><p>Press <b>&lt;x&gt;</b> or <b>&lt;m&gt;</b> to begin listening!</p>","","77","","","","","","","","","","","","","","","","","","","",""
"html-keyboard-response","61","1205151","0.0-6.0-2.0-0.0","c73ce4bda9ae7dee5b4db865cb8e13b07b22f90f1a48a6d4c71e3d8e57a38bea","arctic","swim","null","","<div style=""font-size:60px;"" tabindex=""0"">+</div>","","null","","","","","","","","","","","","","","","","","","","",""
"dual-task","null","null","null","","arctic","swim","975","","d","null","88","88","1","swim-dual-task","","d","lowercase","10000","0","1","c73ce4bda9ae7dee5b4db865cb8e13b07b22f90f1a48a6d4c71e3d8e57a38bea","10000","975","88","1","swim","","","","",""
"dual-task","null","null","null","","arctic","swim","1294","","d","null","88","88","1","swim-dual-task","","d","lowercase","18000","0","1","c73ce4bda9ae7dee5b4db865cb8e13b07b22f90f1a48a6d4c71e3d8e57a38bea","17998","1294","88","1","swim","","","","",""
"dual-task","null","null","null","","arctic","swim","1101","","E","null","77","77","1","swim-dual-task","","E","uppercase","28000","0","1","c73ce4bda9ae7dee5b4db865cb8e13b07b22f90f1a48a6d4c71e3d8e57a38bea","27999","1101","77","1","swim","","","","",""
"dual-task","null","null","null","","arctic","swim","829","","e","null","88","88","1","swim-dual-task","","e","lowercase","40000","0","1","c73ce4bda9ae7dee5b4db865cb8e13b07b22f90f1a48a6d4c71e3d8e57a38bea","39999","829","88","1","swim","","","","",""
"dual-task","null","null","null","","arctic","swim","820","","d","null","88","88","1","swim-dual-task","","d","lowercase","54000","0","1","c73ce4bda9ae7dee5b4db865cb8e13b07b22f90f1a48a6d4c71e3d8e57a38bea","53999","820","88","1","swim","","","","",""
"dual-task","null","null","null","","arctic","swim","NA","","r","null","NA","88","0","swim-dual-task","","r","lowercase","62000","1","1","c73ce4bda9ae7dee5b4db865cb8e13b07b22f90f1a48a6d4c71e3d8e57a38bea","62000","NA","NA","0","swim","","","","",""
"dual-task","null","null","null","","arctic","swim","1370","","e","null","88","88","1","swim-dual-task","","e","lowercase","72000","0","1","c73ce4bda9ae7dee5b4db865cb8e13b07b22f90f1a48a6d4c71e3d8e57a38bea","71999","1370","88","1","swim","","","","",""
"dual-task","null","null","null","","arctic","swim","759","","g","null","88","88","1","swim-dual-task","","g","lowercase","82000","0","1","c73ce4bda9ae7dee5b4db865cb8e13b07b22f90f1a48a6d4c71e3d8e57a38bea","81999","759","88","1","swim","","","","",""
"dual-task","null","null","null","","arctic","swim","1056","","f","null","88","88","1","swim-dual-task","","f","lowercase","94000","0","1","c73ce4bda9ae7dee5b4db865cb8e13b07b22f90f1a48a6d4c71e3d8e57a38bea","94005","1056","88","1","swim","","","","",""
"dual-task","null","null","null","","arctic","swim","1373","","N","null","77","77","1","swim-dual-task","","N","uppercase","108000","0","1","c73ce4bda9ae7dee5b4db865cb8e13b07b22f90f1a48a6d4c71e3d8e57a38bea","108000","1373","77","1","swim","","","","",""
"dual-task","null","null","null","","arctic","swim","1074","","T","null","88","77","0","swim-dual-task","","T","uppercase","116000","0","1","c73ce4bda9ae7dee5b4db865cb8e13b07b22f90f1a48a6d4c71e3d8e57a38bea","115999","1074","88","0","swim","","","","",""
"dual-task","null","null","null","","arctic","swim","1039","","t","null","88","88","1","swim-dual-task","","t","lowercase","124000","0","1","c73ce4bda9ae7dee5b4db865cb8e13b07b22f90f1a48a6d4c71e3d8e57a38bea","123999","1039","88","1","swim","","","","",""
"dual-task","null","null","null","","arctic","swim","1005","","H","null","77","77","1","swim-dual-task","","H","uppercase","136000","0","1","c73ce4bda9ae7dee5b4db865cb8e13b07b22f90f1a48a6d4c71e3d8e57a38bea","135999","1005","77","1","swim","","","","",""
"dual-task","null","null","null","","arctic","swim","1238","","N","null","77","77","1","swim-dual-task","","N","uppercase","150000","0","1","c73ce4bda9ae7dee5b4db865cb8e13b07b22f90f1a48a6d4c71e3d8e57a38bea","150000","1238","77","1","swim","","","","",""
"dual-task","null","null","null","","arctic","swim","1105","","Q","null","77","77","1","swim-dual-task","","Q","uppercase","162000","0","1","c73ce4bda9ae7dee5b4db865cb8e13b07b22f90f1a48a6d4c71e3d8e57a38bea","162005","1105","77","1","swim","","","","",""
"dual-task","null","null","null","","arctic","swim","1110","","R","null","77","77","1","swim-dual-task","","R","uppercase","174000","0","1","c73ce4bda9ae7dee5b4db865cb8e13b07b22f90f1a48a6d4c71e3d8e57a38bea","173999","1110","77","1","swim","","","","",""
"dual-task","null","null","null","","arctic","swim","1377","","T","null","77","77","1","swim-dual-task","","T","uppercase","184000","0","1","c73ce4bda9ae7dee5b4db865cb8e13b07b22f90f1a48a6d4c71e3d8e57a38bea","184000","1377","77","1","swim","","","","",""
"dual-task","null","null","null","","arctic","swim","1311","","a","null","88","88","1","swim-dual-task","","a","lowercase","196000","0","1","c73ce4bda9ae7dee5b4db865cb8e13b07b22f90f1a48a6d4c71e3d8e57a38bea","195999","1311","88","1","swim","","","","",""
"dual-task","null","null","null","","arctic","swim","1150","","G","null","77","77","1","swim-dual-task","","G","uppercase","210000","0","1","c73ce4bda9ae7dee5b4db865cb8e13b07b22f90f1a48a6d4c71e3d8e57a38bea","210002","1150","77","1","swim","","","","",""
"dual-task","null","null","null","","arctic","swim","1249","","r","null","88","88","1","swim-dual-task","","r","lowercase","220000","0","1","c73ce4bda9ae7dee5b4db865cb8e13b07b22f90f1a48a6d4c71e3d8e57a38bea","219999","1249","88","1","swim","","","","",""
"dual-task","null","null","null","","arctic","swim","1443","","B","null","77","77","1","swim-dual-task","","B","uppercase","230000","0","1","c73ce4bda9ae7dee5b4db865cb8e13b07b22f90f1a48a6d4c71e3d8e57a38bea","229999","1443","77","1","swim","","","","",""
"dual-task","null","null","null","","arctic","swim","1150","","R","null","77","77","1","swim-dual-task","","R","uppercase","238000","0","1","c73ce4bda9ae7dee5b4db865cb8e13b07b22f90f1a48a6d4c71e3d8e57a38bea","238002","1150","77","1","swim","","","","",""
"dual-task","null","null","null","","arctic","swim","1230","","b","null","88","88","1","swim-dual-task","","b","lowercase","246000","0","1","c73ce4bda9ae7dee5b4db865cb8e13b07b22f90f1a48a6d4c71e3d8e57a38bea","245999","1230","88","1","swim","","","","",""
"dual-task","null","null","null","","arctic","swim","851","","E","null","77","77","1","swim-dual-task","","E","uppercase","258000","0","1","c73ce4bda9ae7dee5b4db865cb8e13b07b22f90f1a48a6d4c71e3d8e57a38bea","258000","851","77","1","swim","","","","",""
"dual-task","null","null","null","","arctic","swim","871","","G","null","77","77","1","swim-dual-task","","G","uppercase","268000","0","1","c73ce4bda9ae7dee5b4db865cb8e13b07b22f90f1a48a6d4c71e3d8e57a38bea","267999","871","77","1","swim","","","","",""
"dual-task","null","null","null","","arctic","swim","1251","","A","null","77","77","1","swim-dual-task","","A","uppercase","282000","0","1","c73ce4bda9ae7dee5b4db865cb8e13b07b22f90f1a48a6d4c71e3d8e57a38bea","281999","1251","77","1","swim","","","","",""
"dual-task","null","null","null","","arctic","swim","806","","Q","null","77","77","1","swim-dual-task","","Q","uppercase","288000","0","1","c73ce4bda9ae7dee5b4db865cb8e13b07b22f90f1a48a6d4c71e3d8e57a38bea","288000","806","77","1","swim","","","","",""
"dual-task","null","null","null","","arctic","swim","1277","","b","null","88","88","1","swim-dual-task","","b","lowercase","302000","0","1","c73ce4bda9ae7dee5b4db865cb8e13b07b22f90f1a48a6d4c71e3d8e57a38bea","302055","1277","88","1","swim","","","","",""
"dual-task","null","null","null","","arctic","swim","1563","","N","null","77","77","1","swim-dual-task","","N","uppercase","312000","0","1","c73ce4bda9ae7dee5b4db865cb8e13b07b22f90f1a48a6d4c71e3d8e57a38bea","312000","1563","77","1","swim","","","","",""
"dual-task","null","null","null","","arctic","swim","1063","","d","null","88","88","1","swim-dual-task","","d","lowercase","322000","0","1","c73ce4bda9ae7dee5b4db865cb8e13b07b22f90f1a48a6d4c71e3d8e57a38bea","322120","1063","88","1","swim","","","","",""
"dual-task","null","null","null","","arctic","swim","739","","r","null","88","88","1","swim-dual-task","","r","lowercase","330000","0","1","c73ce4bda9ae7dee5b4db865cb8e13b07b22f90f1a48a6d4c71e3d8e57a38bea","329999","739","88","1","swim","","","","",""
"dual-task","null","null","null","","arctic","swim","870","","f","null","88","88","1","swim-dual-task","","f","lowercase","340000","0","1","c73ce4bda9ae7dee5b4db865cb8e13b07b22f90f1a48a6d4c71e3d8e57a38bea","340000","870","88","1","swim","","","","",""
"dual-task","null","null","null","","arctic","swim","843","","t","null","88","88","1","swim-dual-task","","t","lowercase","350000","0","1","c73ce4bda9ae7dee5b4db865cb8e13b07b22f90f1a48a6d4c71e3d8e57a38bea","350000","843","88","1","swim","","","","",""
"dual-task","null","null","null","","arctic","swim","817","","q","null","88","88","1","swim-dual-task","","q","lowercase","362000","0","1","c73ce4bda9ae7dee5b4db865cb8e13b07b22f90f1a48a6d4c71e3d8e57a38bea","361999","817","88","1","swim","","","","",""
"dual-task","null","null","null","","arctic","swim","944","","h","null","88","88","1","swim-dual-task","","h","lowercase","372000","0","1","c73ce4bda9ae7dee5b4db865cb8e13b07b22f90f1a48a6d4c71e3d8e57a38bea","372000","944","88","1","swim","","","","",""
"dual-task","null","null","null","","arctic","swim","903","","D","null","77","77","1","swim-dual-task","","D","uppercase","380000","0","1","c73ce4bda9ae7dee5b4db865cb8e13b07b22f90f1a48a6d4c71e3d8e57a38bea","379999","903","77","1","swim","","","","",""
"dual-task","null","null","null","","arctic","swim","971","","A","null","77","77","1","swim-dual-task","","A","uppercase","390000","0","1","c73ce4bda9ae7dee5b4db865cb8e13b07b22f90f1a48a6d4c71e3d8e57a38bea","390000","971","77","1","swim","","","","",""
"dual-task","null","null","null","","arctic","swim","1178","","g","null","88","88","1","swim-dual-task","","g","lowercase","396000","0","1","c73ce4bda9ae7dee5b4db865cb8e13b07b22f90f1a48a6d4c71e3d8e57a38bea","396005","1178","88","1","swim","","","","",""
"dual-task","null","null","null","","arctic","swim","934","","H","null","77","77","1","swim-dual-task","","H","uppercase","406000","0","1","c73ce4bda9ae7dee5b4db865cb8e13b07b22f90f1a48a6d4c71e3d8e57a38bea","406000","934","77","1","swim","","","","",""
"dual-task","null","null","null","","arctic","swim","785","","a","null","88","88","1","swim-dual-task","","a","lowercase","416000","0","1","c73ce4bda9ae7dee5b4db865cb8e13b07b22f90f1a48a6d4c71e3d8e57a38bea","415999","785","88","1","swim","","","","",""
"dual-task","null","null","null","","arctic","swim","1231","","T","null","77","77","1","swim-dual-task","","T","uppercase","422000","0","1","c73ce4bda9ae7dee5b4db865cb8e13b07b22f90f1a48a6d4c71e3d8e57a38bea","421999","1231","77","1","swim","","","","",""
"dual-task","null","null","null","","arctic","swim","NA","","F","null","NA","77","0","swim-dual-task","","F","uppercase","428000","1","1","c73ce4bda9ae7dee5b4db865cb8e13b07b22f90f1a48a6d4c71e3d8e57a38bea","427999","NA","NA","0","swim","","","","",""
"dual-task","null","null","null","","arctic","swim","NA","","n","null","NA","88","0","swim-dual-task","","n","lowercase","438000","1","1","c73ce4bda9ae7dee5b4db865cb8e13b07b22f90f1a48a6d4c71e3d8e57a38bea","437999","NA","NA","0","swim","","","","",""
"dual-task","null","null","null","","arctic","swim","938","","B","null","77","77","1","swim-dual-task","","B","uppercase","444000","0","1","c73ce4bda9ae7dee5b4db865cb8e13b07b22f90f1a48a6d4c71e3d8e57a38bea","443999","938","77","1","swim","","","","",""
"dual-task","null","null","null","","arctic","swim","843","","D","null","77","77","1","swim-dual-task","","D","uppercase","452000","0","1","c73ce4bda9ae7dee5b4db865cb8e13b07b22f90f1a48a6d4c71e3d8e57a38bea","451999","843","77","1","swim","","","","",""
"dual-task","null","null","null","","arctic","swim","778","","N","null","77","77","1","swim-dual-task","","N","uppercase","460000","0","1","c73ce4bda9ae7dee5b4db865cb8e13b07b22f90f1a48a6d4c71e3d8e57a38bea","460044","778","77","1","swim","","","","",""
"dual-task","null","null","null","","arctic","swim","690","","a","null","88","88","1","swim-dual-task","","a","lowercase","474000","0","1","c73ce4bda9ae7dee5b4db865cb8e13b07b22f90f1a48a6d4c71e3d8e57a38bea","474000","690","88","1","swim","","","","",""
"dual-task","null","null","null","","arctic","swim","971","","b","null","77","88","0","swim-dual-task","","b","lowercase","486000","0","1","c73ce4bda9ae7dee5b4db865cb8e13b07b22f90f1a48a6d4c71e3d8e57a38bea","486000","971","77","0","swim","","","","",""
"dual-task","null","null","null","","arctic","swim","1409","","B","null","77","77","1","swim-dual-task","","B","uppercase","494000","0","1","c73ce4bda9ae7dee5b4db865cb8e13b07b22f90f1a48a6d4c71e3d8e57a38bea","494000","1409","77","1","swim","","","","",""
"dual-task","null","null","null","","arctic","swim","1017","","H","null","77","77","1","swim-dual-task","","H","uppercase","508000","0","1","c73ce4bda9ae7dee5b4db865cb8e13b07b22f90f1a48a6d4c71e3d8e57a38bea","508000","1017","77","1","swim","","","","",""
"dual-task","null","null","null","","arctic","swim","1345","","q","null","88","88","1","swim-dual-task","","q","lowercase","522000","0","1","c73ce4bda9ae7dee5b4db865cb8e13b07b22f90f1a48a6d4c71e3d8e57a38bea","521999","1345","88","1","swim","","","","",""
"dual-task","null","null","null","","arctic","swim","938","","g","null","88","88","1","swim-dual-task","","g","lowercase","532000","0","1","c73ce4bda9ae7dee5b4db865cb8e13b07b22f90f1a48a6d4c71e3d8e57a38bea","531999","938","88","1","swim","","","","",""
"dual-task","null","null","null","","arctic","swim","1171","","G","null","77","77","1","swim-dual-task","","G","uppercase","544000","0","1","c73ce4bda9ae7dee5b4db865cb8e13b07b22f90f1a48a6d4c71e3d8e57a38bea","544000","1171","77","1","swim","","","","",""
"dual-task","null","null","null","","arctic","swim","1363","","F","null","77","77","1","swim-dual-task","","F","uppercase","558000","0","1","c73ce4bda9ae7dee5b4db865cb8e13b07b22f90f1a48a6d4c71e3d8e57a38bea","557999","1363","77","1","swim","","","","",""
"dual-task","null","null","null","","arctic","swim","1382","","a","null","88","88","1","swim-dual-task","","a","lowercase","564000","0","1","c73ce4bda9ae7dee5b4db865cb8e13b07b22f90f1a48a6d4c71e3d8e57a38bea","564000","1382","88","1","swim","","","","",""
"dual-task","null","null","null","","arctic","swim","828","","t","null","88","88","1","swim-dual-task","","t","lowercase","574000","0","1","c73ce4bda9ae7dee5b4db865cb8e13b07b22f90f1a48a6d4c71e3d8e57a38bea","574000","828","88","1","swim","","","","",""
"dual-task","null","null","null","","arctic","swim","1287","","F","null","77","77","1","swim-dual-task","","F","uppercase","582000","0","1","c73ce4bda9ae7dee5b4db865cb8e13b07b22f90f1a48a6d4c71e3d8e57a38bea","582000","1287","77","1","swim","","","","",""
"dual-task","null","null","null","","arctic","swim","1325","","B","null","77","77","1","swim-dual-task","","B","uppercase","592000","0","1","c73ce4bda9ae7dee5b4db865cb8e13b07b22f90f1a48a6d4c71e3d8e57a38bea","591999","1325","77","1","swim","","","","",""
"dual-task","null","null","null","","arctic","swim","1135","","E","null","77","77","1","swim-dual-task","","E","uppercase","606000","0","1","c73ce4bda9ae7dee5b4db865cb8e13b07b22f90f1a48a6d4c71e3d8e57a38bea","606000","1135","77","1","swim","","","","",""
"dual-task","null","null","null","","arctic","swim","1078","","Q","null","77","77","1","swim-dual-task","","Q","uppercase","612000","0","1","c73ce4bda9ae7dee5b4db865cb8e13b07b22f90f1a48a6d4c71e3d8e57a38bea","611999","1078","77","1","swim","","","","",""
"dual-task","null","null","null","","arctic","swim","910","","q","null","88","88","1","swim-dual-task","","q","lowercase","620000","0","1","c73ce4bda9ae7dee5b4db865cb8e13b07b22f90f1a48a6d4c71e3d8e57a38bea","619999","910","88","1","swim","","","","",""
"dual-task","null","null","null","","arctic","swim","1251","","H","null","77","77","1","swim-dual-task","","H","uppercase","628000","0","1","c73ce4bda9ae7dee5b4db865cb8e13b07b22f90f1a48a6d4c71e3d8e57a38bea","627999","1251","77","1","swim","","","","",""
"dual-task","null","null","null","","arctic","swim","1087","","e","null","88","88","1","swim-dual-task","","e","lowercase","636000","0","1","c73ce4bda9ae7dee5b4db865cb8e13b07b22f90f1a48a6d4c71e3d8e57a38bea","636089","1087","88","1","swim","","","","",""
"dual-task","null","null","null","","arctic","swim","1360","","E","null","77","77","1","swim-dual-task","","E","uppercase","646000","0","1","c73ce4bda9ae7dee5b4db865cb8e13b07b22f90f1a48a6d4c71e3d8e57a38bea","646000","1360","77","1","swim","","","","",""
"dual-task","null","null","null","","arctic","swim","994","","D","null","77","77","1","swim-dual-task","","D","uppercase","656000","0","1","c73ce4bda9ae7dee5b4db865cb8e13b07b22f90f1a48a6d4c71e3d8e57a38bea","656000","994","77","1","swim","","","","",""
"dual-task","null","null","null","","arctic","swim","1221","","A","null","77","77","1","swim-dual-task","","A","uppercase","664000","0","1","c73ce4bda9ae7dee5b4db865cb8e13b07b22f90f1a48a6d4c71e3d8e57a38bea","664012","1221","77","1","swim","","","","",""
"dual-task","null","null","null","","arctic","swim","1267","","n","null","88","88","1","swim-dual-task","","n","lowercase","676000","0","1","c73ce4bda9ae7dee5b4db865cb8e13b07b22f90f1a48a6d4c71e3d8e57a38bea","675999","1267","88","1","swim","","","","",""
"dual-task","null","null","null","","arctic","swim","1003","","t","null","88","88","1","swim-dual-task","","t","lowercase","688000","0","1","c73ce4bda9ae7dee5b4db865cb8e13b07b22f90f1a48a6d4c71e3d8e57a38bea","687999","1003","88","1","swim","","","","",""
"dual-task","null","null","null","","arctic","swim","1340","","h","null","88","88","1","swim-dual-task","","h","lowercase","694000","0","1","c73ce4bda9ae7dee5b4db865cb8e13b07b22f90f1a48a6d4c71e3d8e57a38bea","693999","1340","88","1","swim","","","","",""
"dual-task","null","null","null","","arctic","swim","1557","","r","null","88","88","1","swim-dual-task","","r","lowercase","704000","0","1","c73ce4bda9ae7dee5b4db865cb8e13b07b22f90f1a48a6d4c71e3d8e57a38bea","703999","1557","88","1","swim","","","","",""
"dual-task","null","null","null","","arctic","swim","1190","","n","null","88","88","1","swim-dual-task","","n","lowercase","712000","0","1","c73ce4bda9ae7dee5b4db865cb8e13b07b22f90f1a48a6d4c71e3d8e57a38bea","712000","1190","88","1","swim","","","","",""
"dual-task","null","null","null","","arctic","swim","1387","","e","null","88","88","1","swim-dual-task","","e","lowercase","722000","0","1","c73ce4bda9ae7dee5b4db865cb8e13b07b22f90f1a48a6d4c71e3d8e57a38bea","722000","1387","88","1","swim","","","","",""
"dual-task","null","null","null","","arctic","swim","1262","","n","null","88","88","1","swim-dual-task","","n","lowercase","734000","0","1","c73ce4bda9ae7dee5b4db865cb8e13b07b22f90f1a48a6d4c71e3d8e57a38bea","733999","1262","88","1","swim","","","","",""
"dual-task","null","null","null","","arctic","swim","1164","","T","null","77","77","1","swim-dual-task","","T","uppercase","746000","0","1","c73ce4bda9ae7dee5b4db865cb8e13b07b22f90f1a48a6d4c71e3d8e57a38bea","746000","1164","77","1","swim","","","","",""
"dual-task","null","null","null","","arctic","swim","1440","","b","null","88","88","1","swim-dual-task","","b","lowercase","760000","0","1","c73ce4bda9ae7dee5b4db865cb8e13b07b22f90f1a48a6d4c71e3d8e57a38bea","760018","1440","88","1","swim","","","","",""
"dual-task","null","null","null","","arctic","swim","1459","","q","null","88","88","1","swim-dual-task","","q","lowercase","766000","0","1","c73ce4bda9ae7dee5b4db865cb8e13b07b22f90f1a48a6d4c71e3d8e57a38bea","765999","1459","88","1","swim","","","","",""
"dual-task","null","null","null","","arctic","swim","964","","D","null","77","77","1","swim-dual-task","","D","uppercase","778000","0","1","c73ce4bda9ae7dee5b4db865cb8e13b07b22f90f1a48a6d4c71e3d8e57a38bea","778026","964","77","1","swim","","","","",""
"dual-task","null","null","null","","arctic","swim","1022","","Q","null","77","77","1","swim-dual-task","","Q","uppercase","788000","0","1","c73ce4bda9ae7dee5b4db865cb8e13b07b22f90f1a48a6d4c71e3d8e57a38bea","787999","1022","77","1","swim","","","","",""
"dual-task","null","null","null","","arctic","swim","834","","G","null","77","77","1","swim-dual-task","","G","uppercase","794000","0","1","c73ce4bda9ae7dee5b4db865cb8e13b07b22f90f1a48a6d4c71e3d8e57a38bea","794000","834","77","1","swim","","","","",""
"audio-keyboard-response","62","2017734","0.0-6.0-2.0-1.0","c73ce4bda9ae7dee5b4db865cb8e13b07b22f90f1a48a6d4c71e3d8e57a38bea","arctic","swim","null","","audio/story_swim_scrambled.mp3","","null","","","","","","","","","","","","","","","","","","","",""
"html-button-response","63","2163590","0.0-6.0-2.0-2.0","c73ce4bda9ae7dee5b4db865cb8e13b07b22f90f1a48a6d4c71e3d8e57a38bea","arctic","swim","145853","","<p>This concludes the story. Thank you for listening.</p><p>You will now answer some questions about the content of the story.</p>","0","","","","","","","","","","","","","","","","","","","","",""
"survey-multi-choice","64","2177392","0.0-6.0-2.0-3.0-0.0","c73ce4bda9ae7dee5b4db865cb8e13b07b22f90f1a48a6d4c71e3d8e57a38bea","arctic","swim","13798","","<b>What was the final step of the first swim test in the pool?</b>","","","","0","swim-comprehension","","","","","","","","","","","","","{""Q0"":""Hold breath for two minutes""}","","","",""
"survey-multi-choice","65","2183235","0.0-6.0-2.0-3.0-0.1","c73ce4bda9ae7dee5b4db865cb8e13b07b22f90f1a48a6d4c71e3d8e57a38bea","arctic","swim","5588","","<b>How often does the narrator swim, now that he is a good swimmer?</b>","","","","0","swim-comprehension","","","","","","","","","","","","","{""Q0"":""Occasionally at his cottage""}","","","",""
"survey-multi-choice","66","2190205","0.0-6.0-2.0-3.0-0.2","c73ce4bda9ae7dee5b4db865cb8e13b07b22f90f1a48a6d4c71e3d8e57a38bea","arctic","swim","6715","","<b>What is the narrator afraid of, aside from the water?</b>","","","","1","swim-comprehension","","","","","","","","","","","","","{""Q0"":""Heights""}","","","",""
"survey-multi-choice","67","2197716","0.0-6.0-2.0-3.0-0.3","c73ce4bda9ae7dee5b4db865cb8e13b07b22f90f1a48a6d4c71e3d8e57a38bea","arctic","swim","7254","","<b>How many astronaut candidates passed the first swim test?</b>","","","","0","swim-comprehension","","","","","","","","","","","","","{""Q0"":""Two""}","","","",""
"survey-multi-choice","68","2201832","0.0-6.0-2.0-3.0-0.4","c73ce4bda9ae7dee5b4db865cb8e13b07b22f90f1a48a6d4c71e3d8e57a38bea","arctic","swim","3858","","<b>How many times did the astronaut candidates have to complete the final exercise to pass?</b>","","","","0","swim-comprehension","","","","","","","","","","","","","{""Q0"":""Five""}","","","",""
"survey-multi-choice","69","2204445","0.0-6.0-2.0-3.0-0.5","c73ce4bda9ae7dee5b4db865cb8e13b07b22f90f1a48a6d4c71e3d8e57a38bea","arctic","swim","2357","","<b>How did the narrator train for his swim test?</b>","","","","0","swim-comprehension","","","","","","","","","","","","","{""Q0"":""Practiced martial arts""}","","","",""
"survey-multi-choice","70","2207322","0.0-6.0-2.0-3.0-0.6","c73ce4bda9ae7dee5b4db865cb8e13b07b22f90f1a48a6d4c71e3d8e57a38bea","arctic","swim","2621","","<b>Where is the home of naval aviation?</b>","","","","0","swim-comprehension","","","","","","","","","","","","","{""Q0"":""Dallas""}","","","",""
"survey-multi-choice","71","2212398","0.0-6.0-2.0-3.0-0.7","c73ce4bda9ae7dee5b4db865cb8e13b07b22f90f1a48a6d4c71e3d8e57a38bea","arctic","swim","4820","","<b>What gave the narrator his greatest feeling of accomplishment?</b>","","","","1","swim-comprehension","","","","","","","","","","","","","{""Q0"":""Passing the water survival course""}","","","",""
"survey-multi-choice","72","2216323","0.0-6.0-2.0-3.0-0.8","c73ce4bda9ae7dee5b4db865cb8e13b07b22f90f1a48a6d4c71e3d8e57a38bea","arctic","swim","3670","","<b>What were the astronaut candidates trained to do at the naval air station?</b>","","","","0","swim-comprehension","","","","","","","","","","","","","{""Q0"":""Withstand the g-force of a rocket launch""}","","","",""
"survey-multi-choice","73","2220978","0.0-6.0-2.0-3.0-0.9","c73ce4bda9ae7dee5b4db865cb8e13b07b22f90f1a48a6d4c71e3d8e57a38bea","arctic","swim","4400","","<b>How many astronaut candidates reported for duty at the Johnson Space Center?</b>","","","","1","swim-comprehension","","","","","","","","","","","","","{""Q0"":""Forty-four""}","","","",""
"html-button-response","74","2222618","0.0-6.0-2.0-4.0","c73ce4bda9ae7dee5b4db865cb8e13b07b22f90f1a48a6d4c71e3d8e57a38bea","arctic","swim","1387","","<p>Thank you for your responses.</p><p>You will now answer some questions about your impressions of the story.</p>","0","","","","","","","","","","","","","","","","","","","","",""
"html-button-response","75","2224625","0.0-6.0-2.0-5.0-0.0","c73ce4bda9ae7dee5b4db865cb8e13b07b22f90f1a48a6d4c71e3d8e57a38bea","arctic","swim","1999","","MS3","6","","","","swim-engagement","","","","","","","","","","","","","","7","mental-sim","",""
"html-button-response","76","2226874","0.0-6.0-2.0-5.0-0.1","c73ce4bda9ae7dee5b4db865cb8e13b07b22f90f1a48a6d4c71e3d8e57a38bea","arctic","swim","1993","","E10","5","","","","swim-engagement","","","","","","","","","","","","","","6","enjoyment","",""
"html-button-response","77","2228698","0.0-6.0-2.0-5.0-0.2","c73ce4bda9ae7dee5b4db865cb8e13b07b22f90f1a48a6d4c71e3d8e57a38bea","arctic","swim","1564","","E6","6","","","","swim-engagement","","","","","","","","","","","","","","7","enjoyment","",""
"html-button-response","78","2231226","0.0-6.0-2.0-5.0-0.3","c73ce4bda9ae7dee5b4db865cb8e13b07b22f90f1a48a6d4c71e3d8e57a38bea","arctic","swim","2277","","A5","4","","","","swim-engagement","","","","","","","","","","","","","","5","absorption","",""
"html-button-response","79","2232716","0.0-6.0-2.0-5.0-0.4","c73ce4bda9ae7dee5b4db865cb8e13b07b22f90f1a48a6d4c71e3d8e57a38bea","arctic","swim","1238","","A2","5","","","","swim-engagement","","","","","","","","","","","","","","6","absorption","",""
"html-button-response","80","2234208","0.0-6.0-2.0-5.0-0.5","c73ce4bda9ae7dee5b4db865cb8e13b07b22f90f1a48a6d4c71e3d8e57a38bea","arctic","swim","1242","","MS2","6","","","","swim-engagement","","","","","","","","","","","","","","7","mental-sim","",""
"html-button-response","81","2235650","0.0-6.0-2.0-5.0-0.6","c73ce4bda9ae7dee5b4db865cb8e13b07b22f90f1a48a6d4c71e3d8e57a38bea","arctic","swim","1189","","A1","5","","","","swim-engagement","","","","","","","","","","","","","","6","absorption","",""
"html-button-response","82","2237272","0.0-6.0-2.0-5.0-0.7","c73ce4bda9ae7dee5b4db865cb8e13b07b22f90f1a48a6d4c71e3d8e57a38bea","arctic","swim","1368","","E8","6","","","","swim-engagement","","","","","","","","","","","","","","7","enjoyment","",""
"html-button-response","83","2239054","0.0-6.0-2.0-5.0-0.8","c73ce4bda9ae7dee5b4db865cb8e13b07b22f90f1a48a6d4c71e3d8e57a38bea","arctic","swim","1530","","A4","5","","","","swim-engagement","","","","","","","","","","","","","","6","absorption","",""
"html-button-response","84","2240367","0.0-6.0-2.0-5.0-0.9","c73ce4bda9ae7dee5b4db865cb8e13b07b22f90f1a48a6d4c71e3d8e57a38bea","arctic","swim","1062","","E1","6","","","","swim-engagement","","","","","","","","","","","","","","7","enjoyment","",""
"html-button-response","85","2241707","0.0-6.0-2.0-5.0-0.10","c73ce4bda9ae7dee5b4db865cb8e13b07b22f90f1a48a6d4c71e3d8e57a38bea","arctic","swim","1087","","E7","6","","","","swim-engagement","","","","","","","","","","","","","","7","enjoyment","",""
"html-button-response","86","2243227","0.0-6.0-2.0-5.0-0.11","c73ce4bda9ae7dee5b4db865cb8e13b07b22f90f1a48a6d4c71e3d8e57a38bea","arctic","swim","1267","","EE3","6","","","","swim-engagement","","","","","","","","","","","","","","7","emo-engage","",""
"html-button-response","87","2244594","0.0-6.0-2.0-5.0-0.12","c73ce4bda9ae7dee5b4db865cb8e13b07b22f90f1a48a6d4c71e3d8e57a38bea","arctic","swim","1115","","EE4","5","","","","swim-engagement","","","","","","","","","","","","","","6","emo-engage","",""
"html-button-response","88","2247077","0.0-6.0-2.0-5.0-0.13","c73ce4bda9ae7dee5b4db865cb8e13b07b22f90f1a48a6d4c71e3d8e57a38bea","arctic","swim","2229","","EE2","6","","","","swim-engagement","","","","","","","","","","","","","","7","emo-engage","",""
"html-button-response","89","2248647","0.0-6.0-2.0-5.0-0.14","c73ce4bda9ae7dee5b4db865cb8e13b07b22f90f1a48a6d4c71e3d8e57a38bea","arctic","swim","1316","","A3","5","","","","swim-engagement","","","","","","","","","","","","","","6","absorption","",""
"html-button-response","90","2250329","0.0-6.0-2.0-5.0-0.15","c73ce4bda9ae7dee5b4db865cb8e13b07b22f90f1a48a6d4c71e3d8e57a38bea","arctic","swim","1430","","EE1","4","","","","swim-engagement","","","","","","","","","","","","","","5","emo-engage","",""
"html-button-response","91","2252829","0.0-6.0-2.0-5.0-0.16","c73ce4bda9ae7dee5b4db865cb8e13b07b22f90f1a48a6d4c71e3d8e57a38bea","arctic","swim","2247","","EE5","6","","","","swim-engagement","","","","","","","","","","","","","","7","emo-engage","",""
"html-button-response","92","2254439","0.0-6.0-2.0-5.0-0.17","c73ce4bda9ae7dee5b4db865cb8e13b07b22f90f1a48a6d4c71e3d8e57a38bea","arctic","swim","1357","","MS1","5","","","","swim-engagement","","","","","","","","","","","","","","6","mental-sim","",""
"html-button-response","93","2264348","0.0-8.0","c73ce4bda9ae7dee5b4db865cb8e13b07b22f90f1a48a6d4c71e3d8e57a38bea","arctic","swim","9659","","<p>Thank you for your responses.</p><p>You will now answer some demographic, hearing, and general health questions.</p>","0","","","","","","","","","","","","","","","","","","","","",""
"survey-multi-choice","94","2277985","0.0-9.0-0.0","c73ce4bda9ae7dee5b4db865cb8e13b07b22f90f1a48a6d4c71e3d8e57a38bea","arctic","swim","13633","","","","","","","survey","","","","","","","","","","","","","{""Q0"":""Chrome""}","","","browser",""
"survey-text","95","2284621","0.0-9.0-1.0","c73ce4bda9ae7dee5b4db865cb8e13b07b22f90f1a48a6d4c71e3d8e57a38bea","arctic","swim","6360","","","","","","","survey","","","","","","","","","","","","","{""AGE"":""36""}","","","age","36"
"survey-multi-choice","96","2286767","0.0-9.0-2.0","c73ce4bda9ae7dee5b4db865cb8e13b07b22f90f1a48a6d4c71e3d8e57a38bea","arctic","swim","1890","","","","","","","survey","","","","","","","","","","","","","{""Q0"":""Male""}","","","gender","Male"
"survey-multi-choice","97","2290632","0.0-9.0-4.0","c73ce4bda9ae7dee5b4db865cb8e13b07b22f90f1a48a6d4c71e3d8e57a38bea","arctic","swim","3611","","","","","","","survey","","","","","","","","","","","","","{""Q0"":""Right""}","","","handedness","Right"
"survey-multi-choice","98","2292874","0.0-9.0-5.0","c73ce4bda9ae7dee5b4db865cb8e13b07b22f90f1a48a6d4c71e3d8e57a38bea","arctic","swim","1976","","","","","","","survey","","","","","","","","","","","","","{""Q0"":""Bachelor's Degree""}","","","education","Bachelor's Degree"
"survey-text","99","2298070","0.0-10.0-0.0","c73ce4bda9ae7dee5b4db865cb8e13b07b22f90f1a48a6d4c71e3d8e57a38bea","arctic","swim","4942","","","","","","","survey","","","","","","","","","","","","","{""L1"":""English""}","","","first-language","English"
"survey-text","100","2339690","0.0-10.0-1.0","c73ce4bda9ae7dee5b4db865cb8e13b07b22f90f1a48a6d4c71e3d8e57a38bea","arctic","swim","41362","","","","","","","survey","","","","","","","","","","","","","{""L2name"":""English"",""L2fluency"":""Very fluent"",""L3name"":""English"",""L3fluency"":""Very fluent"",""L4name"":""English"",""L4fluency"":""Very fluent""}","","","additional-languages","{""L2name"":""English"",""L2fluency"":""Very fluent"",""L3name"":""English"",""L3fluency"":""Very fluent"",""L4name"":""English"",""L4fluency"":""Very fluent""}"
"survey-multi-choice","101","2351663","0.0-10.0-2.0","c73ce4bda9ae7dee5b4db865cb8e13b07b22f90f1a48a6d4c71e3d8e57a38bea","arctic","swim","11718","","","","","","","survey","","","","","","","","","","","","","{""Q0"":""No""}","","","hearing-aid","No"
"survey-multi-choice","102","2363438","0.0-10.0-3.0","c73ce4bda9ae7dee5b4db865cb8e13b07b22f90f1a48a6d4c71e3d8e57a38bea","arctic","swim","11513","","","","","","","survey","","","","","","","","","","","","","{""Q0"":""Sometimes""}","","","ringing-ears","Sometimes"
"survey-multi-choice","103","2372176","0.0-10.0-4.0-0.0","c73ce4bda9ae7dee5b4db865cb8e13b07b22f90f1a48a6d4c71e3d8e57a38bea","arctic","swim","8485","","","","","","","survey","","","","","","","","","","","","","{""Q0"":""Right Ear""}","","","ringing-ear-loc","Right Ear"
"survey-multi-choice","104","2377991","0.0-10.0-5.0","c73ce4bda9ae7dee5b4db865cb8e13b07b22f90f1a48a6d4c71e3d8e57a38bea","arctic","swim","5363","","","","","","","survey","","","","","","","","","","","","","{""Q0"":""No""}","","","neuro-disease","No"
"survey-multi-choice","105","2383978","0.0-10.0-7.0","c73ce4bda9ae7dee5b4db865cb8e13b07b22f90f1a48a6d4c71e3d8e57a38bea","arctic","swim","5733","","","","","","","survey","","","","","","","","","","","","","{""Q0"":""No""}","","","take-meds","No"
"survey-text","106","2399063","0.0-10.0-9.0","c73ce4bda9ae7dee5b4db865cb8e13b07b22f90f1a48a6d4c71e3d8e57a38bea","arctic","swim","14792","","","","","","","survey","","","","","","","","","","","","","{""HC"":""no""}","","","health-concerns","no"
"html-button-response","107","2403736","0.0-11.0-0.0","c73ce4bda9ae7dee5b4db865cb8e13b07b22f90f1a48a6d4c71e3d8e57a38bea","arctic","swim","4421","","<p>How would you describe your musical skills/experiences?</p>","5","","","","survey","","","","","","","","","","","","","","","","music-skill","6"
"survey-multi-choice","108","2409659","0.0-11.0-1.0","c73ce4bda9ae7dee5b4db865cb8e13b07b22f90f1a48a6d4c71e3d8e57a38bea","arctic","swim","5666","","","","","","","survey","","","","","","","","","","","","","{""Q0"":""Yes""}","","","music-instrument","Yes"
"survey-text","109","2413649","0.0-11.0-2.0-0.0","c73ce4bda9ae7dee5b4db865cb8e13b07b22f90f1a48a6d4c71e3d8e57a38bea","arctic","swim","3555","","","","","","","survey","","","","","","","","","","","","","{""MEXP"":""5""}","","","music-training-yrs","5"
"html-button-response","110","2416812","0.0-12.0-0.0","c73ce4bda9ae7dee5b4db865cb8e13b07b22f90f1a48a6d4c71e3d8e57a38bea","arctic","swim","2866","","<p>How would you describe your general hearing abilities?</p>","4","","","","survey","","","","","","","","","","","","","","","","ssq-01","5"
"html-button-response","111","2421384","0.0-12.0-1.0","c73ce4bda9ae7dee5b4db865cb8e13b07b22f90f1a48a6d4c71e3d8e57a38bea","arctic","swim","4320","","<p>When you talk with someone at a place that strongly reverberates/echoes (e.g., in a church or train station),</br>can you understand what the person says?</p>","7","","","","survey","","","","","","","","","","","","","","","","ssq-02","7"
"html-button-response","112","2423975","0.0-12.0-2.0","c73ce4bda9ae7dee5b4db865cb8e13b07b22f90f1a48a6d4c71e3d8e57a38bea","arctic","swim","2338","","<p>When you are with a group (~5 people) in a lively restaurant, can you follow the group's conversation?</p>","10","","","","survey","","","","","","","","","","","","","","","","ssq-03","10"
"html-button-response","113","2426840","0.0-12.0-3.0","c73ce4bda9ae7dee5b4db865cb8e13b07b22f90f1a48a6d4c71e3d8e57a38bea","arctic","swim","2614","","<p>Based on the sound of a bus or truck, can you tell whether it is moving towards or away from you?</p>","9","","","","survey","","","","","","","","","","","","","","","","ssq-04","9"
"html-button-response","114","2428688","0.0-12.0-4.0","c73ce4bda9ae7dee5b4db865cb8e13b07b22f90f1a48a6d4c71e3d8e57a38bea","arctic","swim","1597","","<p>When you are in an unknown environment, can you tell from which direction a brief sound originates?</p>","10","","","","survey","","","","","","","","","","","","","","","","ssq-05","10"
"html-button-response","115","2436417","0.0-12.0-5.0","c73ce4bda9ae7dee5b4db865cb8e13b07b22f90f1a48a6d4c71e3d8e57a38bea","arctic","swim","7458","","<p>Are you able to ignore distracting sounds when you concentrate on a specific aspect of your acoustic surrounding?</p>","10","","","","survey","","","","","","","","","","","","","","","","ssq-06","10"
"fullscreen","116","2437675","0.0-13.0","c73ce4bda9ae7dee5b4db865cb8e13b07b22f90f1a48a6d4c71e3d8e57a38bea","arctic","swim","","","","","","","","","true","","","","","","","","","","","","","","","",""
