"trial_type","trial_index","time_elapsed","internal_node_id","ParticipantID","firstStory","scramStory","rt","url","stimulus","button_pressed","key_press","correctRESP","correct","designation","success","letterStim","letterType","ONSET","TIMEOUT","CONDITION","Participant","ONSET_ACTUAL","RT","RESP","ACC","STORY","responses","response","type","surveyQuestion","QRESP"
"pavlovia","0","3","0.0-0.0","01d92d17ed0ea9d99d2bac6381808c7ee69318be66dd3daf29c6bf4568786f8d","arctic","swim","","","","","","","","","","","","","","","","","","","","","","","","",""
"external-html","1","5196","0.0-1.0","01d92d17ed0ea9d99d2bac6381808c7ee69318be66dd3daf29c6bf4568786f8d","arctic","swim","5028","consent/consent_updated.html","","","","","","","","","","","","","","","","","","","","","","",""
"html-button-response","2","10276","0.0-2.0-0.0","01d92d17ed0ea9d99d2bac6381808c7ee69318be66dd3daf29c6bf4568786f8d","arctic","swim","5079","","<p>Before we begin the main task, you will complete a short volume calibration and headphone check.</p><p>Please make sure you are in a quiet listening environment, that you are wearing headphones, and that your computer's volume is turned on.<p></p>","0","","","","","","","","","","","","","","","","","","","","",""
"html-button-response","3","26788","0.0-2.0-1.0","01d92d17ed0ea9d99d2bac6381808c7ee69318be66dd3daf29c6bf4568786f8d","arctic","swim","16260","","<p>The volume calibration will be first.</p><p>You will hear a thirty-second noise. Please adjust your computer's volume so that this noise is being presented at a comfortable level.<p></p>","0","","","","","","","","","","","","","","","","","","","","",""
"audio-button-response","4","28972","0.0-2.0-2.0","01d92d17ed0ea9d99d2bac6381808c7ee69318be66dd3daf29c6bf4568786f8d","arctic","swim","1930","","audio/volumetest.mp3","0","","","","","","","","","","","","","","","","","","","","",""
"html-keyboard-response","5","37455","0.0-3.0-0.0","01d92d17ed0ea9d99d2bac6381808c7ee69318be66dd3daf29c6bf4568786f8d","arctic","swim","8483","","<p>You will now complete a short headphone check.</p><p>On each trial, you will hear three tones. One of these tones will be quieter than the others. Your task is to identify whether the quiet tone occurred first, second, or third.</p><p>There are six trials in total.<p></p><p></p>(Press SPACEBAR to begin)","","32","","","","","","","","","","","","","","","","","","","",""
"html-keyboard-response","6","38224","0.0-3.0-1.0-0.0","01d92d17ed0ea9d99d2bac6381808c7ee69318be66dd3daf29c6bf4568786f8d","arctic","swim","null","","<div style=""font-size:60px;"">+</div>","","null","","","","","","","","","","","","","","","","","","","",""
"audio-button-response","7","42880","0.0-3.0-1.0-1.0","01d92d17ed0ea9d99d2bac6381808c7ee69318be66dd3daf29c6bf4568786f8d","arctic","swim","4656","","audio/t2_1.mp3","1","","1","1","headphone-test","","","","","","","","","","","","","","","","",""
"html-keyboard-response","8","43385","0.0-3.0-1.0-2.0","01d92d17ed0ea9d99d2bac6381808c7ee69318be66dd3daf29c6bf4568786f8d","arctic","swim","null","","<p>Correct</p>","","null","","","","","","","","","","","","","","","","","","","",""
"html-keyboard-response","9","43891","0.0-3.0-1.0-0.1","01d92d17ed0ea9d99d2bac6381808c7ee69318be66dd3daf29c6bf4568786f8d","arctic","swim","null","","<div style=""font-size:60px;"">+</div>","","null","","","","","","","","","","","","","","","","","","","",""
"audio-button-response","10","48423","0.0-3.0-1.0-1.1","01d92d17ed0ea9d99d2bac6381808c7ee69318be66dd3daf29c6bf4568786f8d","arctic","swim","4532","","audio/t2_2.mp3","1","","1","1","headphone-test","","","","","","","","","","","","","","","","",""
"html-keyboard-response","11","48930","0.0-3.0-1.0-2.1","01d92d17ed0ea9d99d2bac6381808c7ee69318be66dd3daf29c6bf4568786f8d","arctic","swim","null","","<p>Correct</p>","","null","","","","","","","","","","","","","","","","","","","",""
"html-keyboard-response","12","49438","0.0-3.0-1.0-0.2","01d92d17ed0ea9d99d2bac6381808c7ee69318be66dd3daf29c6bf4568786f8d","arctic","swim","null","","<div style=""font-size:60px;"">+</div>","","null","","","","","","","","","","","","","","","","","","","",""
"audio-button-response","13","54061","0.0-3.0-1.0-1.2","01d92d17ed0ea9d99d2bac6381808c7ee69318be66dd3daf29c6bf4568786f8d","arctic","swim","4623","","audio/t3_1.mp3","2","","2","1","headphone-test","","","","","","","","","","","","","","","","",""
"html-keyboard-response","14","54563","0.0-3.0-1.0-2.2","01d92d17ed0ea9d99d2bac6381808c7ee69318be66dd3daf29c6bf4568786f8d","arctic","swim","null","","<p>Correct</p>","","null","","","","","","","","","","","","","","","","","","","",""
"html-keyboard-response","15","55067","0.0-3.0-1.0-0.3","01d92d17ed0ea9d99d2bac6381808c7ee69318be66dd3daf29c6bf4568786f8d","arctic","swim","null","","<div style=""font-size:60px;"">+</div>","","null","","","","","","","","","","","","","","","","","","","",""
"audio-button-response","16","59817","0.0-3.0-1.0-1.3","01d92d17ed0ea9d99d2bac6381808c7ee69318be66dd3daf29c6bf4568786f8d","arctic","swim","4750","","audio/t1_2.mp3","0","","0","1","headphone-test","","","","","","","","","","","","","","","","",""
"html-keyboard-response","17","60323","0.0-3.0-1.0-2.3","01d92d17ed0ea9d99d2bac6381808c7ee69318be66dd3daf29c6bf4568786f8d","arctic","swim","null","","<p>Correct</p>","","null","","","","","","","","","","","","","","","","","","","",""
"html-keyboard-response","18","60827","0.0-3.0-1.0-0.4","01d92d17ed0ea9d99d2bac6381808c7ee69318be66dd3daf29c6bf4568786f8d","arctic","swim","null","","<div style=""font-size:60px;"">+</div>","","null","","","","","","","","","","","","","","","","","","","",""
"audio-button-response","19","65262","0.0-3.0-1.0-1.4","01d92d17ed0ea9d99d2bac6381808c7ee69318be66dd3daf29c6bf4568786f8d","arctic","swim","4433","","audio/t3_2.mp3","0","","2","0","headphone-test","","","","","","","","","","","","","","","","",""
"html-keyboard-response","20","65773","0.0-3.0-1.0-2.4","01d92d17ed0ea9d99d2bac6381808c7ee69318be66dd3daf29c6bf4568786f8d","arctic","swim","null","","<p>Incorrect</p>","","null","","","","","","","","","","","","","","","","","","","",""
"html-keyboard-response","21","66282","0.0-3.0-1.0-0.5","01d92d17ed0ea9d99d2bac6381808c7ee69318be66dd3daf29c6bf4568786f8d","arctic","swim","null","","<div style=""font-size:60px;"">+</div>","","null","","","","","","","","","","","","","","","","","","","",""
"audio-button-response","22","70458","0.0-3.0-1.0-1.5","01d92d17ed0ea9d99d2bac6381808c7ee69318be66dd3daf29c6bf4568786f8d","arctic","swim","4175","","audio/t1_1.mp3","0","","0","1","headphone-test","","","","","","","","","","","","","","","","",""
"html-keyboard-response","23","70965","0.0-3.0-1.0-2.5","01d92d17ed0ea9d99d2bac6381808c7ee69318be66dd3daf29c6bf4568786f8d","arctic","swim","null","","<p>Correct</p>","","null","","","","","","","","","","","","","","","","","","","",""
"fullscreen","24","80796","0.0-4.0","01d92d17ed0ea9d99d2bac6381808c7ee69318be66dd3daf29c6bf4568786f8d","arctic","swim","","","","","","","","","true","","","","","","","","","","","","","","","",""
"html-button-response","25","90542","0.0-5.0-0.0","01d92d17ed0ea9d99d2bac6381808c7ee69318be66dd3daf29c6bf4568786f8d","arctic","swim","9745","","<p>There are two blocks to this experiment.</p><p>In each block, you will hear a ~13.5 minute story. One of the stories will be scrambled. Please listen carefully to both stories and understand them as best you can.</p><p>After each story, you will be asked some questions to assess your comprehension.</p>","0","","","","","","","","","","","","","","","","","","","","",""
"html-button-response","26","106230","0.0-5.0-1.0","01d92d17ed0ea9d99d2bac6381808c7ee69318be66dd3daf29c6bf4568786f8d","arctic","swim","15688","","<p>During each story, there will be an additional task.</p><p>A letter will occasionally appear on the screen.</br>Your job is to - as quickly as you can - decide whether the letter is lowercase or uppercase and press one of two keys on the keyboard:</p><p>If the letter is <b>lowercase</b>, press key &lt;<b>x</b>&gt;.</p><p>If the letter is <b>uppercase</b>, press key &lt;<b>m</b>&gt;.</p>","0","","","","","","","","","","","","","","","","","","","","",""
"html-keyboard-response","27","191662","0.0-5.0-2.0","01d92d17ed0ea9d99d2bac6381808c7ee69318be66dd3daf29c6bf4568786f8d","arctic","swim","85431","","<p>Because we want your responses to be as quick as possible, please keep your index fingers over the keys while listening.</p><p>Each block lasts about 20 minutes.</p><p><b>Press &lt;x&gt; or &lt;m&gt; to start the first block!</b></p>","","88","","","","","","","","","","","","","","","","","","","",""
"html-keyboard-response","28","192163","0.0-6.0-0.0-0.0","01d92d17ed0ea9d99d2bac6381808c7ee69318be66dd3daf29c6bf4568786f8d","arctic","swim","null","","<div style=""font-size:60px;"" tabindex=""0"">+</div>","","null","","","","","","","","","","","","","","","","","","","",""
"dual-task","null","null","null","","arctic","swim","1873.300000000745","","b","null","88","88","1","arctic-dual-task","","b","lowercase","16000","0","4","01d92d17ed0ea9d99d2bac6381808c7ee69318be66dd3daf29c6bf4568786f8d","16003.099999997765","1873.300000000745","88","1","arctic","","","","",""
"dual-task","null","null","null","","arctic","swim","631.6999999992549","","f","null","88","88","1","arctic-dual-task","","f","lowercase","22000","0","4","01d92d17ed0ea9d99d2bac6381808c7ee69318be66dd3daf29c6bf4568786f8d","22005","631.6999999992549","88","1","arctic","","","","",""
"dual-task","null","null","null","","arctic","swim","488.6000000014901","","r","null","88","88","1","arctic-dual-task","","r","lowercase","30000","0","4","01d92d17ed0ea9d99d2bac6381808c7ee69318be66dd3daf29c6bf4568786f8d","30014.29999999702","488.6000000014901","88","1","arctic","","","","",""
"dual-task","null","null","null","","arctic","swim","1074.6000000014901","","n","null","88","88","1","arctic-dual-task","","n","lowercase","40000","0","4","01d92d17ed0ea9d99d2bac6381808c7ee69318be66dd3daf29c6bf4568786f8d","40013.29999999702","1074.6000000014901","88","1","arctic","","","","",""
"dual-task","null","null","null","","arctic","swim","500.19999999925494","","t","null","88","88","1","arctic-dual-task","","t","lowercase","52000","0","4","01d92d17ed0ea9d99d2bac6381808c7ee69318be66dd3daf29c6bf4568786f8d","52004.89999999851","500.19999999925494","88","1","arctic","","","","",""
"dual-task","null","null","null","","arctic","swim","408.6000000014901","","f","null","88","88","1","arctic-dual-task","","f","lowercase","60000","0","4","01d92d17ed0ea9d99d2bac6381808c7ee69318be66dd3daf29c6bf4568786f8d","60000.099999997765","408.6000000014901","88","1","arctic","","","","",""
"dual-task","null","null","null","","arctic","swim","478.19999999925494","","d","null","88","88","1","arctic-dual-task","","d","lowercase","66000","0","4","01d92d17ed0ea9d99d2bac6381808c7ee69318be66dd3daf29c6bf4568786f8d","66013","478.19999999925494","88","1","arctic","","","","",""
"dual-task","null","null","null","","arctic","swim","419.4000000022352","","g","null","88","88","1","arctic-dual-task","","g","lowercase","74000","0","4","01d92d17ed0ea9d99d2bac6381808c7ee69318be66dd3daf29c6bf4568786f8d","74015","419.4000000022352","88","1","arctic","","","","",""
"dual-task","null","null","null","","arctic","swim","493.5999999977648","","d","null","88","88","1","arctic-dual-task","","d","lowercase","80000","0","4","01d92d17ed0ea9d99d2bac6381808c7ee69318be66dd3daf29c6bf4568786f8d","80006.89999999851","493.5999999977648","88","1","arctic","","","","",""
"dual-task","null","null","null","","arctic","swim","485","","g","null","88","88","1","arctic-dual-task","","g","lowercase","94000","0","4","01d92d17ed0ea9d99d2bac6381808c7ee69318be66dd3daf29c6bf4568786f8d","94009","485","88","1","arctic","","","","",""
"dual-task","null","null","null","","arctic","swim","1026","","A","null","77","77","1","arctic-dual-task","","A","uppercase","106000","0","4","01d92d17ed0ea9d99d2bac6381808c7ee69318be66dd3daf29c6bf4568786f8d","106005.69999999925","1026","77","1","arctic","","","","",""
"dual-task","null","null","null","","arctic","swim","989.6999999992549","","B","null","77","77","1","arctic-dual-task","","B","uppercase","118000","0","4","01d92d17ed0ea9d99d2bac6381808c7ee69318be66dd3daf29c6bf4568786f8d","118011.09999999776","989.6999999992549","77","1","arctic","","","","",""
"dual-task","null","null","null","","arctic","swim","621.1999999992549","","R","null","77","77","1","arctic-dual-task","","R","uppercase","130000","0","4","01d92d17ed0ea9d99d2bac6381808c7ee69318be66dd3daf29c6bf4568786f8d","130013","621.1999999992549","77","1","arctic","","","","",""
"dual-task","null","null","null","","arctic","swim","432.9000000022352","","F","null","77","77","1","arctic-dual-task","","F","uppercase","142000","0","4","01d92d17ed0ea9d99d2bac6381808c7ee69318be66dd3daf29c6bf4568786f8d","142010.69999999925","432.9000000022352","77","1","arctic","","","","",""
"dual-task","null","null","null","","arctic","swim","452.69999999925494","","A","null","77","77","1","arctic-dual-task","","A","uppercase","156000","0","4","01d92d17ed0ea9d99d2bac6381808c7ee69318be66dd3daf29c6bf4568786f8d","156000.59999999776","452.69999999925494","77","1","arctic","","","","",""
"dual-task","null","null","null","","arctic","swim","1358.5","","e","null","88","88","1","arctic-dual-task","","e","lowercase","162000","0","4","01d92d17ed0ea9d99d2bac6381808c7ee69318be66dd3daf29c6bf4568786f8d","162014.5","1358.5","88","1","arctic","","","","",""
"dual-task","null","null","null","","arctic","swim","536.3000000007451","","g","null","88","88","1","arctic-dual-task","","g","lowercase","176000","0","4","01d92d17ed0ea9d99d2bac6381808c7ee69318be66dd3daf29c6bf4568786f8d","176007.29999999702","536.3000000007451","88","1","arctic","","","","",""
"dual-task","null","null","null","","arctic","swim","584.7000000029802","","f","null","88","88","1","arctic-dual-task","","f","lowercase","184000","0","4","01d92d17ed0ea9d99d2bac6381808c7ee69318be66dd3daf29c6bf4568786f8d","184006.19999999925","584.7000000029802","88","1","arctic","","","","",""
"dual-task","null","null","null","","arctic","swim","517.1999999992549","","g","null","88","88","1","arctic-dual-task","","g","lowercase","192000","0","4","01d92d17ed0ea9d99d2bac6381808c7ee69318be66dd3daf29c6bf4568786f8d","192012.5","517.1999999992549","88","1","arctic","","","","",""
"dual-task","null","null","null","","arctic","swim","934.8000000007451","","H","null","77","77","1","arctic-dual-task","","H","uppercase","206000","0","4","01d92d17ed0ea9d99d2bac6381808c7ee69318be66dd3daf29c6bf4568786f8d","206004.09999999776","934.8000000007451","77","1","arctic","","","","",""
"dual-task","null","null","null","","arctic","swim","548.6999999992549","","H","null","77","77","1","arctic-dual-task","","H","uppercase","216000","0","4","01d92d17ed0ea9d99d2bac6381808c7ee69318be66dd3daf29c6bf4568786f8d","216013.69999999925","548.6999999992549","77","1","arctic","","","","",""
"dual-task","null","null","null","","arctic","swim","410.19999999925494","","N","null","77","77","1","arctic-dual-task","","N","uppercase","226000","0","4","01d92d17ed0ea9d99d2bac6381808c7ee69318be66dd3daf29c6bf4568786f8d","226003.09999999776","410.19999999925494","77","1","arctic","","","","",""
"dual-task","null","null","null","","arctic","swim","410.0999999977648","","H","null","77","77","1","arctic-dual-task","","H","uppercase","238000","0","4","01d92d17ed0ea9d99d2bac6381808c7ee69318be66dd3daf29c6bf4568786f8d","238004","410.0999999977648","77","1","arctic","","","","",""
"dual-task","null","null","null","","arctic","swim","1663.9000000022352","","q","null","88","88","1","arctic-dual-task","","q","lowercase","252000","0","4","01d92d17ed0ea9d99d2bac6381808c7ee69318be66dd3daf29c6bf4568786f8d","252008.29999999702","1663.9000000022352","88","1","arctic","","","","",""
"dual-task","null","null","null","","arctic","swim","1048.199999999255","","B","null","77","77","1","arctic-dual-task","","B","uppercase","262000","0","4","01d92d17ed0ea9d99d2bac6381808c7ee69318be66dd3daf29c6bf4568786f8d","262015.59999999776","1048.199999999255","77","1","arctic","","","","",""
"dual-task","null","null","null","","arctic","swim","1004.9000000022352","","N","null","77","77","1","arctic-dual-task","","N","uppercase","272000","0","4","01d92d17ed0ea9d99d2bac6381808c7ee69318be66dd3daf29c6bf4568786f8d","272005.19999999925","1004.9000000022352","77","1","arctic","","","","",""
"dual-task","null","null","null","","arctic","swim","1690","","n","null","88","88","1","arctic-dual-task","","n","lowercase","280000","0","4","01d92d17ed0ea9d99d2bac6381808c7ee69318be66dd3daf29c6bf4568786f8d","280000","1690","88","1","arctic","","","","",""
"dual-task","null","null","null","","arctic","swim","960.3000000007451","","T","null","77","77","1","arctic-dual-task","","T","uppercase","288000","0","4","01d92d17ed0ea9d99d2bac6381808c7ee69318be66dd3daf29c6bf4568786f8d","288003.8999999985","960.3000000007451","77","1","arctic","","","","",""
"dual-task","null","null","null","","arctic","swim","1318.9000000022352","","r","null","88","88","1","arctic-dual-task","","r","lowercase","294000","0","4","01d92d17ed0ea9d99d2bac6381808c7ee69318be66dd3daf29c6bf4568786f8d","294012.5","1318.9000000022352","88","1","arctic","","","","",""
"dual-task","null","null","null","","arctic","swim","1177.5999999977648","","h","null","88","88","1","arctic-dual-task","","h","lowercase","302000","0","4","01d92d17ed0ea9d99d2bac6381808c7ee69318be66dd3daf29c6bf4568786f8d","302003.8999999985","1177.5999999977648","88","1","arctic","","","","",""
"dual-task","null","null","null","","arctic","swim","1096","","T","null","77","77","1","arctic-dual-task","","T","uppercase","308000","0","4","01d92d17ed0ea9d99d2bac6381808c7ee69318be66dd3daf29c6bf4568786f8d","308013","1096","77","1","arctic","","","","",""
"dual-task","null","null","null","","arctic","swim","980.1999999992549","","E","null","77","77","1","arctic-dual-task","","E","uppercase","318000","0","4","01d92d17ed0ea9d99d2bac6381808c7ee69318be66dd3daf29c6bf4568786f8d","318011.09999999776","980.1999999992549","77","1","arctic","","","","",""
"dual-task","null","null","null","","arctic","swim","761.0999999977648","","H","null","77","77","1","arctic-dual-task","","H","uppercase","324000","0","4","01d92d17ed0ea9d99d2bac6381808c7ee69318be66dd3daf29c6bf4568786f8d","324014","761.0999999977648","77","1","arctic","","","","",""
"dual-task","null","null","null","","arctic","swim","512.8000000007451","","G","null","77","77","1","arctic-dual-task","","G","uppercase","330000","0","4","01d92d17ed0ea9d99d2bac6381808c7ee69318be66dd3daf29c6bf4568786f8d","330015.799999997","512.8000000007451","77","1","arctic","","","","",""
"dual-task","null","null","null","","arctic","swim","1048.7000000029802","","a","null","88","88","1","arctic-dual-task","","a","lowercase","338000","0","4","01d92d17ed0ea9d99d2bac6381808c7ee69318be66dd3daf29c6bf4568786f8d","338007.69999999925","1048.7000000029802","88","1","arctic","","","","",""
"dual-task","null","null","null","","arctic","swim","562.8999999985099","","f","null","88","88","1","arctic-dual-task","","f","lowercase","348000","0","4","01d92d17ed0ea9d99d2bac6381808c7ee69318be66dd3daf29c6bf4568786f8d","348007.8999999985","562.8999999985099","88","1","arctic","","","","",""
"dual-task","null","null","null","","arctic","swim","783.1999999992549","","q","null","88","88","1","arctic-dual-task","","q","lowercase","362000","0","4","01d92d17ed0ea9d99d2bac6381808c7ee69318be66dd3daf29c6bf4568786f8d","362005.3999999985","783.1999999992549","88","1","arctic","","","","",""
"dual-task","null","null","null","","arctic","swim","1227.3999999985099","","D","null","77","77","1","arctic-dual-task","","D","uppercase","374000","0","4","01d92d17ed0ea9d99d2bac6381808c7ee69318be66dd3daf29c6bf4568786f8d","374010.299999997","1227.3999999985099","77","1","arctic","","","","",""
"dual-task","null","null","null","","arctic","swim","1037.8999999985099","","e","null","88","88","1","arctic-dual-task","","e","lowercase","384000","0","4","01d92d17ed0ea9d99d2bac6381808c7ee69318be66dd3daf29c6bf4568786f8d","384007.8999999985","1037.8999999985099","88","1","arctic","","","","",""
"dual-task","null","null","null","","arctic","swim","910.3000000007451","","t","null","88","88","1","arctic-dual-task","","t","lowercase","390000","0","4","01d92d17ed0ea9d99d2bac6381808c7ee69318be66dd3daf29c6bf4568786f8d","390008.69999999925","910.3000000007451","88","1","arctic","","","","",""
"dual-task","null","null","null","","arctic","swim","939.5","","A","null","77","77","1","arctic-dual-task","","A","uppercase","402000","0","4","01d92d17ed0ea9d99d2bac6381808c7ee69318be66dd3daf29c6bf4568786f8d","402013.8999999985","939.5","77","1","arctic","","","","",""
"dual-task","null","null","null","","arctic","swim","1006.3999999985099","","h","null","88","88","1","arctic-dual-task","","h","lowercase","410000","0","4","01d92d17ed0ea9d99d2bac6381808c7ee69318be66dd3daf29c6bf4568786f8d","410010.19999999925","1006.3999999985099","88","1","arctic","","","","",""
"dual-task","null","null","null","","arctic","swim","560","","q","null","88","88","1","arctic-dual-task","","q","lowercase","416000","0","4","01d92d17ed0ea9d99d2bac6381808c7ee69318be66dd3daf29c6bf4568786f8d","416002.299999997","560","88","1","arctic","","","","",""
"dual-task","null","null","null","","arctic","swim","986.6000000014901","","F","null","77","77","1","arctic-dual-task","","F","uppercase","426000","0","4","01d92d17ed0ea9d99d2bac6381808c7ee69318be66dd3daf29c6bf4568786f8d","426009.09999999776","986.6000000014901","77","1","arctic","","","","",""
"dual-task","null","null","null","","arctic","swim","1096.3999999985099","","G","null","77","77","1","arctic-dual-task","","G","uppercase","434000","0","4","01d92d17ed0ea9d99d2bac6381808c7ee69318be66dd3daf29c6bf4568786f8d","434011","1096.3999999985099","77","1","arctic","","","","",""
"dual-task","null","null","null","","arctic","swim","389.9000000022352","","R","null","77","77","1","arctic-dual-task","","R","uppercase","444000","0","4","01d92d17ed0ea9d99d2bac6381808c7ee69318be66dd3daf29c6bf4568786f8d","444000.19999999925","389.9000000022352","77","1","arctic","","","","",""
"dual-task","null","null","null","","arctic","swim","492.0999999977648","","D","null","77","77","1","arctic-dual-task","","D","uppercase","458000","0","4","01d92d17ed0ea9d99d2bac6381808c7ee69318be66dd3daf29c6bf4568786f8d","458003.19999999925","492.0999999977648","77","1","arctic","","","","",""
"dual-task","null","null","null","","arctic","swim","480.80000000074506","","N","null","77","77","1","arctic-dual-task","","N","uppercase","466000","0","4","01d92d17ed0ea9d99d2bac6381808c7ee69318be66dd3daf29c6bf4568786f8d","466006.09999999776","480.80000000074506","77","1","arctic","","","","",""
"dual-task","null","null","null","","arctic","swim","616.8999999985099","","B","null","77","77","1","arctic-dual-task","","B","uppercase","478000","0","4","01d92d17ed0ea9d99d2bac6381808c7ee69318be66dd3daf29c6bf4568786f8d","478008.59999999776","616.8999999985099","77","1","arctic","","","","",""
"dual-task","null","null","null","","arctic","swim","1430.800000000745","","d","null","88","88","1","arctic-dual-task","","d","lowercase","492000","0","4","01d92d17ed0ea9d99d2bac6381808c7ee69318be66dd3daf29c6bf4568786f8d","492004.69999999925","1430.800000000745","88","1","arctic","","","","",""
"dual-task","null","null","null","","arctic","swim","944.5","","Q","null","77","77","1","arctic-dual-task","","Q","uppercase","506000","0","4","01d92d17ed0ea9d99d2bac6381808c7ee69318be66dd3daf29c6bf4568786f8d","506012.299999997","944.5","77","1","arctic","","","","",""
"dual-task","null","null","null","","arctic","swim","1107.5","","e","null","88","88","1","arctic-dual-task","","e","lowercase","520000","0","4","01d92d17ed0ea9d99d2bac6381808c7ee69318be66dd3daf29c6bf4568786f8d","520003.799999997","1107.5","88","1","arctic","","","","",""
"dual-task","null","null","null","","arctic","swim","996.6999999992549","","N","null","77","77","1","arctic-dual-task","","N","uppercase","532000","0","4","01d92d17ed0ea9d99d2bac6381808c7ee69318be66dd3daf29c6bf4568786f8d","532003.0999999978","996.6999999992549","77","1","arctic","","","","",""
"dual-task","null","null","null","","arctic","swim","963.1000000014901","","F","null","77","77","1","arctic-dual-task","","F","uppercase","544000","0","4","01d92d17ed0ea9d99d2bac6381808c7ee69318be66dd3daf29c6bf4568786f8d","544006","963.1000000014901","77","1","arctic","","","","",""
"dual-task","null","null","null","","arctic","swim","801.3000000007451","","G","null","77","77","1","arctic-dual-task","","G","uppercase","550000","0","4","01d92d17ed0ea9d99d2bac6381808c7ee69318be66dd3daf29c6bf4568786f8d","550015.0999999978","801.3000000007451","77","1","arctic","","","","",""
"dual-task","null","null","null","","arctic","swim","704.8000000007451","","E","null","77","77","1","arctic-dual-task","","E","uppercase","558000","0","4","01d92d17ed0ea9d99d2bac6381808c7ee69318be66dd3daf29c6bf4568786f8d","558001.5999999978","704.8000000007451","77","1","arctic","","","","",""
"dual-task","null","null","null","","arctic","swim","584.8999999985099","","E","null","77","77","1","arctic-dual-task","","E","uppercase","566000","0","4","01d92d17ed0ea9d99d2bac6381808c7ee69318be66dd3daf29c6bf4568786f8d","566001.299999997","584.8999999985099","77","1","arctic","","","","",""
"dual-task","null","null","null","","arctic","swim","606.2000000029802","","Q","null","77","77","1","arctic-dual-task","","Q","uppercase","580000","0","4","01d92d17ed0ea9d99d2bac6381808c7ee69318be66dd3daf29c6bf4568786f8d","580015.299999997","606.2000000029802","77","1","arctic","","","","",""
"dual-task","null","null","null","","arctic","swim","511.0999999977648","","Q","null","77","77","1","arctic-dual-task","","Q","uppercase","588000","0","4","01d92d17ed0ea9d99d2bac6381808c7ee69318be66dd3daf29c6bf4568786f8d","588005.5999999978","511.0999999977648","77","1","arctic","","","","",""
"dual-task","null","null","null","","arctic","swim","1296.699999999255","","a","null","88","88","1","arctic-dual-task","","a","lowercase","598000","0","4","01d92d17ed0ea9d99d2bac6381808c7ee69318be66dd3daf29c6bf4568786f8d","598014.6999999993","1296.699999999255","88","1","arctic","","","","",""
"dual-task","null","null","null","","arctic","swim","632.1999999992549","","b","null","88","88","1","arctic-dual-task","","b","lowercase","606000","0","4","01d92d17ed0ea9d99d2bac6381808c7ee69318be66dd3daf29c6bf4568786f8d","606014.5999999978","632.1999999992549","88","1","arctic","","","","",""
"dual-task","null","null","null","","arctic","swim","1081.4000000022352","","G","null","77","77","1","arctic-dual-task","","G","uppercase","616000","0","4","01d92d17ed0ea9d99d2bac6381808c7ee69318be66dd3daf29c6bf4568786f8d","616007.6999999993","1081.4000000022352","77","1","arctic","","","","",""
"dual-task","null","null","null","","arctic","swim","548.3999999985099","","B","null","77","77","1","arctic-dual-task","","B","uppercase","630000","0","4","01d92d17ed0ea9d99d2bac6381808c7ee69318be66dd3daf29c6bf4568786f8d","630006.1999999993","548.3999999985099","77","1","arctic","","","","",""
"dual-task","null","null","null","","arctic","swim","1085.199999999255","","r","null","88","88","1","arctic-dual-task","","r","lowercase","640000","0","4","01d92d17ed0ea9d99d2bac6381808c7ee69318be66dd3daf29c6bf4568786f8d","640015","1085.199999999255","88","1","arctic","","","","",""
"dual-task","null","null","null","","arctic","swim","576.3999999985099","","h","null","88","88","1","arctic-dual-task","","h","lowercase","652000","0","4","01d92d17ed0ea9d99d2bac6381808c7ee69318be66dd3daf29c6bf4568786f8d","652012.8999999985","576.3999999985099","88","1","arctic","","","","",""
"dual-task","null","null","null","","arctic","swim","1067.1000000014901","","R","null","77","77","1","arctic-dual-task","","R","uppercase","666000","0","4","01d92d17ed0ea9d99d2bac6381808c7ee69318be66dd3daf29c6bf4568786f8d","666003.799999997","1067.1000000014901","77","1","arctic","","","","",""
"dual-task","null","null","null","","arctic","swim","1060.800000000745","","b","null","88","88","1","arctic-dual-task","","b","lowercase","676000","0","4","01d92d17ed0ea9d99d2bac6381808c7ee69318be66dd3daf29c6bf4568786f8d","676002.0999999978","1060.800000000745","88","1","arctic","","","","",""
"dual-task","null","null","null","","arctic","swim","987.3999999985099","","E","null","77","77","1","arctic-dual-task","","E","uppercase","684000","0","4","01d92d17ed0ea9d99d2bac6381808c7ee69318be66dd3daf29c6bf4568786f8d","684005.799999997","987.3999999985099","77","1","arctic","","","","",""
"dual-task","null","null","null","","arctic","swim","1033.5999999977648","","t","null","88","88","1","arctic-dual-task","","t","lowercase","694000","0","4","01d92d17ed0ea9d99d2bac6381808c7ee69318be66dd3daf29c6bf4568786f8d","694000.8999999985","1033.5999999977648","88","1","arctic","","","","",""
"dual-task","null","null","null","","arctic","swim","1688.8999999985099","","n","null","88","88","1","arctic-dual-task","","n","lowercase","706000","0","4","01d92d17ed0ea9d99d2bac6381808c7ee69318be66dd3daf29c6bf4568786f8d","706002.5999999978","1688.8999999985099","88","1","arctic","","","","",""
"dual-task","null","null","null","","arctic","swim","1003","","D","null","77","77","1","arctic-dual-task","","D","uppercase","714000","0","4","01d92d17ed0ea9d99d2bac6381808c7ee69318be66dd3daf29c6bf4568786f8d","714008.0999999978","1003","77","1","arctic","","","","",""
"dual-task","null","null","null","","arctic","swim","1423.3999999985099","","a","null","88","88","1","arctic-dual-task","","a","lowercase","728000","0","4","01d92d17ed0ea9d99d2bac6381808c7ee69318be66dd3daf29c6bf4568786f8d","728006.3999999985","1423.3999999985099","88","1","arctic","","","","",""
"dual-task","null","null","null","","arctic","swim","970","","T","null","77","77","1","arctic-dual-task","","T","uppercase","742000","0","4","01d92d17ed0ea9d99d2bac6381808c7ee69318be66dd3daf29c6bf4568786f8d","742014","970","77","1","arctic","","","","",""
"dual-task","null","null","null","","arctic","swim","1031.300000000745","","r","null","88","88","1","arctic-dual-task","","r","lowercase","756000","0","4","01d92d17ed0ea9d99d2bac6381808c7ee69318be66dd3daf29c6bf4568786f8d","756001.6999999993","1031.300000000745","88","1","arctic","","","","",""
"dual-task","null","null","null","","arctic","swim","1231.5999999977648","","a","null","88","88","1","arctic-dual-task","","a","lowercase","762000","0","4","01d92d17ed0ea9d99d2bac6381808c7ee69318be66dd3daf29c6bf4568786f8d","762000.8999999985","1231.5999999977648","88","1","arctic","","","","",""
"dual-task","null","null","null","","arctic","swim","432.6000000014901","","e","null","88","88","1","arctic-dual-task","","e","lowercase","770000","0","4","01d92d17ed0ea9d99d2bac6381808c7ee69318be66dd3daf29c6bf4568786f8d","770001.799999997","432.6000000014901","88","1","arctic","","","","",""
"dual-task","null","null","null","","arctic","swim","492.70000000298023","","t","null","88","88","1","arctic-dual-task","","t","lowercase","776000","0","4","01d92d17ed0ea9d99d2bac6381808c7ee69318be66dd3daf29c6bf4568786f8d","776013.299999997","492.70000000298023","88","1","arctic","","","","",""
"dual-task","null","null","null","","arctic","swim","481.80000000074506","","b","null","88","88","1","arctic-dual-task","","b","lowercase","784000","0","4","01d92d17ed0ea9d99d2bac6381808c7ee69318be66dd3daf29c6bf4568786f8d","784010.1999999993","481.80000000074506","88","1","arctic","","","","",""
"audio-keyboard-response","29","990215","0.0-6.0-0.0-1.0","01d92d17ed0ea9d99d2bac6381808c7ee69318be66dd3daf29c6bf4568786f8d","arctic","swim","null","","audio/story_arctic.mp3","","null","","","","","","","","","","","","","","","","","","","",""
"html-button-response","30","1059699","0.0-6.0-0.0-2.0","01d92d17ed0ea9d99d2bac6381808c7ee69318be66dd3daf29c6bf4568786f8d","arctic","swim","69483","","<p>This concludes the story. Thank you for listening.</p><p>You will now answer some questions about the content of the story.</p>","0","","","","","","","","","","","","","","","","","","","","",""
"survey-multi-choice","31","1065221","0.0-6.0-0.0-3.0-0.0","01d92d17ed0ea9d99d2bac6381808c7ee69318be66dd3daf29c6bf4568786f8d","arctic","swim","5519","","<b>How many sponsorships did the narrator receive to support her expedition?</b>","","","","1","arctic-comprehension","","","","","","","","","","","","","{""Q0"":""None""}","","","",""
"survey-multi-choice","32","1072671","0.0-6.0-0.0-3.0-0.1","01d92d17ed0ea9d99d2bac6381808c7ee69318be66dd3daf29c6bf4568786f8d","arctic","swim","7197","","<b>How did the dogs respond when they saw the bears?</b>","","","","1","arctic-comprehension","","","","","","","","","","","","","{""Q0"":""Approached them""}","","","",""
"survey-multi-choice","33","1075928","0.0-6.0-0.0-3.0-0.2","01d92d17ed0ea9d99d2bac6381808c7ee69318be66dd3daf29c6bf4568786f8d","arctic","swim","3003","","<b>What is the name of the narrator&#39;s neighbour?</b>","","","","1","arctic-comprehension","","","","","","","","","","","","","{""Q0"":""Dave""}","","","",""
"survey-multi-choice","34","1081828","0.0-6.0-0.0-3.0-0.3","01d92d17ed0ea9d99d2bac6381808c7ee69318be66dd3daf29c6bf4568786f8d","arctic","swim","5649","","<b>What were the weather conditions in the Arctic like the winter of the narrator&#39;s expedition?</b>","","","","1","arctic-comprehension","","","","","","","","","","","","","{""Q0"":""There were more storms than any other winter in recorded history.""}","","","",""
"survey-multi-choice","35","1085903","0.0-6.0-0.0-3.0-0.4","01d92d17ed0ea9d99d2bac6381808c7ee69318be66dd3daf29c6bf4568786f8d","arctic","swim","3822","","<b>How did the narrator&#39;s encounter with the polar bears end?</b>","","","","1","arctic-comprehension","","","","","","","","","","","","","{""Q0"":""The bears walked back to their den.""}","","","",""
"survey-multi-choice","36","1095770","0.0-6.0-0.0-3.0-0.5","01d92d17ed0ea9d99d2bac6381808c7ee69318be66dd3daf29c6bf4568786f8d","arctic","swim","9616","","<b>How did the narrator prepare for her expedition?</b>","","","","1","arctic-comprehension","","","","","","","","","","","","","{""Q0"":""Trained in Alaska learning how to dogsled""}","","","",""
"survey-multi-choice","37","1104035","0.0-6.0-0.0-3.0-0.6","01d92d17ed0ea9d99d2bac6381808c7ee69318be66dd3daf29c6bf4568786f8d","arctic","swim","8013","","<b>What was the objective of the narrator&#39;s expedition?</b>","","","","1","arctic-comprehension","","","","","","","","","","","","","{""Q0"":""Dogsled across Arctic America""}","","","",""
"survey-multi-choice","38","1110693","0.0-6.0-0.0-3.0-0.7","01d92d17ed0ea9d99d2bac6381808c7ee69318be66dd3daf29c6bf4568786f8d","arctic","swim","6405","","<b>What did the narrator do for leisure while in her tent?</b>","","","","1","arctic-comprehension","","","","","","","","","","","","","{""Q0"":""Read""}","","","",""
"survey-multi-choice","39","1115977","0.0-6.0-0.0-3.0-0.8","01d92d17ed0ea9d99d2bac6381808c7ee69318be66dd3daf29c6bf4568786f8d","arctic","swim","5031","","<b>Which dog on the narrator&#39;s dog team never followed instructions?</b>","","","","1","arctic-comprehension","","","","","","","","","","","","","{""Q0"":""Robert""}","","","",""
"survey-multi-choice","40","1123277","0.0-6.0-0.0-3.0-0.9","01d92d17ed0ea9d99d2bac6381808c7ee69318be66dd3daf29c6bf4568786f8d","arctic","swim","7047","","<b>How did the narrator&#39;s neighbour respond when she told him about her expedition?</b>","","","","1","arctic-comprehension","","","","","","","","","","","","","{""Q0"":""He said she was going to fail.""}","","","",""
"html-button-response","41","1126422","0.0-6.0-0.0-4.0","01d92d17ed0ea9d99d2bac6381808c7ee69318be66dd3daf29c6bf4568786f8d","arctic","swim","2895","","<p>Thank you for your responses.</p><p>You will now answer some questions about your impressions of the story.</p>","0","","","","","","","","","","","","","","","","","","","","",""
"html-button-response","42","1129725","0.0-6.0-0.0-5.0-0.0","01d92d17ed0ea9d99d2bac6381808c7ee69318be66dd3daf29c6bf4568786f8d","arctic","swim","3301","","MS1","4","","","","arctic-engagement","","","","","","","","","","","","","","5","mental-sim","",""
"html-button-response","43","1132563","0.0-6.0-0.0-5.0-0.1","01d92d17ed0ea9d99d2bac6381808c7ee69318be66dd3daf29c6bf4568786f8d","arctic","swim","2587","","EE1","3","","","","arctic-engagement","","","","","","","","","","","","","","4","emo-engage","",""
"html-button-response","44","1135090","0.0-6.0-0.0-5.0-0.2","01d92d17ed0ea9d99d2bac6381808c7ee69318be66dd3daf29c6bf4568786f8d","arctic","swim","2275","","A1","3","","","","arctic-engagement","","","","","","","","","","","","","","4","absorption","",""
"html-button-response","45","1137258","0.0-6.0-0.0-5.0-0.3","01d92d17ed0ea9d99d2bac6381808c7ee69318be66dd3daf29c6bf4568786f8d","arctic","swim","1918","","A4","3","","","","arctic-engagement","","","","","","","","","","","","","","4","absorption","",""
"html-button-response","46","1139463","0.0-6.0-0.0-5.0-0.4","01d92d17ed0ea9d99d2bac6381808c7ee69318be66dd3daf29c6bf4568786f8d","arctic","swim","1954","","EE4","3","","","","arctic-engagement","","","","","","","","","","","","","","4","emo-engage","",""
"html-button-response","47","1140951","0.0-6.0-0.0-5.0-0.5","01d92d17ed0ea9d99d2bac6381808c7ee69318be66dd3daf29c6bf4568786f8d","arctic","swim","1237","","E7","4","","","","arctic-engagement","","","","","","","","","","","","","","5","enjoyment","",""
"html-button-response","48","1142699","0.0-6.0-0.0-5.0-0.6","01d92d17ed0ea9d99d2bac6381808c7ee69318be66dd3daf29c6bf4568786f8d","arctic","swim","1495","","EE2","5","","","","arctic-engagement","","","","","","","","","","","","","","6","emo-engage","",""
"html-button-response","49","1144100","0.0-6.0-0.0-5.0-0.7","01d92d17ed0ea9d99d2bac6381808c7ee69318be66dd3daf29c6bf4568786f8d","arctic","swim","1149","","E10","5","","","","arctic-engagement","","","","","","","","","","","","","","6","enjoyment","",""
"html-button-response","50","1146899","0.0-6.0-0.0-5.0-0.8","01d92d17ed0ea9d99d2bac6381808c7ee69318be66dd3daf29c6bf4568786f8d","arctic","swim","2547","","A5","3","","","","arctic-engagement","","","","","","","","","","","","","","4","absorption","",""
"html-button-response","51","1148158","0.0-6.0-0.0-5.0-0.9","01d92d17ed0ea9d99d2bac6381808c7ee69318be66dd3daf29c6bf4568786f8d","arctic","swim","1008","","A3","3","","","","arctic-engagement","","","","","","","","","","","","","","4","absorption","",""
"html-button-response","52","1150191","0.0-6.0-0.0-5.0-0.10","01d92d17ed0ea9d99d2bac6381808c7ee69318be66dd3daf29c6bf4568786f8d","arctic","swim","1782","","EE5","4","","","","arctic-engagement","","","","","","","","","","","","","","5","emo-engage","",""
"html-button-response","53","1152141","0.0-6.0-0.0-5.0-0.11","01d92d17ed0ea9d99d2bac6381808c7ee69318be66dd3daf29c6bf4568786f8d","arctic","swim","1697","","MS3","4","","","","arctic-engagement","","","","","","","","","","","","","","5","mental-sim","",""
"html-button-response","54","1154773","0.0-6.0-0.0-5.0-0.12","01d92d17ed0ea9d99d2bac6381808c7ee69318be66dd3daf29c6bf4568786f8d","arctic","swim","2379","","MS2","5","","","","arctic-engagement","","","","","","","","","","","","","","6","mental-sim","",""
"html-button-response","55","1156222","0.0-6.0-0.0-5.0-0.13","01d92d17ed0ea9d99d2bac6381808c7ee69318be66dd3daf29c6bf4568786f8d","arctic","swim","1196","","EE3","4","","","","arctic-engagement","","","","","","","","","","","","","","5","emo-engage","",""
"html-button-response","56","1157937","0.0-6.0-0.0-5.0-0.14","01d92d17ed0ea9d99d2bac6381808c7ee69318be66dd3daf29c6bf4568786f8d","arctic","swim","1464","","E6","4","","","","arctic-engagement","","","","","","","","","","","","","","5","enjoyment","",""
"html-button-response","57","1159786","0.0-6.0-0.0-5.0-0.15","01d92d17ed0ea9d99d2bac6381808c7ee69318be66dd3daf29c6bf4568786f8d","arctic","swim","1597","","E8","3","","","","arctic-engagement","","","","","","","","","","","","","","4","enjoyment","",""
"html-button-response","58","1162186","0.0-6.0-0.0-5.0-0.16","01d92d17ed0ea9d99d2bac6381808c7ee69318be66dd3daf29c6bf4568786f8d","arctic","swim","2148","","A2","4","","","","arctic-engagement","","","","","","","","","","","","","","5","absorption","",""
"html-button-response","59","1164312","0.0-6.0-0.0-5.0-0.17","01d92d17ed0ea9d99d2bac6381808c7ee69318be66dd3daf29c6bf4568786f8d","arctic","swim","1875","","E1","4","","","","arctic-engagement","","","","","","","","","","","","","","5","enjoyment","",""
"html-keyboard-response","60","1171311","0.0-6.0-1.0","01d92d17ed0ea9d99d2bac6381808c7ee69318be66dd3daf29c6bf4568786f8d","arctic","swim","6748","","<p>Thank you for your responses. You will now listen to the second story.</p><p>Remember, as you listen to the story you will see letters appear on the screen.</br>As quickly as possible, press <b>&lt;x&gt;</b> if the letter is lowercase and <b>&lt;m&gt;</b> if the letter is uppercase.</p><p>Press <b>&lt;x&gt;</b> or <b>&lt;m&gt;</b> to begin listening!</p>","","88","","","","","","","","","","","","","","","","","","","",""
"html-keyboard-response","61","1171812","0.0-6.0-2.0-0.0","01d92d17ed0ea9d99d2bac6381808c7ee69318be66dd3daf29c6bf4568786f8d","arctic","swim","null","","<div style=""font-size:60px;"" tabindex=""0"">+</div>","","null","","","","","","","","","","","","","","","","","","","",""
"dual-task","null","null","null","","arctic","swim","1132.6000000014901","","Q","null","77","77","1","swim-dual-task","","Q","uppercase","16000","0","4","01d92d17ed0ea9d99d2bac6381808c7ee69318be66dd3daf29c6bf4568786f8d","16014.5","1132.6000000014901","77","1","swim","","","","",""
"dual-task","null","null","null","","arctic","swim","1132","","T","null","77","77","1","swim-dual-task","","T","uppercase","22000","0","4","01d92d17ed0ea9d99d2bac6381808c7ee69318be66dd3daf29c6bf4568786f8d","22006.699999999255","1132","77","1","swim","","","","",""
"dual-task","null","null","null","","arctic","swim","1327.800000000745","","H","null","77","77","1","swim-dual-task","","H","uppercase","36000","0","4","01d92d17ed0ea9d99d2bac6381808c7ee69318be66dd3daf29c6bf4568786f8d","36014.199999999255","1327.800000000745","77","1","swim","","","","",""
"dual-task","null","null","null","","arctic","swim","1605.300000000745","","h","null","88","88","1","swim-dual-task","","h","lowercase","46000","0","4","01d92d17ed0ea9d99d2bac6381808c7ee69318be66dd3daf29c6bf4568786f8d","46009.39999999851","1605.300000000745","88","1","swim","","","","",""
"dual-task","null","null","null","","arctic","swim","1340.1000000014901","","q","null","88","88","1","swim-dual-task","","q","lowercase","52000","0","4","01d92d17ed0ea9d99d2bac6381808c7ee69318be66dd3daf29c6bf4568786f8d","52002","1340.1000000014901","88","1","swim","","","","",""
"dual-task","null","null","null","","arctic","swim","1358.5","","h","null","88","88","1","swim-dual-task","","h","lowercase","60000","0","4","01d92d17ed0ea9d99d2bac6381808c7ee69318be66dd3daf29c6bf4568786f8d","60010.199999999255","1358.5","88","1","swim","","","","",""
"dual-task","null","null","null","","arctic","swim","529.5999999977648","","b","null","88","88","1","swim-dual-task","","b","lowercase","70000","0","4","01d92d17ed0ea9d99d2bac6381808c7ee69318be66dd3daf29c6bf4568786f8d","70006.5","529.5999999977648","88","1","swim","","","","",""
"dual-task","null","null","null","","arctic","swim","571.2999999970198","","b","null","88","88","1","swim-dual-task","","b","lowercase","84000","0","4","01d92d17ed0ea9d99d2bac6381808c7ee69318be66dd3daf29c6bf4568786f8d","84000.39999999851","571.2999999970198","88","1","swim","","","","",""
"dual-task","null","null","null","","arctic","swim","1709.2000000029802","","B","null","77","77","1","swim-dual-task","","B","uppercase","90000","0","4","01d92d17ed0ea9d99d2bac6381808c7ee69318be66dd3daf29c6bf4568786f8d","90013.09999999776","1709.2000000029802","77","1","swim","","","","",""
"dual-task","null","null","null","","arctic","swim","1762.2999999970198","","e","null","88","88","1","swim-dual-task","","e","lowercase","102000","0","4","01d92d17ed0ea9d99d2bac6381808c7ee69318be66dd3daf29c6bf4568786f8d","102010.79999999702","1762.2999999970198","88","1","swim","","","","",""
"dual-task","null","null","null","","arctic","swim","1130.5999999977648","","N","null","77","77","1","swim-dual-task","","N","uppercase","114000","0","4","01d92d17ed0ea9d99d2bac6381808c7ee69318be66dd3daf29c6bf4568786f8d","114011.89999999851","1130.5999999977648","77","1","swim","","","","",""
"dual-task","null","null","null","","arctic","swim","969.1000000014901","","n","null","88","88","1","swim-dual-task","","n","lowercase","122000","0","4","01d92d17ed0ea9d99d2bac6381808c7ee69318be66dd3daf29c6bf4568786f8d","122012.79999999702","969.1000000014901","88","1","swim","","","","",""
"dual-task","null","null","null","","arctic","swim","526","","q","null","88","88","1","swim-dual-task","","q","lowercase","130000","0","4","01d92d17ed0ea9d99d2bac6381808c7ee69318be66dd3daf29c6bf4568786f8d","130002.59999999776","526","88","1","swim","","","","",""
"dual-task","null","null","null","","arctic","swim","1043.300000000745","","H","null","77","77","1","swim-dual-task","","H","uppercase","142000","0","4","01d92d17ed0ea9d99d2bac6381808c7ee69318be66dd3daf29c6bf4568786f8d","142014.59999999776","1043.300000000745","77","1","swim","","","","",""
"dual-task","null","null","null","","arctic","swim","913.3000000007451","","f","null","88","88","1","swim-dual-task","","f","lowercase","148000","0","4","01d92d17ed0ea9d99d2bac6381808c7ee69318be66dd3daf29c6bf4568786f8d","148007.5","913.3000000007451","88","1","swim","","","","",""
"dual-task","null","null","null","","arctic","swim","968.1000000014901","","A","null","77","77","1","swim-dual-task","","A","uppercase","158000","0","4","01d92d17ed0ea9d99d2bac6381808c7ee69318be66dd3daf29c6bf4568786f8d","158011.5","968.1000000014901","77","1","swim","","","","",""
"dual-task","null","null","null","","arctic","swim","1068.5999999977648","","r","null","88","88","1","swim-dual-task","","r","lowercase","166000","0","4","01d92d17ed0ea9d99d2bac6381808c7ee69318be66dd3daf29c6bf4568786f8d","166006.3999999985","1068.5999999977648","88","1","swim","","","","",""
"dual-task","null","null","null","","arctic","swim","949.8000000007451","","N","null","77","77","1","swim-dual-task","","N","uppercase","180000","0","4","01d92d17ed0ea9d99d2bac6381808c7ee69318be66dd3daf29c6bf4568786f8d","180008","949.8000000007451","77","1","swim","","","","",""
"dual-task","null","null","null","","arctic","swim","888.3000000007451","","d","null","88","88","1","swim-dual-task","","d","lowercase","192000","0","4","01d92d17ed0ea9d99d2bac6381808c7ee69318be66dd3daf29c6bf4568786f8d","192014.69999999925","888.3000000007451","88","1","swim","","","","",""
"dual-task","null","null","null","","arctic","swim","550.1999999992549","","a","null","88","88","1","swim-dual-task","","a","lowercase","200000","0","4","01d92d17ed0ea9d99d2bac6381808c7ee69318be66dd3daf29c6bf4568786f8d","200008.69999999925","550.1999999992549","88","1","swim","","","","",""
"dual-task","null","null","null","","arctic","swim","1164.2000000029802","","A","null","77","77","1","swim-dual-task","","A","uppercase","206000","0","4","01d92d17ed0ea9d99d2bac6381808c7ee69318be66dd3daf29c6bf4568786f8d","206004.09999999776","1164.2000000029802","77","1","swim","","","","",""
"dual-task","null","null","null","","arctic","swim","613.8000000007451","","q","null","88","88","1","swim-dual-task","","q","lowercase","216000","0","4","01d92d17ed0ea9d99d2bac6381808c7ee69318be66dd3daf29c6bf4568786f8d","216002.8999999985","613.8000000007451","88","1","swim","","","","",""
"dual-task","null","null","null","","arctic","swim","745.8000000007451","","d","null","88","88","1","swim-dual-task","","d","lowercase","222000","0","4","01d92d17ed0ea9d99d2bac6381808c7ee69318be66dd3daf29c6bf4568786f8d","222009.29999999702","745.8000000007451","88","1","swim","","","","",""
"dual-task","null","null","null","","arctic","swim","1170.6000000014901","","E","null","77","77","1","swim-dual-task","","E","uppercase","232000","0","4","01d92d17ed0ea9d99d2bac6381808c7ee69318be66dd3daf29c6bf4568786f8d","232001.5","1170.6000000014901","77","1","swim","","","","",""
"dual-task","null","null","null","","arctic","swim","1241.2000000029802","","G","null","77","77","1","swim-dual-task","","G","uppercase","244000","0","4","01d92d17ed0ea9d99d2bac6381808c7ee69318be66dd3daf29c6bf4568786f8d","244012.19999999925","1241.2000000029802","77","1","swim","","","","",""
"dual-task","null","null","null","","arctic","swim","1069.300000000745","","g","null","88","88","1","swim-dual-task","","g","lowercase","250000","0","4","01d92d17ed0ea9d99d2bac6381808c7ee69318be66dd3daf29c6bf4568786f8d","250007.29999999702","1069.300000000745","88","1","swim","","","","",""
"dual-task","null","null","null","","arctic","swim","906.6999999992549","","G","null","77","77","1","swim-dual-task","","G","uppercase","262000","0","4","01d92d17ed0ea9d99d2bac6381808c7ee69318be66dd3daf29c6bf4568786f8d","262012.29999999702","906.6999999992549","77","1","swim","","","","",""
"dual-task","null","null","null","","arctic","swim","642.3999999985099","","q","null","88","88","1","swim-dual-task","","q","lowercase","272000","0","4","01d92d17ed0ea9d99d2bac6381808c7ee69318be66dd3daf29c6bf4568786f8d","272004.59999999776","642.3999999985099","88","1","swim","","","","",""
"dual-task","null","null","null","","arctic","swim","597.4000000022352","","r","null","88","88","1","swim-dual-task","","r","lowercase","278000","0","4","01d92d17ed0ea9d99d2bac6381808c7ee69318be66dd3daf29c6bf4568786f8d","278011.59999999776","597.4000000022352","88","1","swim","","","","",""
"dual-task","null","null","null","","arctic","swim","996.1999999992549","","F","null","77","77","1","swim-dual-task","","F","uppercase","292000","0","4","01d92d17ed0ea9d99d2bac6381808c7ee69318be66dd3daf29c6bf4568786f8d","292014.299999997","996.1999999992549","77","1","swim","","","","",""
"dual-task","null","null","null","","arctic","swim","504","","F","null","77","77","1","swim-dual-task","","F","uppercase","304000","0","4","01d92d17ed0ea9d99d2bac6381808c7ee69318be66dd3daf29c6bf4568786f8d","304011.8999999985","504","77","1","swim","","","","",""
"dual-task","null","null","null","","arctic","swim","654.3999999985099","","t","null","88","88","1","swim-dual-task","","t","lowercase","316000","0","4","01d92d17ed0ea9d99d2bac6381808c7ee69318be66dd3daf29c6bf4568786f8d","316006.8999999985","654.3999999985099","88","1","swim","","","","",""
"dual-task","null","null","null","","arctic","swim","770.1999999992549","","B","null","77","77","1","swim-dual-task","","B","uppercase","324000","0","4","01d92d17ed0ea9d99d2bac6381808c7ee69318be66dd3daf29c6bf4568786f8d","324002.799999997","770.1999999992549","77","1","swim","","","","",""
"dual-task","null","null","null","","arctic","swim","675.6999999992549","","F","null","77","77","1","swim-dual-task","","F","uppercase","336000","0","4","01d92d17ed0ea9d99d2bac6381808c7ee69318be66dd3daf29c6bf4568786f8d","336003.59999999776","675.6999999992549","77","1","swim","","","","",""
"dual-task","null","null","null","","arctic","swim","1296.5999999977648","","R","null","77","77","1","swim-dual-task","","R","uppercase","346000","0","4","01d92d17ed0ea9d99d2bac6381808c7ee69318be66dd3daf29c6bf4568786f8d","346000.3999999985","1296.5999999977648","77","1","swim","","","","",""
"dual-task","null","null","null","","arctic","swim","1077.5","","Q","null","77","77","1","swim-dual-task","","Q","uppercase","360000","0","4","01d92d17ed0ea9d99d2bac6381808c7ee69318be66dd3daf29c6bf4568786f8d","360004.69999999925","1077.5","77","1","swim","","","","",""
"dual-task","null","null","null","","arctic","swim","521.3999999985099","","H","null","88","77","0","swim-dual-task","","H","uppercase","368000","0","4","01d92d17ed0ea9d99d2bac6381808c7ee69318be66dd3daf29c6bf4568786f8d","368008.8999999985","521.3999999985099","88","0","swim","","","","",""
"dual-task","null","null","null","","arctic","swim","637.3999999985099","","g","null","88","88","1","swim-dual-task","","g","lowercase","378000","0","4","01d92d17ed0ea9d99d2bac6381808c7ee69318be66dd3daf29c6bf4568786f8d","378006.799999997","637.3999999985099","88","1","swim","","","","",""
"dual-task","null","null","null","","arctic","swim","1252.1000000014901","","T","null","77","77","1","swim-dual-task","","T","uppercase","386000","0","4","01d92d17ed0ea9d99d2bac6381808c7ee69318be66dd3daf29c6bf4568786f8d","386007.8999999985","1252.1000000014901","77","1","swim","","","","",""
"dual-task","null","null","null","","arctic","swim","840.6000000014901","","a","null","88","88","1","swim-dual-task","","a","lowercase","398000","0","4","01d92d17ed0ea9d99d2bac6381808c7ee69318be66dd3daf29c6bf4568786f8d","398013.799999997","840.6000000014901","88","1","swim","","","","",""
"dual-task","null","null","null","","arctic","swim","993.3000000007451","","T","null","77","77","1","swim-dual-task","","T","uppercase","408000","0","4","01d92d17ed0ea9d99d2bac6381808c7ee69318be66dd3daf29c6bf4568786f8d","408014.3999999985","993.3000000007451","77","1","swim","","","","",""
"dual-task","null","null","null","","arctic","swim","1327","","G","null","77","77","1","swim-dual-task","","G","uppercase","418000","0","4","01d92d17ed0ea9d99d2bac6381808c7ee69318be66dd3daf29c6bf4568786f8d","418009.8999999985","1327","77","1","swim","","","","",""
"dual-task","null","null","null","","arctic","swim","694.8999999985099","","a","null","88","88","1","swim-dual-task","","a","lowercase","426000","0","4","01d92d17ed0ea9d99d2bac6381808c7ee69318be66dd3daf29c6bf4568786f8d","426001.3999999985","694.8999999985099","88","1","swim","","","","",""
"dual-task","null","null","null","","arctic","swim","1028.0999999977648","","H","null","77","77","1","swim-dual-task","","H","uppercase","432000","0","4","01d92d17ed0ea9d99d2bac6381808c7ee69318be66dd3daf29c6bf4568786f8d","432014.69999999925","1028.0999999977648","77","1","swim","","","","",""
"dual-task","null","null","null","","arctic","swim","1107.4000000022352","","R","null","77","77","1","swim-dual-task","","R","uppercase","440000","0","4","01d92d17ed0ea9d99d2bac6381808c7ee69318be66dd3daf29c6bf4568786f8d","440006.69999999925","1107.4000000022352","77","1","swim","","","","",""
"dual-task","null","null","null","","arctic","swim","788.8000000007451","","r","null","88","88","1","swim-dual-task","","r","lowercase","448000","0","4","01d92d17ed0ea9d99d2bac6381808c7ee69318be66dd3daf29c6bf4568786f8d","448015.59999999776","788.8000000007451","88","1","swim","","","","",""
"dual-task","null","null","null","","arctic","swim","1090.1000000014901","","E","null","77","77","1","swim-dual-task","","E","uppercase","458000","0","4","01d92d17ed0ea9d99d2bac6381808c7ee69318be66dd3daf29c6bf4568786f8d","458003.59999999776","1090.1000000014901","77","1","swim","","","","",""
"dual-task","null","null","null","","arctic","swim","623.8999999985099","","g","null","88","88","1","swim-dual-task","","g","lowercase","472000","0","4","01d92d17ed0ea9d99d2bac6381808c7ee69318be66dd3daf29c6bf4568786f8d","472006.8999999985","623.8999999985099","88","1","swim","","","","",""
"dual-task","null","null","null","","arctic","swim","609.9000000022352","","t","null","88","88","1","swim-dual-task","","t","lowercase","484000","0","4","01d92d17ed0ea9d99d2bac6381808c7ee69318be66dd3daf29c6bf4568786f8d","484006.5","609.9000000022352","88","1","swim","","","","",""
"dual-task","null","null","null","","arctic","swim","794.9000000022352","","d","null","88","88","1","swim-dual-task","","d","lowercase","492000","0","4","01d92d17ed0ea9d99d2bac6381808c7ee69318be66dd3daf29c6bf4568786f8d","492012.8999999985","794.9000000022352","88","1","swim","","","","",""
"dual-task","null","null","null","","arctic","swim","707.3000000007451","","a","null","88","88","1","swim-dual-task","","a","lowercase","502000","0","4","01d92d17ed0ea9d99d2bac6381808c7ee69318be66dd3daf29c6bf4568786f8d","502007.59999999776","707.3000000007451","88","1","swim","","","","",""
"dual-task","null","null","null","","arctic","swim","1532.6000000014901","","A","null","77","77","1","swim-dual-task","","A","uppercase","514000","0","4","01d92d17ed0ea9d99d2bac6381808c7ee69318be66dd3daf29c6bf4568786f8d","514015.3999999985","1532.6000000014901","77","1","swim","","","","",""
"dual-task","null","null","null","","arctic","swim","1301.3999999985099","","E","null","77","77","1","swim-dual-task","","E","uppercase","526000","0","4","01d92d17ed0ea9d99d2bac6381808c7ee69318be66dd3daf29c6bf4568786f8d","526015.8999999985","1301.3999999985099","77","1","swim","","","","",""
"dual-task","null","null","null","","arctic","swim","626","","n","null","88","88","1","swim-dual-task","","n","lowercase","538000","0","4","01d92d17ed0ea9d99d2bac6381808c7ee69318be66dd3daf29c6bf4568786f8d","538004.299999997","626","88","1","swim","","","","",""
"dual-task","null","null","null","","arctic","swim","625.3999999985099","","f","null","88","88","1","swim-dual-task","","f","lowercase","548000","0","4","01d92d17ed0ea9d99d2bac6381808c7ee69318be66dd3daf29c6bf4568786f8d","548012.799999997","625.3999999985099","88","1","swim","","","","",""
"dual-task","null","null","null","","arctic","swim","1480.300000000745","","R","null","77","77","1","swim-dual-task","","R","uppercase","560000","0","4","01d92d17ed0ea9d99d2bac6381808c7ee69318be66dd3daf29c6bf4568786f8d","560000.5","1480.300000000745","77","1","swim","","","","",""
"dual-task","null","null","null","","arctic","swim","982.1000000014901","","d","null","88","88","1","swim-dual-task","","d","lowercase","570000","0","4","01d92d17ed0ea9d99d2bac6381808c7ee69318be66dd3daf29c6bf4568786f8d","570010.799999997","982.1000000014901","88","1","swim","","","","",""
"dual-task","null","null","null","","arctic","swim","1109.0999999977648","","T","null","77","77","1","swim-dual-task","","T","uppercase","576000","0","4","01d92d17ed0ea9d99d2bac6381808c7ee69318be66dd3daf29c6bf4568786f8d","576006","1109.0999999977648","77","1","swim","","","","",""
"dual-task","null","null","null","","arctic","swim","655.3000000007451","","b","null","88","88","1","swim-dual-task","","b","lowercase","584000","0","4","01d92d17ed0ea9d99d2bac6381808c7ee69318be66dd3daf29c6bf4568786f8d","584003.0999999978","655.3000000007451","88","1","swim","","","","",""
"dual-task","null","null","null","","arctic","swim","708.1999999992549","","t","null","88","88","1","swim-dual-task","","t","lowercase","596000","0","4","01d92d17ed0ea9d99d2bac6381808c7ee69318be66dd3daf29c6bf4568786f8d","596000.5","708.1999999992549","88","1","swim","","","","",""
"dual-task","null","null","null","","arctic","swim","1152.2999999970198","","B","null","77","77","1","swim-dual-task","","B","uppercase","608000","0","4","01d92d17ed0ea9d99d2bac6381808c7ee69318be66dd3daf29c6bf4568786f8d","608006.5","1152.2999999970198","77","1","swim","","","","",""
"dual-task","null","null","null","","arctic","swim","1230.300000000745","","D","null","77","77","1","swim-dual-task","","D","uppercase","618000","0","4","01d92d17ed0ea9d99d2bac6381808c7ee69318be66dd3daf29c6bf4568786f8d","618009.0999999978","1230.300000000745","77","1","swim","","","","",""
"dual-task","null","null","null","","arctic","swim","763.4000000022352","","h","null","88","88","1","swim-dual-task","","h","lowercase","626000","0","4","01d92d17ed0ea9d99d2bac6381808c7ee69318be66dd3daf29c6bf4568786f8d","626003.799999997","763.4000000022352","88","1","swim","","","","",""
"dual-task","null","null","null","","arctic","swim","592.9000000022352","","b","null","88","88","1","swim-dual-task","","b","lowercase","638000","0","4","01d92d17ed0ea9d99d2bac6381808c7ee69318be66dd3daf29c6bf4568786f8d","638008.6999999993","592.9000000022352","88","1","swim","","","","",""
"dual-task","null","null","null","","arctic","swim","1114.5","","n","null","88","88","1","swim-dual-task","","n","lowercase","644000","0","4","01d92d17ed0ea9d99d2bac6381808c7ee69318be66dd3daf29c6bf4568786f8d","644006.799999997","1114.5","88","1","swim","","","","",""
"dual-task","null","null","null","","arctic","swim","600.6000000014901","","h","null","88","88","1","swim-dual-task","","h","lowercase","658000","0","4","01d92d17ed0ea9d99d2bac6381808c7ee69318be66dd3daf29c6bf4568786f8d","658011.5","600.6000000014901","88","1","swim","","","","",""
"dual-task","null","null","null","","arctic","swim","1118.5999999977648","","D","null","77","77","1","swim-dual-task","","D","uppercase","668000","0","4","01d92d17ed0ea9d99d2bac6381808c7ee69318be66dd3daf29c6bf4568786f8d","668014.5","1118.5999999977648","77","1","swim","","","","",""
"dual-task","null","null","null","","arctic","swim","1207.8999999985099","","D","null","77","77","1","swim-dual-task","","D","uppercase","678000","0","4","01d92d17ed0ea9d99d2bac6381808c7ee69318be66dd3daf29c6bf4568786f8d","678014.3999999985","1207.8999999985099","77","1","swim","","","","",""
"dual-task","null","null","null","","arctic","swim","962.1999999992549","","n","null","88","88","1","swim-dual-task","","n","lowercase","686000","0","4","01d92d17ed0ea9d99d2bac6381808c7ee69318be66dd3daf29c6bf4568786f8d","686011.5999999978","962.1999999992549","88","1","swim","","","","",""
"dual-task","null","null","null","","arctic","swim","1202.300000000745","","F","null","77","77","1","swim-dual-task","","F","uppercase","698000","0","4","01d92d17ed0ea9d99d2bac6381808c7ee69318be66dd3daf29c6bf4568786f8d","698006.299999997","1202.300000000745","77","1","swim","","","","",""
"dual-task","null","null","null","","arctic","swim","934.1999999992549","","e","null","88","88","1","swim-dual-task","","e","lowercase","706000","0","4","01d92d17ed0ea9d99d2bac6381808c7ee69318be66dd3daf29c6bf4568786f8d","706010","934.1999999992549","88","1","swim","","","","",""
"dual-task","null","null","null","","arctic","swim","1204.6000000014901","","Q","null","77","77","1","swim-dual-task","","Q","uppercase","714000","0","4","01d92d17ed0ea9d99d2bac6381808c7ee69318be66dd3daf29c6bf4568786f8d","714005.8999999985","1204.6000000014901","77","1","swim","","","","",""
"dual-task","null","null","null","","arctic","swim","680.8000000007451","","g","null","88","88","1","swim-dual-task","","g","lowercase","728000","0","4","01d92d17ed0ea9d99d2bac6381808c7ee69318be66dd3daf29c6bf4568786f8d","728011","680.8000000007451","88","1","swim","","","","",""
"dual-task","null","null","null","","arctic","swim","1107","","B","null","77","77","1","swim-dual-task","","B","uppercase","738000","0","4","01d92d17ed0ea9d99d2bac6381808c7ee69318be66dd3daf29c6bf4568786f8d","738002","1107","77","1","swim","","","","",""
"dual-task","null","null","null","","arctic","swim","830.8000000007451","","e","null","88","88","1","swim-dual-task","","e","lowercase","750000","0","4","01d92d17ed0ea9d99d2bac6381808c7ee69318be66dd3daf29c6bf4568786f8d","750007.5999999978","830.8000000007451","88","1","swim","","","","",""
"dual-task","null","null","null","","arctic","swim","1423.699999999255","","N","null","77","77","1","swim-dual-task","","N","uppercase","758000","0","4","01d92d17ed0ea9d99d2bac6381808c7ee69318be66dd3daf29c6bf4568786f8d","758014.3999999985","1423.699999999255","77","1","swim","","","","",""
"dual-task","null","null","null","","arctic","swim","698.9000000022352","","A","null","88","77","0","swim-dual-task","","A","uppercase","764000","0","4","01d92d17ed0ea9d99d2bac6381808c7ee69318be66dd3daf29c6bf4568786f8d","764013","698.9000000022352","88","0","swim","","","","",""
"dual-task","null","null","null","","arctic","swim","910.7999999970198","","D","null","77","77","1","swim-dual-task","","D","uppercase","774000","0","4","01d92d17ed0ea9d99d2bac6381808c7ee69318be66dd3daf29c6bf4568786f8d","774010.5","910.7999999970198","77","1","swim","","","","",""
"dual-task","null","null","null","","arctic","swim","1105","","Q","null","77","77","1","swim-dual-task","","Q","uppercase","780000","0","4","01d92d17ed0ea9d99d2bac6381808c7ee69318be66dd3daf29c6bf4568786f8d","780015.5999999978","1105","77","1","swim","","","","",""
"dual-task","null","null","null","","arctic","swim","829.1999999992549","","f","null","88","88","1","swim-dual-task","","f","lowercase","786000","0","4","01d92d17ed0ea9d99d2bac6381808c7ee69318be66dd3daf29c6bf4568786f8d","786013","829.1999999992549","88","1","swim","","","","",""
"dual-task","null","null","null","","arctic","swim","1130.6000000014901","","N","null","77","77","1","swim-dual-task","","N","uppercase","796000","0","4","01d92d17ed0ea9d99d2bac6381808c7ee69318be66dd3daf29c6bf4568786f8d","796009","1130.6000000014901","77","1","swim","","","","",""
"audio-keyboard-response","62","1981795","0.0-6.0-2.0-1.0","01d92d17ed0ea9d99d2bac6381808c7ee69318be66dd3daf29c6bf4568786f8d","arctic","swim","null","","audio/story_swim_scrambled.mp3","","null","","","","","","","","","","","","","","","","","","","",""
"html-button-response","63","1985901","0.0-6.0-2.0-2.0","01d92d17ed0ea9d99d2bac6381808c7ee69318be66dd3daf29c6bf4568786f8d","arctic","swim","4105","","<p>This concludes the story. Thank you for listening.</p><p>You will now answer some questions about the content of the story.</p>","0","","","","","","","","","","","","","","","","","","","","",""
"survey-multi-choice","64","1994581","0.0-6.0-2.0-3.0-0.0","01d92d17ed0ea9d99d2bac6381808c7ee69318be66dd3daf29c6bf4568786f8d","arctic","swim","8678","","<b>How many astronaut candidates reported for duty at the Johnson Space Center?</b>","","","","0","swim-comprehension","","","","","","","","","","","","","{""Q0"":""One hundred""}","","","",""
"survey-multi-choice","65","2002864","0.0-6.0-2.0-3.0-0.1","01d92d17ed0ea9d99d2bac6381808c7ee69318be66dd3daf29c6bf4568786f8d","arctic","swim","8031","","<b>What gave the narrator his greatest feeling of accomplishment?</b>","","","","1","swim-comprehension","","","","","","","","","","","","","{""Q0"":""Passing the water survival course""}","","","",""
"survey-multi-choice","66","2007120","0.0-6.0-2.0-3.0-0.2","01d92d17ed0ea9d99d2bac6381808c7ee69318be66dd3daf29c6bf4568786f8d","arctic","swim","4004","","<b>What is the narrator afraid of, aside from the water?</b>","","","","1","swim-comprehension","","","","","","","","","","","","","{""Q0"":""Heights""}","","","",""
"survey-multi-choice","67","2012857","0.0-6.0-2.0-3.0-0.3","01d92d17ed0ea9d99d2bac6381808c7ee69318be66dd3daf29c6bf4568786f8d","arctic","swim","5483","","<b>How did the narrator train for his swim test?</b>","","","","0","swim-comprehension","","","","","","","","","","","","","{""Q0"":""Signed up for a swim class""}","","","",""
"survey-multi-choice","68","2018001","0.0-6.0-2.0-3.0-0.4","01d92d17ed0ea9d99d2bac6381808c7ee69318be66dd3daf29c6bf4568786f8d","arctic","swim","4892","","<b>How many astronaut candidates passed the first swim test?</b>","","","","1","swim-comprehension","","","","","","","","","","","","","{""Q0"":""All of them""}","","","",""
"survey-multi-choice","69","2024192","0.0-6.0-2.0-3.0-0.5","01d92d17ed0ea9d99d2bac6381808c7ee69318be66dd3daf29c6bf4568786f8d","arctic","swim","5938","","<b>Where is the home of naval aviation?</b>","","","","1","swim-comprehension","","","","","","","","","","","","","{""Q0"":""Pensacola""}","","","",""
"survey-multi-choice","70","2030723","0.0-6.0-2.0-3.0-0.6","01d92d17ed0ea9d99d2bac6381808c7ee69318be66dd3daf29c6bf4568786f8d","arctic","swim","6277","","<b>What was the final step of the first swim test in the pool?</b>","","","","1","swim-comprehension","","","","","","","","","","","","","{""Q0"":""Tread water with hands above the water""}","","","",""
"survey-multi-choice","71","2044484","0.0-6.0-2.0-3.0-0.7","01d92d17ed0ea9d99d2bac6381808c7ee69318be66dd3daf29c6bf4568786f8d","arctic","swim","13508","","<b>What were the astronaut candidates trained to do at the naval air station?</b>","","","","1","swim-comprehension","","","","","","","","","","","","","{""Q0"":""Eject out of aircraft and survive in water long enough to be rescued""}","","","",""
"survey-multi-choice","72","2049565","0.0-6.0-2.0-3.0-0.8","01d92d17ed0ea9d99d2bac6381808c7ee69318be66dd3daf29c6bf4568786f8d","arctic","swim","4829","","<b>How many times did the astronaut candidates have to complete the final exercise to pass?</b>","","","","1","swim-comprehension","","","","","","","","","","","","","{""Q0"":""Two""}","","","",""
"survey-multi-choice","73","2058122","0.0-6.0-2.0-3.0-0.9","01d92d17ed0ea9d99d2bac6381808c7ee69318be66dd3daf29c6bf4568786f8d","arctic","swim","8305","","<b>How often does the narrator swim, now that he is a good swimmer?</b>","","","","1","swim-comprehension","","","","","","","","","","","","","{""Q0"":""Never swam again in his life""}","","","",""
"html-button-response","74","2059834","0.0-6.0-2.0-4.0","01d92d17ed0ea9d99d2bac6381808c7ee69318be66dd3daf29c6bf4568786f8d","arctic","swim","1459","","<p>Thank you for your responses.</p><p>You will now answer some questions about your impressions of the story.</p>","0","","","","","","","","","","","","","","","","","","","","",""
"html-button-response","75","2062807","0.0-6.0-2.0-5.0-0.0","01d92d17ed0ea9d99d2bac6381808c7ee69318be66dd3daf29c6bf4568786f8d","arctic","swim","2973","","A1","1","","","","swim-engagement","","","","","","","","","","","","","","2","absorption","",""
"html-button-response","76","2065035","0.0-6.0-2.0-5.0-0.1","01d92d17ed0ea9d99d2bac6381808c7ee69318be66dd3daf29c6bf4568786f8d","arctic","swim","1977","","EE4","1","","","","swim-engagement","","","","","","","","","","","","","","2","emo-engage","",""
"html-button-response","77","2066450","0.0-6.0-2.0-5.0-0.2","01d92d17ed0ea9d99d2bac6381808c7ee69318be66dd3daf29c6bf4568786f8d","arctic","swim","1163","","A3","1","","","","swim-engagement","","","","","","","","","","","","","","2","absorption","",""
"html-button-response","78","2068315","0.0-6.0-2.0-5.0-0.3","01d92d17ed0ea9d99d2bac6381808c7ee69318be66dd3daf29c6bf4568786f8d","arctic","swim","1612","","E7","2","","","","swim-engagement","","","","","","","","","","","","","","3","enjoyment","",""
"html-button-response","79","2070897","0.0-6.0-2.0-5.0-0.4","01d92d17ed0ea9d99d2bac6381808c7ee69318be66dd3daf29c6bf4568786f8d","arctic","swim","2331","","MS3","2","","","","swim-engagement","","","","","","","","","","","","","","3","mental-sim","",""
"html-button-response","80","2072438","0.0-6.0-2.0-5.0-0.5","01d92d17ed0ea9d99d2bac6381808c7ee69318be66dd3daf29c6bf4568786f8d","arctic","swim","1290","","E8","1","","","","swim-engagement","","","","","","","","","","","","","","2","enjoyment","",""
"html-button-response","81","2076440","0.0-6.0-2.0-5.0-0.6","01d92d17ed0ea9d99d2bac6381808c7ee69318be66dd3daf29c6bf4568786f8d","arctic","swim","3749","","A2","3","","","","swim-engagement","","","","","","","","","","","","","","4","absorption","",""
"html-button-response","82","2078843","0.0-6.0-2.0-5.0-0.7","01d92d17ed0ea9d99d2bac6381808c7ee69318be66dd3daf29c6bf4568786f8d","arctic","swim","2151","","EE3","1","","","","swim-engagement","","","","","","","","","","","","","","2","emo-engage","",""
"html-button-response","83","2081026","0.0-6.0-2.0-5.0-0.8","01d92d17ed0ea9d99d2bac6381808c7ee69318be66dd3daf29c6bf4568786f8d","arctic","swim","1924","","E6","1","","","","swim-engagement","","","","","","","","","","","","","","2","enjoyment","",""
"html-button-response","84","2083157","0.0-6.0-2.0-5.0-0.9","01d92d17ed0ea9d99d2bac6381808c7ee69318be66dd3daf29c6bf4568786f8d","arctic","swim","1879","","A5","1","","","","swim-engagement","","","","","","","","","","","","","","2","absorption","",""
"html-button-response","85","2085355","0.0-6.0-2.0-5.0-0.10","01d92d17ed0ea9d99d2bac6381808c7ee69318be66dd3daf29c6bf4568786f8d","arctic","swim","1947","","MS1","1","","","","swim-engagement","","","","","","","","","","","","","","2","mental-sim","",""
"html-button-response","86","2087895","0.0-6.0-2.0-5.0-0.11","01d92d17ed0ea9d99d2bac6381808c7ee69318be66dd3daf29c6bf4568786f8d","arctic","swim","2290","","E10","0","","","","swim-engagement","","","","","","","","","","","","","","1","enjoyment","",""
"html-button-response","87","2090639","0.0-6.0-2.0-5.0-0.12","01d92d17ed0ea9d99d2bac6381808c7ee69318be66dd3daf29c6bf4568786f8d","arctic","swim","2493","","EE1","0","","","","swim-engagement","","","","","","","","","","","","","","1","emo-engage","",""
"html-button-response","88","2092090","0.0-6.0-2.0-5.0-0.13","01d92d17ed0ea9d99d2bac6381808c7ee69318be66dd3daf29c6bf4568786f8d","arctic","swim","1200","","EE2","0","","","","swim-engagement","","","","","","","","","","","","","","1","emo-engage","",""
"html-button-response","89","2094144","0.0-6.0-2.0-5.0-0.14","01d92d17ed0ea9d99d2bac6381808c7ee69318be66dd3daf29c6bf4568786f8d","arctic","swim","1802","","E1","1","","","","swim-engagement","","","","","","","","","","","","","","2","enjoyment","",""
"html-button-response","90","2096428","0.0-6.0-2.0-5.0-0.15","01d92d17ed0ea9d99d2bac6381808c7ee69318be66dd3daf29c6bf4568786f8d","arctic","swim","2032","","A4","0","","","","swim-engagement","","","","","","","","","","","","","","1","absorption","",""
"html-button-response","91","2098706","0.0-6.0-2.0-5.0-0.16","01d92d17ed0ea9d99d2bac6381808c7ee69318be66dd3daf29c6bf4568786f8d","arctic","swim","2028","","MS2","0","","","","swim-engagement","","","","","","","","","","","","","","1","mental-sim","",""
"html-button-response","92","2100439","0.0-6.0-2.0-5.0-0.17","01d92d17ed0ea9d99d2bac6381808c7ee69318be66dd3daf29c6bf4568786f8d","arctic","swim","1482","","EE5","0","","","","swim-engagement","","","","","","","","","","","","","","1","emo-engage","",""
"html-button-response","93","2102051","0.0-8.0","01d92d17ed0ea9d99d2bac6381808c7ee69318be66dd3daf29c6bf4568786f8d","arctic","swim","1361","","<p>Thank you for your responses.</p><p>You will now answer some demographic, hearing, and general health questions.</p>","0","","","","","","","","","","","","","","","","","","","","",""
"survey-multi-choice","94","2107476","0.0-9.0-0.0","01d92d17ed0ea9d99d2bac6381808c7ee69318be66dd3daf29c6bf4568786f8d","arctic","swim","5424","","","","","","","survey","","","","","","","","","","","","","{""Q0"":""Microsoft Edge""}","","","browser",""
"survey-text","95","2110708","0.0-9.0-1.0","01d92d17ed0ea9d99d2bac6381808c7ee69318be66dd3daf29c6bf4568786f8d","arctic","swim","2979.300000000745","","","","","","","survey","","","","","","","","","","","","","{""AGE"":""36""}","","","age","36"
"survey-multi-choice","96","2112452","0.0-9.0-2.0","01d92d17ed0ea9d99d2bac6381808c7ee69318be66dd3daf29c6bf4568786f8d","arctic","swim","1493","","","","","","","survey","","","","","","","","","","","","","{""Q0"":""Male""}","","","gender","Male"
"survey-multi-choice","97","2114298","0.0-9.0-4.0","01d92d17ed0ea9d99d2bac6381808c7ee69318be66dd3daf29c6bf4568786f8d","arctic","swim","1593","","","","","","","survey","","","","","","","","","","","","","{""Q0"":""Right""}","","","handedness","Right"
"survey-multi-choice","98","2118773","0.0-9.0-5.0","01d92d17ed0ea9d99d2bac6381808c7ee69318be66dd3daf29c6bf4568786f8d","arctic","swim","4221","","","","","","","survey","","","","","","","","","","","","","{""Q0"":""High school""}","","","education","High school"
"survey-text","99","2123010","0.0-10.0-0.0","01d92d17ed0ea9d99d2bac6381808c7ee69318be66dd3daf29c6bf4568786f8d","arctic","swim","3984.400000002235","","","","","","","survey","","","","","","","","","","","","","{""L1"":""English""}","","","first-language","English"
"survey-text","100","2129399","0.0-10.0-1.0","01d92d17ed0ea9d99d2bac6381808c7ee69318be66dd3daf29c6bf4568786f8d","arctic","swim","6132","","","","","","","survey","","","","","","","","","","","","","{""L2name"":"""",""L2fluency"":"""",""L3name"":"""",""L3fluency"":"""",""L4name"":"""",""L4fluency"":""""}","","","additional-languages","{""L2name"":"""",""L2fluency"":"""",""L3name"":"""",""L3fluency"":"""",""L4name"":"""",""L4fluency"":""""}"
"survey-multi-choice","101","2131524","0.0-10.0-2.0","01d92d17ed0ea9d99d2bac6381808c7ee69318be66dd3daf29c6bf4568786f8d","arctic","swim","1874","","","","","","","survey","","","","","","","","","","","","","{""Q0"":""No""}","","","hearing-aid","No"
"survey-multi-choice","102","2136395","0.0-10.0-3.0","01d92d17ed0ea9d99d2bac6381808c7ee69318be66dd3daf29c6bf4568786f8d","arctic","swim","4620","","","","","","","survey","","","","","","","","","","","","","{""Q0"":""Sometimes""}","","","ringing-ears","Sometimes"
"survey-multi-choice","103","2138620","0.0-10.0-4.0-0.0","01d92d17ed0ea9d99d2bac6381808c7ee69318be66dd3daf29c6bf4568786f8d","arctic","swim","1973","","","","","","","survey","","","","","","","","","","","","","{""Q0"":""Both Ears""}","","","ringing-ear-loc","Both Ears"
"survey-multi-choice","104","2140866","0.0-10.0-5.0","01d92d17ed0ea9d99d2bac6381808c7ee69318be66dd3daf29c6bf4568786f8d","arctic","swim","1995","","","","","","","survey","","","","","","","","","","","","","{""Q0"":""No""}","","","neuro-disease","No"
"survey-multi-choice","105","2142798","0.0-10.0-7.0","01d92d17ed0ea9d99d2bac6381808c7ee69318be66dd3daf29c6bf4568786f8d","arctic","swim","1680","","","","","","","survey","","","","","","","","","","","","","{""Q0"":""No""}","","","take-meds","No"
"survey-text","106","2145027","0.0-10.0-9.0","01d92d17ed0ea9d99d2bac6381808c7ee69318be66dd3daf29c6bf4568786f8d","arctic","swim","1971.5","","","","","","","survey","","","","","","","","","","","","","{""HC"":""""}","","","health-concerns",""
"html-button-response","107","2148701","0.0-11.0-0.0","01d92d17ed0ea9d99d2bac6381808c7ee69318be66dd3daf29c6bf4568786f8d","arctic","swim","3423","","<p>How would you describe your musical skills/experiences?</p>","1","","","","survey","","","","","","","","","","","","","","","","music-skill","2"
"survey-multi-choice","108","2150831","0.0-11.0-1.0","01d92d17ed0ea9d99d2bac6381808c7ee69318be66dd3daf29c6bf4568786f8d","arctic","swim","1879","","","","","","","survey","","","","","","","","","","","","","{""Q0"":""Yes""}","","","music-instrument","Yes"
"survey-text","109","2153551","0.0-11.0-2.0-0.0","01d92d17ed0ea9d99d2bac6381808c7ee69318be66dd3daf29c6bf4568786f8d","arctic","swim","2467.199999999255","","","","","","","survey","","","","","","","","","","","","","{""MEXP"":""2""}","","","music-training-yrs","2"
"html-button-response","110","2156132","0.0-12.0-0.0","01d92d17ed0ea9d99d2bac6381808c7ee69318be66dd3daf29c6bf4568786f8d","arctic","swim","2330","","<p>How would you describe your general hearing abilities?</p>","4","","","","survey","","","","","","","","","","","","","","","","ssq-01","5"
"html-button-response","111","2159585","0.0-12.0-1.0","01d92d17ed0ea9d99d2bac6381808c7ee69318be66dd3daf29c6bf4568786f8d","arctic","swim","3201","","<p>When you talk with someone at a place that strongly reverberates/echoes (e.g., in a church or train station),</br>can you understand what the person says?</p>","8","","","","survey","","","","","","","","","","","","","","","","ssq-02","8"
"html-button-response","112","2161466","0.0-12.0-2.0","01d92d17ed0ea9d99d2bac6381808c7ee69318be66dd3daf29c6bf4568786f8d","arctic","swim","1629","","<p>When you are with a group (~5 people) in a lively restaurant, can you follow the group's conversation?</p>","7","","","","survey","","","","","","","","","","","","","","","","ssq-03","7"
"html-button-response","113","2163898","0.0-12.0-3.0","01d92d17ed0ea9d99d2bac6381808c7ee69318be66dd3daf29c6bf4568786f8d","arctic","swim","2181","","<p>Based on the sound of a bus or truck, can you tell whether it is moving towards or away from you?</p>","6","","","","survey","","","","","","","","","","","","","","","","ssq-04","6"
"html-button-response","114","2165497","0.0-12.0-4.0","01d92d17ed0ea9d99d2bac6381808c7ee69318be66dd3daf29c6bf4568786f8d","arctic","swim","1348","","<p>When you are in an unknown environment, can you tell from which direction a brief sound originates?</p>","7","","","","survey","","","","","","","","","","","","","","","","ssq-05","7"
"html-button-response","115","2167826","0.0-12.0-5.0","01d92d17ed0ea9d99d2bac6381808c7ee69318be66dd3daf29c6bf4568786f8d","arctic","swim","2077","","<p>Are you able to ignore distracting sounds when you concentrate on a specific aspect of your acoustic surrounding?</p>","8","","","","survey","","","","","","","","","","","","","","","","ssq-06","8"
"fullscreen","116","2169078","0.0-13.0","01d92d17ed0ea9d99d2bac6381808c7ee69318be66dd3daf29c6bf4568786f8d","arctic","swim","","","","","","","","","true","","","","","","","","","","","","","","","",""
