"trial_type","trial_index","time_elapsed","internal_node_id","ParticipantID","firstStory","scramStory","rt","url","stimulus","button_pressed","key_press","correctRESP","correct","designation","success","letterStim","letterType","ONSET","TIMEOUT","CONDITION","Participant","ONSET_ACTUAL","RT","RESP","ACC","STORY","responses","response","type","surveyQuestion","QRESP"
"pavlovia","0","3","0.0-0.0","d5e3a392e1c32a3ed0669ebf71acf2cc69004f26405b2a90ee1d795286f5095b","arctic","swim","","","","","","","","","","","","","","","","","","","","","","","","",""
"external-html","1","7576","0.0-1.0","d5e3a392e1c32a3ed0669ebf71acf2cc69004f26405b2a90ee1d795286f5095b","arctic","swim","7394","consent/consent_updated.html","","","","","","","","","","","","","","","","","","","","","","",""
"html-button-response","2","13090","0.0-2.0-0.0","d5e3a392e1c32a3ed0669ebf71acf2cc69004f26405b2a90ee1d795286f5095b","arctic","swim","5514","","<p>Before we begin the main task, you will complete a short volume calibration and headphone check.</p><p>Please make sure you are in a quiet listening environment, that you are wearing headphones, and that your computer's volume is turned on.<p></p>","0","","","","","","","","","","","","","","","","","","","","",""
"html-button-response","3","19023","0.0-2.0-1.0","d5e3a392e1c32a3ed0669ebf71acf2cc69004f26405b2a90ee1d795286f5095b","arctic","swim","5682","","<p>The volume calibration will be first.</p><p>You will hear a thirty-second noise. Please adjust your computer's volume so that this noise is being presented at a comfortable level.<p></p>","0","","","","","","","","","","","","","","","","","","","","",""
"audio-button-response","4","41109","0.0-2.0-2.0","d5e3a392e1c32a3ed0669ebf71acf2cc69004f26405b2a90ee1d795286f5095b","arctic","swim","21833","","audio/volumetest.mp3","0","","","","","","","","","","","","","","","","","","","","",""
"html-keyboard-response","5","47906","0.0-3.0-0.0","d5e3a392e1c32a3ed0669ebf71acf2cc69004f26405b2a90ee1d795286f5095b","arctic","swim","6796","","<p>You will now complete a short headphone check.</p><p>On each trial, you will hear three tones. One of these tones will be quieter than the others. Your task is to identify whether the quiet tone occurred first, second, or third.</p><p>There are six trials in total.<p></p><p></p>(Press SPACEBAR to begin)","","32","","","","","","","","","","","","","","","","","","","",""
"html-keyboard-response","6","48659","0.0-3.0-1.0-0.0","d5e3a392e1c32a3ed0669ebf71acf2cc69004f26405b2a90ee1d795286f5095b","arctic","swim","null","","<div style=""font-size:60px;"">+</div>","","null","","","","","","","","","","","","","","","","","","","",""
"audio-button-response","7","53276","0.0-3.0-1.0-1.0","d5e3a392e1c32a3ed0669ebf71acf2cc69004f26405b2a90ee1d795286f5095b","arctic","swim","4616","","audio/t1_1.mp3","2","","0","0","headphone-test","","","","","","","","","","","","","","","","",""
"html-keyboard-response","8","53778","0.0-3.0-1.0-2.0","d5e3a392e1c32a3ed0669ebf71acf2cc69004f26405b2a90ee1d795286f5095b","arctic","swim","null","","<p>Incorrect</p>","","null","","","","","","","","","","","","","","","","","","","",""
"html-keyboard-response","9","54280","0.0-3.0-1.0-0.1","d5e3a392e1c32a3ed0669ebf71acf2cc69004f26405b2a90ee1d795286f5095b","arctic","swim","null","","<div style=""font-size:60px;"">+</div>","","null","","","","","","","","","","","","","","","","","","","",""
"audio-button-response","10","58712","0.0-3.0-1.0-1.1","d5e3a392e1c32a3ed0669ebf71acf2cc69004f26405b2a90ee1d795286f5095b","arctic","swim","4431","","audio/t3_1.mp3","2","","2","1","headphone-test","","","","","","","","","","","","","","","","",""
"html-keyboard-response","11","59213","0.0-3.0-1.0-2.1","d5e3a392e1c32a3ed0669ebf71acf2cc69004f26405b2a90ee1d795286f5095b","arctic","swim","null","","<p>Correct</p>","","null","","","","","","","","","","","","","","","","","","","",""
"html-keyboard-response","12","59715","0.0-3.0-1.0-0.2","d5e3a392e1c32a3ed0669ebf71acf2cc69004f26405b2a90ee1d795286f5095b","arctic","swim","null","","<div style=""font-size:60px;"">+</div>","","null","","","","","","","","","","","","","","","","","","","",""
"audio-button-response","13","64086","0.0-3.0-1.0-1.2","d5e3a392e1c32a3ed0669ebf71acf2cc69004f26405b2a90ee1d795286f5095b","arctic","swim","4370","","audio/t2_2.mp3","1","","1","1","headphone-test","","","","","","","","","","","","","","","","",""
"html-keyboard-response","14","64587","0.0-3.0-1.0-2.2","d5e3a392e1c32a3ed0669ebf71acf2cc69004f26405b2a90ee1d795286f5095b","arctic","swim","null","","<p>Correct</p>","","null","","","","","","","","","","","","","","","","","","","",""
"html-keyboard-response","15","65088","0.0-3.0-1.0-0.3","d5e3a392e1c32a3ed0669ebf71acf2cc69004f26405b2a90ee1d795286f5095b","arctic","swim","null","","<div style=""font-size:60px;"">+</div>","","null","","","","","","","","","","","","","","","","","","","",""
"audio-button-response","16","69519","0.0-3.0-1.0-1.3","d5e3a392e1c32a3ed0669ebf71acf2cc69004f26405b2a90ee1d795286f5095b","arctic","swim","4430","","audio/t2_1.mp3","1","","1","1","headphone-test","","","","","","","","","","","","","","","","",""
"html-keyboard-response","17","70022","0.0-3.0-1.0-2.3","d5e3a392e1c32a3ed0669ebf71acf2cc69004f26405b2a90ee1d795286f5095b","arctic","swim","null","","<p>Correct</p>","","null","","","","","","","","","","","","","","","","","","","",""
"html-keyboard-response","18","70524","0.0-3.0-1.0-0.4","d5e3a392e1c32a3ed0669ebf71acf2cc69004f26405b2a90ee1d795286f5095b","arctic","swim","null","","<div style=""font-size:60px;"">+</div>","","null","","","","","","","","","","","","","","","","","","","",""
"audio-button-response","19","74922","0.0-3.0-1.0-1.4","d5e3a392e1c32a3ed0669ebf71acf2cc69004f26405b2a90ee1d795286f5095b","arctic","swim","4397","","audio/t3_2.mp3","2","","2","1","headphone-test","","","","","","","","","","","","","","","","",""
"html-keyboard-response","20","75423","0.0-3.0-1.0-2.4","d5e3a392e1c32a3ed0669ebf71acf2cc69004f26405b2a90ee1d795286f5095b","arctic","swim","null","","<p>Correct</p>","","null","","","","","","","","","","","","","","","","","","","",""
"html-keyboard-response","21","75925","0.0-3.0-1.0-0.5","d5e3a392e1c32a3ed0669ebf71acf2cc69004f26405b2a90ee1d795286f5095b","arctic","swim","null","","<div style=""font-size:60px;"">+</div>","","null","","","","","","","","","","","","","","","","","","","",""
"audio-button-response","22","80362","0.0-3.0-1.0-1.5","d5e3a392e1c32a3ed0669ebf71acf2cc69004f26405b2a90ee1d795286f5095b","arctic","swim","4435","","audio/t1_2.mp3","0","","0","1","headphone-test","","","","","","","","","","","","","","","","",""
"html-keyboard-response","23","80862","0.0-3.0-1.0-2.5","d5e3a392e1c32a3ed0669ebf71acf2cc69004f26405b2a90ee1d795286f5095b","arctic","swim","null","","<p>Correct</p>","","null","","","","","","","","","","","","","","","","","","","",""
"fullscreen","24","83939","0.0-4.0","d5e3a392e1c32a3ed0669ebf71acf2cc69004f26405b2a90ee1d795286f5095b","arctic","swim","","","","","","","","","true","","","","","","","","","","","","","","","",""
"html-button-response","25","91342","0.0-5.0-0.0","d5e3a392e1c32a3ed0669ebf71acf2cc69004f26405b2a90ee1d795286f5095b","arctic","swim","7402","","<p>There are two blocks to this experiment.</p><p>In each block, you will hear a ~13.5 minute story. One of the stories will be scrambled. Please listen carefully to both stories and understand them as best you can.</p><p>After each story, you will be asked some questions to assess your comprehension.</p>","0","","","","","","","","","","","","","","","","","","","","",""
"html-button-response","26","102191","0.0-5.0-1.0","d5e3a392e1c32a3ed0669ebf71acf2cc69004f26405b2a90ee1d795286f5095b","arctic","swim","10849","","<p>During each story, there will be an additional task.</p><p>A letter will occasionally appear on the screen.</br>Your job is to - as quickly as you can - decide whether the letter is lowercase or uppercase and press one of two keys on the keyboard:</p><p>If the letter is <b>lowercase</b>, press key &lt;<b>x</b>&gt;.</p><p>If the letter is <b>uppercase</b>, press key &lt;<b>m</b>&gt;.</p>","0","","","","","","","","","","","","","","","","","","","","",""
"html-keyboard-response","27","108411","0.0-5.0-2.0","d5e3a392e1c32a3ed0669ebf71acf2cc69004f26405b2a90ee1d795286f5095b","arctic","swim","6220","","<p>Because we want your responses to be as quick as possible, please keep your index fingers over the keys while listening.</p><p>Each block lasts about 20 minutes.</p><p><b>Press &lt;x&gt; or &lt;m&gt; to start the first block!</b></p>","","77","","","","","","","","","","","","","","","","","","","",""
"html-keyboard-response","28","108912","0.0-6.0-0.0-0.0","d5e3a392e1c32a3ed0669ebf71acf2cc69004f26405b2a90ee1d795286f5095b","arctic","swim","null","","<div style=""font-size:60px;"" tabindex=""0"">+</div>","","null","","","","","","","","","","","","","","","","","","","",""
"dual-task","null","null","null","","arctic","swim","513.3000000007451","","E","null","77","77","1","arctic-dual-task","","E","uppercase","14000","0","3","d5e3a392e1c32a3ed0669ebf71acf2cc69004f26405b2a90ee1d795286f5095b","14001.099999997765","513.3000000007451","77","1","arctic","","","","",""
"dual-task","null","null","null","","arctic","swim","623.0999999977648","","h","null","88","88","1","arctic-dual-task","","h","lowercase","28000","0","3","d5e3a392e1c32a3ed0669ebf71acf2cc69004f26405b2a90ee1d795286f5095b","28000.800000000745","623.0999999977648","88","1","arctic","","","","",""
"dual-task","null","null","null","","arctic","swim","538.0999999977648","","T","null","77","77","1","arctic-dual-task","","T","uppercase","38000","0","3","d5e3a392e1c32a3ed0669ebf71acf2cc69004f26405b2a90ee1d795286f5095b","37999.800000000745","538.0999999977648","77","1","arctic","","","","",""
"dual-task","null","null","null","","arctic","swim","525.6000000014901","","a","null","88","88","1","arctic-dual-task","","a","lowercase","50000","0","3","d5e3a392e1c32a3ed0669ebf71acf2cc69004f26405b2a90ee1d795286f5095b","50000.800000000745","525.6000000014901","88","1","arctic","","","","",""
"dual-task","null","null","null","","arctic","swim","635.7999999970198","","t","null","88","88","1","arctic-dual-task","","t","lowercase","58000","0","3","d5e3a392e1c32a3ed0669ebf71acf2cc69004f26405b2a90ee1d795286f5095b","58000.800000000745","635.7999999970198","88","1","arctic","","","","",""
"dual-task","null","null","null","","arctic","swim","664.3999999985099","","a","null","88","88","1","arctic-dual-task","","a","lowercase","70000","0","3","d5e3a392e1c32a3ed0669ebf71acf2cc69004f26405b2a90ee1d795286f5095b","70001.80000000075","664.3999999985099","88","1","arctic","","","","",""
"dual-task","null","null","null","","arctic","swim","498.69999999925494","","d","null","88","88","1","arctic-dual-task","","d","lowercase","84000","0","3","d5e3a392e1c32a3ed0669ebf71acf2cc69004f26405b2a90ee1d795286f5095b","84000.80000000075","498.69999999925494","88","1","arctic","","","","",""
"dual-task","null","null","null","","arctic","swim","487.0999999977648","","r","null","88","88","1","arctic-dual-task","","r","lowercase","98000","0","3","d5e3a392e1c32a3ed0669ebf71acf2cc69004f26405b2a90ee1d795286f5095b","98000.80000000075","487.0999999977648","88","1","arctic","","","","",""
"dual-task","null","null","null","","arctic","swim","530.5","","a","null","88","88","1","arctic-dual-task","","a","lowercase","112000","0","3","d5e3a392e1c32a3ed0669ebf71acf2cc69004f26405b2a90ee1d795286f5095b","112001.80000000075","530.5","88","1","arctic","","","","",""
"dual-task","null","null","null","","arctic","swim","450.5999999977648","","t","null","88","88","1","arctic-dual-task","","t","lowercase","120000","0","3","d5e3a392e1c32a3ed0669ebf71acf2cc69004f26405b2a90ee1d795286f5095b","120000.80000000075","450.5999999977648","88","1","arctic","","","","",""
"dual-task","null","null","null","","arctic","swim","499","","n","null","88","88","1","arctic-dual-task","","n","lowercase","132000","0","3","d5e3a392e1c32a3ed0669ebf71acf2cc69004f26405b2a90ee1d795286f5095b","132000.80000000075","499","88","1","arctic","","","","",""
"dual-task","null","null","null","","arctic","swim","478.5999999977648","","F","null","88","77","0","arctic-dual-task","","F","uppercase","146000","0","3","d5e3a392e1c32a3ed0669ebf71acf2cc69004f26405b2a90ee1d795286f5095b","146000.80000000075","478.5999999977648","88","0","arctic","","","","",""
"dual-task","null","null","null","","arctic","swim","542.5999999977648","","f","null","88","88","1","arctic-dual-task","","f","lowercase","154000","0","3","d5e3a392e1c32a3ed0669ebf71acf2cc69004f26405b2a90ee1d795286f5095b","154000.80000000075","542.5999999977648","88","1","arctic","","","","",""
"dual-task","null","null","null","","arctic","swim","512.0999999977648","","e","null","88","88","1","arctic-dual-task","","e","lowercase","164000","0","3","d5e3a392e1c32a3ed0669ebf71acf2cc69004f26405b2a90ee1d795286f5095b","164000.80000000075","512.0999999977648","88","1","arctic","","","","",""
"dual-task","null","null","null","","arctic","swim","497.4000000022352","","e","null","88","88","1","arctic-dual-task","","e","lowercase","178000","0","3","d5e3a392e1c32a3ed0669ebf71acf2cc69004f26405b2a90ee1d795286f5095b","177999.8999999985","497.4000000022352","88","1","arctic","","","","",""
"dual-task","null","null","null","","arctic","swim","424.5999999977648","","G","null","77","77","1","arctic-dual-task","","G","uppercase","186000","0","3","d5e3a392e1c32a3ed0669ebf71acf2cc69004f26405b2a90ee1d795286f5095b","186000.80000000075","424.5999999977648","77","1","arctic","","","","",""
"dual-task","null","null","null","","arctic","swim","675.2999999970198","","a","null","88","88","1","arctic-dual-task","","a","lowercase","200000","0","3","d5e3a392e1c32a3ed0669ebf71acf2cc69004f26405b2a90ee1d795286f5095b","200000.80000000075","675.2999999970198","88","1","arctic","","","","",""
"dual-task","null","null","null","","arctic","swim","567.5","","R","null","77","77","1","arctic-dual-task","","R","uppercase","212000","0","3","d5e3a392e1c32a3ed0669ebf71acf2cc69004f26405b2a90ee1d795286f5095b","212001.69999999925","567.5","77","1","arctic","","","","",""
"dual-task","null","null","null","","arctic","swim","572.5","","n","null","88","88","1","arctic-dual-task","","n","lowercase","220000","0","3","d5e3a392e1c32a3ed0669ebf71acf2cc69004f26405b2a90ee1d795286f5095b","220000.80000000075","572.5","88","1","arctic","","","","",""
"dual-task","null","null","null","","arctic","swim","511","","F","null","77","77","1","arctic-dual-task","","F","uppercase","234000","0","3","d5e3a392e1c32a3ed0669ebf71acf2cc69004f26405b2a90ee1d795286f5095b","234000.8999999985","511","77","1","arctic","","","","",""
"dual-task","null","null","null","","arctic","swim","521.5","","R","null","77","77","1","arctic-dual-task","","R","uppercase","246000","0","3","d5e3a392e1c32a3ed0669ebf71acf2cc69004f26405b2a90ee1d795286f5095b","245999.80000000075","521.5","77","1","arctic","","","","",""
"dual-task","null","null","null","","arctic","swim","490.5999999977648","","N","null","77","77","1","arctic-dual-task","","N","uppercase","256000","0","3","d5e3a392e1c32a3ed0669ebf71acf2cc69004f26405b2a90ee1d795286f5095b","255999.80000000075","490.5999999977648","77","1","arctic","","","","",""
"dual-task","null","null","null","","arctic","swim","599.0999999977648","","b","null","88","88","1","arctic-dual-task","","b","lowercase","264000","0","3","d5e3a392e1c32a3ed0669ebf71acf2cc69004f26405b2a90ee1d795286f5095b","264000.80000000075","599.0999999977648","88","1","arctic","","","","",""
"dual-task","null","null","null","","arctic","swim","473.0999999977648","","A","null","77","77","1","arctic-dual-task","","A","uppercase","274000","0","3","d5e3a392e1c32a3ed0669ebf71acf2cc69004f26405b2a90ee1d795286f5095b","274000.80000000075","473.0999999977648","77","1","arctic","","","","",""
"dual-task","null","null","null","","arctic","swim","542.6999999992549","","r","null","88","88","1","arctic-dual-task","","r","lowercase","286000","0","3","d5e3a392e1c32a3ed0669ebf71acf2cc69004f26405b2a90ee1d795286f5095b","286000.80000000075","542.6999999992549","88","1","arctic","","","","",""
"dual-task","null","null","null","","arctic","swim","577","","E","null","77","77","1","arctic-dual-task","","E","uppercase","296000","0","3","d5e3a392e1c32a3ed0669ebf71acf2cc69004f26405b2a90ee1d795286f5095b","296000.80000000075","577","77","1","arctic","","","","",""
"dual-task","null","null","null","","arctic","swim","481.0999999977648","","R","null","77","77","1","arctic-dual-task","","R","uppercase","306000","0","3","d5e3a392e1c32a3ed0669ebf71acf2cc69004f26405b2a90ee1d795286f5095b","306000.80000000075","481.0999999977648","77","1","arctic","","","","",""
"dual-task","null","null","null","","arctic","swim","585.5999999977648","","d","null","88","88","1","arctic-dual-task","","d","lowercase","314000","0","3","d5e3a392e1c32a3ed0669ebf71acf2cc69004f26405b2a90ee1d795286f5095b","314000.80000000075","585.5999999977648","88","1","arctic","","","","",""
"dual-task","null","null","null","","arctic","swim","559.8999999985099","","G","null","77","77","1","arctic-dual-task","","G","uppercase","326000","0","3","d5e3a392e1c32a3ed0669ebf71acf2cc69004f26405b2a90ee1d795286f5095b","326000.80000000075","559.8999999985099","77","1","arctic","","","","",""
"dual-task","null","null","null","","arctic","swim","509.80000000074506","","H","null","77","77","1","arctic-dual-task","","H","uppercase","334000","0","3","d5e3a392e1c32a3ed0669ebf71acf2cc69004f26405b2a90ee1d795286f5095b","333999.80000000075","509.80000000074506","77","1","arctic","","","","",""
"dual-task","null","null","null","","arctic","swim","573.5","","b","null","88","88","1","arctic-dual-task","","b","lowercase","346000","0","3","d5e3a392e1c32a3ed0669ebf71acf2cc69004f26405b2a90ee1d795286f5095b","346000.80000000075","573.5","88","1","arctic","","","","",""
"dual-task","null","null","null","","arctic","swim","537.5","","n","null","88","88","1","arctic-dual-task","","n","lowercase","356000","0","3","d5e3a392e1c32a3ed0669ebf71acf2cc69004f26405b2a90ee1d795286f5095b","355999.8999999985","537.5","88","1","arctic","","","","",""
"dual-task","null","null","null","","arctic","swim","616","","g","null","88","88","1","arctic-dual-task","","g","lowercase","366000","0","3","d5e3a392e1c32a3ed0669ebf71acf2cc69004f26405b2a90ee1d795286f5095b","366000.80000000075","616","88","1","arctic","","","","",""
"dual-task","null","null","null","","arctic","swim","530.1999999992549","","d","null","88","88","1","arctic-dual-task","","d","lowercase","376000","0","3","d5e3a392e1c32a3ed0669ebf71acf2cc69004f26405b2a90ee1d795286f5095b","376000.80000000075","530.1999999992549","88","1","arctic","","","","",""
"dual-task","null","null","null","","arctic","swim","519.6999999992549","","H","null","77","77","1","arctic-dual-task","","H","uppercase","386000","0","3","d5e3a392e1c32a3ed0669ebf71acf2cc69004f26405b2a90ee1d795286f5095b","386000.80000000075","519.6999999992549","77","1","arctic","","","","",""
"dual-task","null","null","null","","arctic","swim","529","","h","null","88","88","1","arctic-dual-task","","h","lowercase","398000","0","3","d5e3a392e1c32a3ed0669ebf71acf2cc69004f26405b2a90ee1d795286f5095b","398000.80000000075","529","88","1","arctic","","","","",""
"dual-task","null","null","null","","arctic","swim","613","","g","null","88","88","1","arctic-dual-task","","g","lowercase","404000","0","3","d5e3a392e1c32a3ed0669ebf71acf2cc69004f26405b2a90ee1d795286f5095b","404000.80000000075","613","88","1","arctic","","","","",""
"dual-task","null","null","null","","arctic","swim","553.5","","E","null","77","77","1","arctic-dual-task","","E","uppercase","418000","0","3","d5e3a392e1c32a3ed0669ebf71acf2cc69004f26405b2a90ee1d795286f5095b","417999.8999999985","553.5","77","1","arctic","","","","",""
"dual-task","null","null","null","","arctic","swim","615.5999999977648","","T","null","77","77","1","arctic-dual-task","","T","uppercase","424000","0","3","d5e3a392e1c32a3ed0669ebf71acf2cc69004f26405b2a90ee1d795286f5095b","424001.80000000075","615.5999999977648","77","1","arctic","","","","",""
"dual-task","null","null","null","","arctic","swim","546.1999999992549","","B","null","77","77","1","arctic-dual-task","","B","uppercase","436000","0","3","d5e3a392e1c32a3ed0669ebf71acf2cc69004f26405b2a90ee1d795286f5095b","436000.80000000075","546.1999999992549","77","1","arctic","","","","",""
"dual-task","null","null","null","","arctic","swim","536.2999999970198","","f","null","88","88","1","arctic-dual-task","","f","lowercase","446000","0","3","d5e3a392e1c32a3ed0669ebf71acf2cc69004f26405b2a90ee1d795286f5095b","445999.80000000075","536.2999999970198","88","1","arctic","","","","",""
"dual-task","null","null","null","","arctic","swim","539.5","","t","null","88","88","1","arctic-dual-task","","t","lowercase","452000","0","3","d5e3a392e1c32a3ed0669ebf71acf2cc69004f26405b2a90ee1d795286f5095b","452000.80000000075","539.5","88","1","arctic","","","","",""
"dual-task","null","null","null","","arctic","swim","472.5","","B","null","77","77","1","arctic-dual-task","","B","uppercase","460000","0","3","d5e3a392e1c32a3ed0669ebf71acf2cc69004f26405b2a90ee1d795286f5095b","460001.80000000075","472.5","77","1","arctic","","","","",""
"dual-task","null","null","null","","arctic","swim","513.0999999977648","","q","null","88","88","1","arctic-dual-task","","q","lowercase","468000","0","3","d5e3a392e1c32a3ed0669ebf71acf2cc69004f26405b2a90ee1d795286f5095b","468000.80000000075","513.0999999977648","88","1","arctic","","","","",""
"dual-task","null","null","null","","arctic","swim","477.0999999977648","","D","null","77","77","1","arctic-dual-task","","D","uppercase","474000","0","3","d5e3a392e1c32a3ed0669ebf71acf2cc69004f26405b2a90ee1d795286f5095b","474000.80000000075","477.0999999977648","77","1","arctic","","","","",""
"dual-task","null","null","null","","arctic","swim","451.5","","e","null","88","88","1","arctic-dual-task","","e","lowercase","484000","0","3","d5e3a392e1c32a3ed0669ebf71acf2cc69004f26405b2a90ee1d795286f5095b","484000.80000000075","451.5","88","1","arctic","","","","",""
"dual-task","null","null","null","","arctic","swim","505.0999999977648","","Q","null","77","77","1","arctic-dual-task","","Q","uppercase","498000","0","3","d5e3a392e1c32a3ed0669ebf71acf2cc69004f26405b2a90ee1d795286f5095b","498001.80000000075","505.0999999977648","77","1","arctic","","","","",""
"dual-task","null","null","null","","arctic","swim","559.8999999985099","","b","null","88","88","1","arctic-dual-task","","b","lowercase","504000","0","3","d5e3a392e1c32a3ed0669ebf71acf2cc69004f26405b2a90ee1d795286f5095b","504000.80000000075","559.8999999985099","88","1","arctic","","","","",""
"dual-task","null","null","null","","arctic","swim","611.5","","D","null","77","77","1","arctic-dual-task","","D","uppercase","512000","0","3","d5e3a392e1c32a3ed0669ebf71acf2cc69004f26405b2a90ee1d795286f5095b","511999.80000000075","611.5","77","1","arctic","","","","",""
"dual-task","null","null","null","","arctic","swim","514.3000000007451","","B","null","77","77","1","arctic-dual-task","","B","uppercase","518000","0","3","d5e3a392e1c32a3ed0669ebf71acf2cc69004f26405b2a90ee1d795286f5095b","518000.8999999985","514.3000000007451","77","1","arctic","","","","",""
"dual-task","null","null","null","","arctic","swim","513.8000000007451","","q","null","88","88","1","arctic-dual-task","","q","lowercase","528000","0","3","d5e3a392e1c32a3ed0669ebf71acf2cc69004f26405b2a90ee1d795286f5095b","528000.8000000007","513.8000000007451","88","1","arctic","","","","",""
"dual-task","null","null","null","","arctic","swim","608.8999999985099","","r","null","88","88","1","arctic-dual-task","","r","lowercase","536000","0","3","d5e3a392e1c32a3ed0669ebf71acf2cc69004f26405b2a90ee1d795286f5095b","535999.8000000007","608.8999999985099","88","1","arctic","","","","",""
"dual-task","null","null","null","","arctic","swim","477.4000000022352","","F","null","77","77","1","arctic-dual-task","","F","uppercase","548000","0","3","d5e3a392e1c32a3ed0669ebf71acf2cc69004f26405b2a90ee1d795286f5095b","547999.8000000007","477.4000000022352","77","1","arctic","","","","",""
"dual-task","null","null","null","","arctic","swim","545.5","","F","null","77","77","1","arctic-dual-task","","F","uppercase","556000","0","3","d5e3a392e1c32a3ed0669ebf71acf2cc69004f26405b2a90ee1d795286f5095b","556001.8000000007","545.5","77","1","arctic","","","","",""
"dual-task","null","null","null","","arctic","swim","455","","N","null","77","77","1","arctic-dual-task","","N","uppercase","568000","0","3","d5e3a392e1c32a3ed0669ebf71acf2cc69004f26405b2a90ee1d795286f5095b","568000.8000000007","455","77","1","arctic","","","","",""
"dual-task","null","null","null","","arctic","swim","499","","B","null","77","77","1","arctic-dual-task","","B","uppercase","576000","0","3","d5e3a392e1c32a3ed0669ebf71acf2cc69004f26405b2a90ee1d795286f5095b","576000.8000000007","499","77","1","arctic","","","","",""
"dual-task","null","null","null","","arctic","swim","472.4000000022352","","A","null","77","77","1","arctic-dual-task","","A","uppercase","584000","0","3","d5e3a392e1c32a3ed0669ebf71acf2cc69004f26405b2a90ee1d795286f5095b","584001.8000000007","472.4000000022352","77","1","arctic","","","","",""
"dual-task","null","null","null","","arctic","swim","488.5999999977648","","N","null","77","77","1","arctic-dual-task","","N","uppercase","592000","0","3","d5e3a392e1c32a3ed0669ebf71acf2cc69004f26405b2a90ee1d795286f5095b","592000.8000000007","488.5999999977648","77","1","arctic","","","","",""
"dual-task","null","null","null","","arctic","swim","452","","N","null","77","77","1","arctic-dual-task","","N","uppercase","600000","0","3","d5e3a392e1c32a3ed0669ebf71acf2cc69004f26405b2a90ee1d795286f5095b","600001.8000000007","452","77","1","arctic","","","","",""
"dual-task","null","null","null","","arctic","swim","465.5","","Q","null","77","77","1","arctic-dual-task","","Q","uppercase","614000","0","3","d5e3a392e1c32a3ed0669ebf71acf2cc69004f26405b2a90ee1d795286f5095b","614001.8000000007","465.5","77","1","arctic","","","","",""
"dual-task","null","null","null","","arctic","swim","530.5","","h","null","88","88","1","arctic-dual-task","","h","lowercase","622000","0","3","d5e3a392e1c32a3ed0669ebf71acf2cc69004f26405b2a90ee1d795286f5095b","622001.6999999993","530.5","88","1","arctic","","","","",""
"dual-task","null","null","null","","arctic","swim","484.69999999925494","","H","null","77","77","1","arctic-dual-task","","H","uppercase","628000","0","3","d5e3a392e1c32a3ed0669ebf71acf2cc69004f26405b2a90ee1d795286f5095b","628001.8000000007","484.69999999925494","77","1","arctic","","","","",""
"dual-task","null","null","null","","arctic","swim","514.7999999970198","","D","null","77","77","1","arctic-dual-task","","D","uppercase","636000","0","3","d5e3a392e1c32a3ed0669ebf71acf2cc69004f26405b2a90ee1d795286f5095b","636000.8000000007","514.7999999970198","77","1","arctic","","","","",""
"dual-task","null","null","null","","arctic","swim","503.19999999925494","","H","null","77","77","1","arctic-dual-task","","H","uppercase","642000","0","3","d5e3a392e1c32a3ed0669ebf71acf2cc69004f26405b2a90ee1d795286f5095b","642001.8000000007","503.19999999925494","77","1","arctic","","","","",""
"dual-task","null","null","null","","arctic","swim","638.2999999970198","","T","null","77","77","1","arctic-dual-task","","T","uppercase","650000","0","3","d5e3a392e1c32a3ed0669ebf71acf2cc69004f26405b2a90ee1d795286f5095b","650001.8000000007","638.2999999970198","77","1","arctic","","","","",""
"dual-task","null","null","null","","arctic","swim","506.79999999701977","","d","null","88","88","1","arctic-dual-task","","d","lowercase","662000","0","3","d5e3a392e1c32a3ed0669ebf71acf2cc69004f26405b2a90ee1d795286f5095b","662001.8000000007","506.79999999701977","88","1","arctic","","","","",""
"dual-task","null","null","null","","arctic","swim","565.7999999970198","","b","null","88","88","1","arctic-dual-task","","b","lowercase","668000","0","3","d5e3a392e1c32a3ed0669ebf71acf2cc69004f26405b2a90ee1d795286f5095b","668002.8000000007","565.7999999970198","88","1","arctic","","","","",""
"dual-task","null","null","null","","arctic","swim","486.19999999925494","","e","null","88","88","1","arctic-dual-task","","e","lowercase","674000","0","3","d5e3a392e1c32a3ed0669ebf71acf2cc69004f26405b2a90ee1d795286f5095b","674001.8000000007","486.19999999925494","88","1","arctic","","","","",""
"dual-task","null","null","null","","arctic","swim","564.1000000014901","","G","null","77","77","1","arctic-dual-task","","G","uppercase","682000","0","3","d5e3a392e1c32a3ed0669ebf71acf2cc69004f26405b2a90ee1d795286f5095b","682002.8000000007","564.1000000014901","77","1","arctic","","","","",""
"dual-task","null","null","null","","arctic","swim","473.79999999701977","","q","null","88","88","1","arctic-dual-task","","q","lowercase","696000","0","3","d5e3a392e1c32a3ed0669ebf71acf2cc69004f26405b2a90ee1d795286f5095b","696001.8000000007","473.79999999701977","88","1","arctic","","","","",""
"dual-task","null","null","null","","arctic","swim","461.8999999985099","","T","null","77","77","1","arctic-dual-task","","T","uppercase","704000","0","3","d5e3a392e1c32a3ed0669ebf71acf2cc69004f26405b2a90ee1d795286f5095b","704002.8000000007","461.8999999985099","77","1","arctic","","","","",""
"dual-task","null","null","null","","arctic","swim","528.1999999992549","","g","null","88","88","1","arctic-dual-task","","g","lowercase","710000","0","3","d5e3a392e1c32a3ed0669ebf71acf2cc69004f26405b2a90ee1d795286f5095b","710001.6999999993","528.1999999992549","88","1","arctic","","","","",""
"dual-task","null","null","null","","arctic","swim","581.5999999977648","","r","null","88","88","1","arctic-dual-task","","r","lowercase","722000","0","3","d5e3a392e1c32a3ed0669ebf71acf2cc69004f26405b2a90ee1d795286f5095b","722002.8000000007","581.5999999977648","88","1","arctic","","","","",""
"dual-task","null","null","null","","arctic","swim","486.5999999977648","","G","null","77","77","1","arctic-dual-task","","G","uppercase","730000","0","3","d5e3a392e1c32a3ed0669ebf71acf2cc69004f26405b2a90ee1d795286f5095b","730001.6999999993","486.5999999977648","77","1","arctic","","","","",""
"dual-task","null","null","null","","arctic","swim","571.0999999977648","","f","null","88","88","1","arctic-dual-task","","f","lowercase","740000","0","3","d5e3a392e1c32a3ed0669ebf71acf2cc69004f26405b2a90ee1d795286f5095b","740001.8000000007","571.0999999977648","88","1","arctic","","","","",""
"dual-task","null","null","null","","arctic","swim","443.19999999925494","","A","null","77","77","1","arctic-dual-task","","A","uppercase","750000","0","3","d5e3a392e1c32a3ed0669ebf71acf2cc69004f26405b2a90ee1d795286f5095b","750002.8000000007","443.19999999925494","77","1","arctic","","","","",""
"dual-task","null","null","null","","arctic","swim","434.5999999977648","","Q","null","77","77","1","arctic-dual-task","","Q","uppercase","758000","0","3","d5e3a392e1c32a3ed0669ebf71acf2cc69004f26405b2a90ee1d795286f5095b","758001.8000000007","434.5999999977648","77","1","arctic","","","","",""
"dual-task","null","null","null","","arctic","swim","526.9000000022352","","A","null","77","77","1","arctic-dual-task","","A","uppercase","772000","0","3","d5e3a392e1c32a3ed0669ebf71acf2cc69004f26405b2a90ee1d795286f5095b","772002.8000000007","526.9000000022352","77","1","arctic","","","","",""
"dual-task","null","null","null","","arctic","swim","432.1000000014901","","Q","null","77","77","1","arctic-dual-task","","Q","uppercase","782000","0","3","d5e3a392e1c32a3ed0669ebf71acf2cc69004f26405b2a90ee1d795286f5095b","782001.8000000007","432.1000000014901","77","1","arctic","","","","",""
"audio-keyboard-response","29","906939","0.0-6.0-0.0-1.0","d5e3a392e1c32a3ed0669ebf71acf2cc69004f26405b2a90ee1d795286f5095b","arctic","swim","null","","audio/story_arctic.mp3","","null","","","","","","","","","","","","","","","","","","","",""
"html-button-response","30","910408","0.0-6.0-0.0-2.0","d5e3a392e1c32a3ed0669ebf71acf2cc69004f26405b2a90ee1d795286f5095b","arctic","swim","3468","","<p>This concludes the story. Thank you for listening.</p><p>You will now answer some questions about the content of the story.</p>","0","","","","","","","","","","","","","","","","","","","","",""
"survey-multi-choice","31","916110","0.0-6.0-0.0-3.0-0.0","d5e3a392e1c32a3ed0669ebf71acf2cc69004f26405b2a90ee1d795286f5095b","arctic","swim","5699","","<b>How did the dogs respond when they saw the bears?</b>","","","","1","arctic-comprehension","","","","","","","","","","","","","{""Q0"":""Approached them""}","","","",""
"survey-multi-choice","32","920673","0.0-6.0-0.0-3.0-0.1","d5e3a392e1c32a3ed0669ebf71acf2cc69004f26405b2a90ee1d795286f5095b","arctic","swim","4310","","<b>How did the narrator&#39;s encounter with the polar bears end?</b>","","","","1","arctic-comprehension","","","","","","","","","","","","","{""Q0"":""The bears walked back to their den.""}","","","",""
"survey-multi-choice","33","926065","0.0-6.0-0.0-3.0-0.2","d5e3a392e1c32a3ed0669ebf71acf2cc69004f26405b2a90ee1d795286f5095b","arctic","swim","5140","","<b>What were the weather conditions in the Arctic like the winter of the narrator&#39;s expedition?</b>","","","","1","arctic-comprehension","","","","","","","","","","","","","{""Q0"":""There were more storms than any other winter in recorded history.""}","","","",""
"survey-multi-choice","34","930266","0.0-6.0-0.0-3.0-0.3","d5e3a392e1c32a3ed0669ebf71acf2cc69004f26405b2a90ee1d795286f5095b","arctic","swim","3948","","<b>How many sponsorships did the narrator receive to support her expedition?</b>","","","","1","arctic-comprehension","","","","","","","","","","","","","{""Q0"":""None""}","","","",""
"survey-multi-choice","35","936533","0.0-6.0-0.0-3.0-0.4","d5e3a392e1c32a3ed0669ebf71acf2cc69004f26405b2a90ee1d795286f5095b","arctic","swim","6014","","<b>What was the objective of the narrator&#39;s expedition?</b>","","","","1","arctic-comprehension","","","","","","","","","","","","","{""Q0"":""Dogsled across Arctic America""}","","","",""
"survey-multi-choice","36","945253","0.0-6.0-0.0-3.0-0.5","d5e3a392e1c32a3ed0669ebf71acf2cc69004f26405b2a90ee1d795286f5095b","arctic","swim","8467","","<b>How did the narrator prepare for her expedition?</b>","","","","1","arctic-comprehension","","","","","","","","","","","","","{""Q0"":""Trained in Alaska learning how to dogsled""}","","","",""
"survey-multi-choice","37","948241","0.0-6.0-0.0-3.0-0.6","d5e3a392e1c32a3ed0669ebf71acf2cc69004f26405b2a90ee1d795286f5095b","arctic","swim","2735","","<b>What did the narrator do for leisure while in her tent?</b>","","","","1","arctic-comprehension","","","","","","","","","","","","","{""Q0"":""Read""}","","","",""
"survey-multi-choice","38","951090","0.0-6.0-0.0-3.0-0.7","d5e3a392e1c32a3ed0669ebf71acf2cc69004f26405b2a90ee1d795286f5095b","arctic","swim","2597","","<b>What is the name of the narrator&#39;s neighbour?</b>","","","","1","arctic-comprehension","","","","","","","","","","","","","{""Q0"":""Dave""}","","","",""
"survey-multi-choice","39","966042","0.0-6.0-0.0-3.0-0.8","d5e3a392e1c32a3ed0669ebf71acf2cc69004f26405b2a90ee1d795286f5095b","arctic","swim","14699","","<b>Which dog on the narrator&#39;s dog team never followed instructions?</b>","","","","1","arctic-comprehension","","","","","","","","","","","","","{""Q0"":""Robert""}","","","",""
"survey-multi-choice","40","973160","0.0-6.0-0.0-3.0-0.9","d5e3a392e1c32a3ed0669ebf71acf2cc69004f26405b2a90ee1d795286f5095b","arctic","swim","6864","","<b>How did the narrator&#39;s neighbour respond when she told him about her expedition?</b>","","","","1","arctic-comprehension","","","","","","","","","","","","","{""Q0"":""He said she was going to fail.""}","","","",""
"html-button-response","41","975211","0.0-6.0-0.0-4.0","d5e3a392e1c32a3ed0669ebf71acf2cc69004f26405b2a90ee1d795286f5095b","arctic","swim","1799","","<p>Thank you for your responses.</p><p>You will now answer some questions about your impressions of the story.</p>","0","","","","","","","","","","","","","","","","","","","","",""
"html-button-response","42","978108","0.0-6.0-0.0-5.0-0.0","d5e3a392e1c32a3ed0669ebf71acf2cc69004f26405b2a90ee1d795286f5095b","arctic","swim","2895","","EE3","4","","","","arctic-engagement","","","","","","","","","","","","","","5","emo-engage","",""
"html-button-response","43","981021","0.0-6.0-0.0-5.0-0.1","d5e3a392e1c32a3ed0669ebf71acf2cc69004f26405b2a90ee1d795286f5095b","arctic","swim","2661","","EE5","6","","","","arctic-engagement","","","","","","","","","","","","","","7","emo-engage","",""
"html-button-response","44","982562","0.0-6.0-0.0-5.0-0.2","d5e3a392e1c32a3ed0669ebf71acf2cc69004f26405b2a90ee1d795286f5095b","arctic","swim","1290","","E10","6","","","","arctic-engagement","","","","","","","","","","","","","","7","enjoyment","",""
"html-button-response","45","983899","0.0-6.0-0.0-5.0-0.3","d5e3a392e1c32a3ed0669ebf71acf2cc69004f26405b2a90ee1d795286f5095b","arctic","swim","1085","","E6","6","","","","arctic-engagement","","","","","","","","","","","","","","7","enjoyment","",""
"html-button-response","46","985712","0.0-6.0-0.0-5.0-0.4","d5e3a392e1c32a3ed0669ebf71acf2cc69004f26405b2a90ee1d795286f5095b","arctic","swim","1561","","MS1","6","","","","arctic-engagement","","","","","","","","","","","","","","7","mental-sim","",""
"html-button-response","47","988505","0.0-6.0-0.0-5.0-0.5","d5e3a392e1c32a3ed0669ebf71acf2cc69004f26405b2a90ee1d795286f5095b","arctic","swim","2543","","EE4","5","","","","arctic-engagement","","","","","","","","","","","","","","6","emo-engage","",""
"html-button-response","48","991379","0.0-6.0-0.0-5.0-0.6","d5e3a392e1c32a3ed0669ebf71acf2cc69004f26405b2a90ee1d795286f5095b","arctic","swim","2622","","A5","6","","","","arctic-engagement","","","","","","","","","","","","","","7","absorption","",""
"html-button-response","49","992643","0.0-6.0-0.0-5.0-0.7","d5e3a392e1c32a3ed0669ebf71acf2cc69004f26405b2a90ee1d795286f5095b","arctic","swim","1012","","A3","6","","","","arctic-engagement","","","","","","","","","","","","","","7","absorption","",""
"html-button-response","50","995394","0.0-6.0-0.0-5.0-0.8","d5e3a392e1c32a3ed0669ebf71acf2cc69004f26405b2a90ee1d795286f5095b","arctic","swim","2498","","A4","6","","","","arctic-engagement","","","","","","","","","","","","","","7","absorption","",""
"html-button-response","51","999455","0.0-6.0-0.0-5.0-0.9","d5e3a392e1c32a3ed0669ebf71acf2cc69004f26405b2a90ee1d795286f5095b","arctic","swim","3809","","EE1","5","","","","arctic-engagement","","","","","","","","","","","","","","6","emo-engage","",""
"html-button-response","52","1000916","0.0-6.0-0.0-5.0-0.10","d5e3a392e1c32a3ed0669ebf71acf2cc69004f26405b2a90ee1d795286f5095b","arctic","swim","1210","","E8","6","","","","arctic-engagement","","","","","","","","","","","","","","7","enjoyment","",""
"html-button-response","53","1002946","0.0-6.0-0.0-5.0-0.11","d5e3a392e1c32a3ed0669ebf71acf2cc69004f26405b2a90ee1d795286f5095b","arctic","swim","1778","","A2","6","","","","arctic-engagement","","","","","","","","","","","","","","7","absorption","",""
"html-button-response","54","1004762","0.0-6.0-0.0-5.0-0.12","d5e3a392e1c32a3ed0669ebf71acf2cc69004f26405b2a90ee1d795286f5095b","arctic","swim","1564","","A1","6","","","","arctic-engagement","","","","","","","","","","","","","","7","absorption","",""
"html-button-response","55","1008488","0.0-6.0-0.0-5.0-0.13","d5e3a392e1c32a3ed0669ebf71acf2cc69004f26405b2a90ee1d795286f5095b","arctic","swim","3474","","EE2","6","","","","arctic-engagement","","","","","","","","","","","","","","7","emo-engage","",""
"html-button-response","56","1009703","0.0-6.0-0.0-5.0-0.14","d5e3a392e1c32a3ed0669ebf71acf2cc69004f26405b2a90ee1d795286f5095b","arctic","swim","962","","E1","6","","","","arctic-engagement","","","","","","","","","","","","","","7","enjoyment","",""
"html-button-response","57","1011684","0.0-6.0-0.0-5.0-0.15","d5e3a392e1c32a3ed0669ebf71acf2cc69004f26405b2a90ee1d795286f5095b","arctic","swim","1729","","MS3","6","","","","arctic-engagement","","","","","","","","","","","","","","7","mental-sim","",""
"html-button-response","58","1014459","0.0-6.0-0.0-5.0-0.16","d5e3a392e1c32a3ed0669ebf71acf2cc69004f26405b2a90ee1d795286f5095b","arctic","swim","2523","","MS2","6","","","","arctic-engagement","","","","","","","","","","","","","","7","mental-sim","",""
"html-button-response","59","1015914","0.0-6.0-0.0-5.0-0.17","d5e3a392e1c32a3ed0669ebf71acf2cc69004f26405b2a90ee1d795286f5095b","arctic","swim","1202","","E7","6","","","","arctic-engagement","","","","","","","","","","","","","","7","enjoyment","",""
"html-keyboard-response","60","1031141","0.0-6.0-1.0","d5e3a392e1c32a3ed0669ebf71acf2cc69004f26405b2a90ee1d795286f5095b","arctic","swim","14976","","<p>Thank you for your responses. You will now listen to the second story.</p><p>Remember, as you listen to the story you will see letters appear on the screen.</br>As quickly as possible, press <b>&lt;x&gt;</b> if the letter is lowercase and <b>&lt;m&gt;</b> if the letter is uppercase.</p><p>Press <b>&lt;x&gt;</b> or <b>&lt;m&gt;</b> to begin listening!</p>","","77","","","","","","","","","","","","","","","","","","","",""
"html-keyboard-response","61","1031643","0.0-6.0-2.0-0.0","d5e3a392e1c32a3ed0669ebf71acf2cc69004f26405b2a90ee1d795286f5095b","arctic","swim","null","","<div style=""font-size:60px;"" tabindex=""0"">+</div>","","null","","","","","","","","","","","","","","","","","","","",""
"dual-task","null","null","null","","arctic","swim","586.8000000007451","","t","null","88","88","1","swim-dual-task","","t","lowercase","14000","0","3","d5e3a392e1c32a3ed0669ebf71acf2cc69004f26405b2a90ee1d795286f5095b","14000.89999999851","586.8000000007451","88","1","swim","","","","",""
"dual-task","null","null","null","","arctic","swim","562.2000000029802","","t","null","88","88","1","swim-dual-task","","t","lowercase","20000","0","3","d5e3a392e1c32a3ed0669ebf71acf2cc69004f26405b2a90ee1d795286f5095b","20000.599999997765","562.2000000029802","88","1","swim","","","","",""
"dual-task","null","null","null","","arctic","swim","460.6000000014901","","N","null","77","77","1","swim-dual-task","","N","uppercase","32000","0","3","d5e3a392e1c32a3ed0669ebf71acf2cc69004f26405b2a90ee1d795286f5095b","32000.699999999255","460.6000000014901","77","1","swim","","","","",""
"dual-task","null","null","null","","arctic","swim","505.8999999985099","","h","null","88","88","1","swim-dual-task","","h","lowercase","44000","0","3","d5e3a392e1c32a3ed0669ebf71acf2cc69004f26405b2a90ee1d795286f5095b","43999.699999999255","505.8999999985099","88","1","swim","","","","",""
"dual-task","null","null","null","","arctic","swim","544.3999999985099","","d","null","88","88","1","swim-dual-task","","d","lowercase","56000","0","3","d5e3a392e1c32a3ed0669ebf71acf2cc69004f26405b2a90ee1d795286f5095b","56000.699999999255","544.3999999985099","88","1","swim","","","","",""
"dual-task","null","null","null","","arctic","swim","667.5","","T","null","77","77","1","swim-dual-task","","T","uppercase","66000","0","3","d5e3a392e1c32a3ed0669ebf71acf2cc69004f26405b2a90ee1d795286f5095b","66001.59999999776","667.5","77","1","swim","","","","",""
"dual-task","null","null","null","","arctic","swim","621.8999999985099","","A","null","77","77","1","swim-dual-task","","A","uppercase","80000","0","3","d5e3a392e1c32a3ed0669ebf71acf2cc69004f26405b2a90ee1d795286f5095b","80000.69999999925","621.8999999985099","77","1","swim","","","","",""
"dual-task","null","null","null","","arctic","swim","732.8999999985099","","N","null","77","77","1","swim-dual-task","","N","uppercase","88000","0","3","d5e3a392e1c32a3ed0669ebf71acf2cc69004f26405b2a90ee1d795286f5095b","87999.69999999925","732.8999999985099","77","1","swim","","","","",""
"dual-task","null","null","null","","arctic","swim","740.8000000007451","","f","null","88","88","1","swim-dual-task","","f","lowercase","96000","0","3","d5e3a392e1c32a3ed0669ebf71acf2cc69004f26405b2a90ee1d795286f5095b","96000.69999999925","740.8000000007451","88","1","swim","","","","",""
"dual-task","null","null","null","","arctic","swim","554.6000000014901","","D","null","77","77","1","swim-dual-task","","D","uppercase","106000","0","3","d5e3a392e1c32a3ed0669ebf71acf2cc69004f26405b2a90ee1d795286f5095b","106000.69999999925","554.6000000014901","77","1","swim","","","","",""
"dual-task","null","null","null","","arctic","swim","619.8999999985099","","b","null","88","88","1","swim-dual-task","","b","lowercase","112000","0","3","d5e3a392e1c32a3ed0669ebf71acf2cc69004f26405b2a90ee1d795286f5095b","112000.69999999925","619.8999999985099","88","1","swim","","","","",""
"dual-task","null","null","null","","arctic","swim","569.1000000014901","","q","null","88","88","1","swim-dual-task","","q","lowercase","120000","0","3","d5e3a392e1c32a3ed0669ebf71acf2cc69004f26405b2a90ee1d795286f5095b","120000.59999999776","569.1000000014901","88","1","swim","","","","",""
"dual-task","null","null","null","","arctic","swim","577.5","","d","null","88","88","1","swim-dual-task","","d","lowercase","134000","0","3","d5e3a392e1c32a3ed0669ebf71acf2cc69004f26405b2a90ee1d795286f5095b","134000.69999999925","577.5","88","1","swim","","","","",""
"dual-task","null","null","null","","arctic","swim","496.69999999925494","","T","null","77","77","1","swim-dual-task","","T","uppercase","144000","0","3","d5e3a392e1c32a3ed0669ebf71acf2cc69004f26405b2a90ee1d795286f5095b","144000.69999999925","496.69999999925494","77","1","swim","","","","",""
"dual-task","null","null","null","","arctic","swim","613.1999999992549","","f","null","88","88","1","swim-dual-task","","f","lowercase","152000","0","3","d5e3a392e1c32a3ed0669ebf71acf2cc69004f26405b2a90ee1d795286f5095b","151999.69999999925","613.1999999992549","88","1","swim","","","","",""
"dual-task","null","null","null","","arctic","swim","659.5","","a","null","88","88","1","swim-dual-task","","a","lowercase","164000","0","3","d5e3a392e1c32a3ed0669ebf71acf2cc69004f26405b2a90ee1d795286f5095b","164001.59999999776","659.5","88","1","swim","","","","",""
"dual-task","null","null","null","","arctic","swim","544.8999999985099","","Q","null","77","77","1","swim-dual-task","","Q","uppercase","176000","0","3","d5e3a392e1c32a3ed0669ebf71acf2cc69004f26405b2a90ee1d795286f5095b","176000.69999999925","544.8999999985099","77","1","swim","","","","",""
"dual-task","null","null","null","","arctic","swim","640.1000000014901","","g","null","88","88","1","swim-dual-task","","g","lowercase","188000","0","3","d5e3a392e1c32a3ed0669ebf71acf2cc69004f26405b2a90ee1d795286f5095b","187999.59999999776","640.1000000014901","88","1","swim","","","","",""
"dual-task","null","null","null","","arctic","swim","511.30000000074506","","D","null","77","77","1","swim-dual-task","","D","uppercase","198000","0","3","d5e3a392e1c32a3ed0669ebf71acf2cc69004f26405b2a90ee1d795286f5095b","198001.59999999776","511.30000000074506","77","1","swim","","","","",""
"dual-task","null","null","null","","arctic","swim","595.8000000007451","","n","null","88","88","1","swim-dual-task","","n","lowercase","208000","0","3","d5e3a392e1c32a3ed0669ebf71acf2cc69004f26405b2a90ee1d795286f5095b","208001.69999999925","595.8000000007451","88","1","swim","","","","",""
"dual-task","null","null","null","","arctic","swim","541","","Q","null","77","77","1","swim-dual-task","","Q","uppercase","218000","0","3","d5e3a392e1c32a3ed0669ebf71acf2cc69004f26405b2a90ee1d795286f5095b","218000.59999999776","541","77","1","swim","","","","",""
"dual-task","null","null","null","","arctic","swim","549.3999999985099","","n","null","88","88","1","swim-dual-task","","n","lowercase","228000","0","3","d5e3a392e1c32a3ed0669ebf71acf2cc69004f26405b2a90ee1d795286f5095b","228001.69999999925","549.3999999985099","88","1","swim","","","","",""
"dual-task","null","null","null","","arctic","swim","440.5","","A","null","77","77","1","swim-dual-task","","A","uppercase","240000","0","3","d5e3a392e1c32a3ed0669ebf71acf2cc69004f26405b2a90ee1d795286f5095b","240000.69999999925","440.5","77","1","swim","","","","",""
"dual-task","null","null","null","","arctic","swim","583.1000000014901","","E","null","77","77","1","swim-dual-task","","E","uppercase","252000","0","3","d5e3a392e1c32a3ed0669ebf71acf2cc69004f26405b2a90ee1d795286f5095b","252001.69999999925","583.1000000014901","77","1","swim","","","","",""
"dual-task","null","null","null","","arctic","swim","548.1000000014901","","n","null","88","88","1","swim-dual-task","","n","lowercase","260000","0","3","d5e3a392e1c32a3ed0669ebf71acf2cc69004f26405b2a90ee1d795286f5095b","260000.69999999925","548.1000000014901","88","1","swim","","","","",""
"dual-task","null","null","null","","arctic","swim","430.69999999925494","","Q","null","77","77","1","swim-dual-task","","Q","uppercase","274000","0","3","d5e3a392e1c32a3ed0669ebf71acf2cc69004f26405b2a90ee1d795286f5095b","274001.59999999776","430.69999999925494","77","1","swim","","","","",""
"dual-task","null","null","null","","arctic","swim","510.1000000014901","","a","null","88","88","1","swim-dual-task","","a","lowercase","284000","0","3","d5e3a392e1c32a3ed0669ebf71acf2cc69004f26405b2a90ee1d795286f5095b","284001.69999999925","510.1000000014901","88","1","swim","","","","",""
"dual-task","null","null","null","","arctic","swim","545.3999999985099","","E","null","77","77","1","swim-dual-task","","E","uppercase","296000","0","3","d5e3a392e1c32a3ed0669ebf71acf2cc69004f26405b2a90ee1d795286f5095b","296000.69999999925","545.3999999985099","77","1","swim","","","","",""
"dual-task","null","null","null","","arctic","swim","563.8000000007451","","d","null","88","88","1","swim-dual-task","","d","lowercase","310000","0","3","d5e3a392e1c32a3ed0669ebf71acf2cc69004f26405b2a90ee1d795286f5095b","310000.69999999925","563.8000000007451","88","1","swim","","","","",""
"dual-task","null","null","null","","arctic","swim","592.8000000007451","","r","null","88","88","1","swim-dual-task","","r","lowercase","318000","0","3","d5e3a392e1c32a3ed0669ebf71acf2cc69004f26405b2a90ee1d795286f5095b","318000.59999999776","592.8000000007451","88","1","swim","","","","",""
"dual-task","null","null","null","","arctic","swim","536.3000000007451","","G","null","77","77","1","swim-dual-task","","G","uppercase","328000","0","3","d5e3a392e1c32a3ed0669ebf71acf2cc69004f26405b2a90ee1d795286f5095b","328001.69999999925","536.3000000007451","77","1","swim","","","","",""
"dual-task","null","null","null","","arctic","swim","557.3000000007451","","b","null","88","88","1","swim-dual-task","","b","lowercase","334000","0","3","d5e3a392e1c32a3ed0669ebf71acf2cc69004f26405b2a90ee1d795286f5095b","334000.69999999925","557.3000000007451","88","1","swim","","","","",""
"dual-task","null","null","null","","arctic","swim","494.80000000074506","","D","null","77","77","1","swim-dual-task","","D","uppercase","344000","0","3","d5e3a392e1c32a3ed0669ebf71acf2cc69004f26405b2a90ee1d795286f5095b","344001.59999999776","494.80000000074506","77","1","swim","","","","",""
"dual-task","null","null","null","","arctic","swim","569.6999999992549","","g","null","88","88","1","swim-dual-task","","g","lowercase","352000","0","3","d5e3a392e1c32a3ed0669ebf71acf2cc69004f26405b2a90ee1d795286f5095b","352001.69999999925","569.6999999992549","88","1","swim","","","","",""
"dual-task","null","null","null","","arctic","swim","553.5","","r","null","88","88","1","swim-dual-task","","r","lowercase","366000","0","3","d5e3a392e1c32a3ed0669ebf71acf2cc69004f26405b2a90ee1d795286f5095b","366001.59999999776","553.5","88","1","swim","","","","",""
"dual-task","null","null","null","","arctic","swim","541.5","","B","null","77","77","1","swim-dual-task","","B","uppercase","374000","0","3","d5e3a392e1c32a3ed0669ebf71acf2cc69004f26405b2a90ee1d795286f5095b","374002.69999999925","541.5","77","1","swim","","","","",""
"dual-task","null","null","null","","arctic","swim","627.8999999985099","","B","null","77","77","1","swim-dual-task","","B","uppercase","382000","0","3","d5e3a392e1c32a3ed0669ebf71acf2cc69004f26405b2a90ee1d795286f5095b","382001.69999999925","627.8999999985099","77","1","swim","","","","",""
"dual-task","null","null","null","","arctic","swim","657.1999999992549","","a","null","88","88","1","swim-dual-task","","a","lowercase","392000","0","3","d5e3a392e1c32a3ed0669ebf71acf2cc69004f26405b2a90ee1d795286f5095b","392001.69999999925","657.1999999992549","88","1","swim","","","","",""
"dual-task","null","null","null","","arctic","swim","540.3000000007451","","E","null","77","77","1","swim-dual-task","","E","uppercase","400000","0","3","d5e3a392e1c32a3ed0669ebf71acf2cc69004f26405b2a90ee1d795286f5095b","400001.69999999925","540.3000000007451","77","1","swim","","","","",""
"dual-task","null","null","null","","arctic","swim","599.8999999985099","","T","null","77","77","1","swim-dual-task","","T","uppercase","414000","0","3","d5e3a392e1c32a3ed0669ebf71acf2cc69004f26405b2a90ee1d795286f5095b","414001.69999999925","599.8999999985099","77","1","swim","","","","",""
"dual-task","null","null","null","","arctic","swim","549","","G","null","77","77","1","swim-dual-task","","G","uppercase","424000","0","3","d5e3a392e1c32a3ed0669ebf71acf2cc69004f26405b2a90ee1d795286f5095b","424001.69999999925","549","77","1","swim","","","","",""
"dual-task","null","null","null","","arctic","swim","602.5","","f","null","88","88","1","swim-dual-task","","f","lowercase","434000","0","3","d5e3a392e1c32a3ed0669ebf71acf2cc69004f26405b2a90ee1d795286f5095b","434002.69999999925","602.5","88","1","swim","","","","",""
"dual-task","null","null","null","","arctic","swim","562.8000000007451","","e","null","88","88","1","swim-dual-task","","e","lowercase","446000","0","3","d5e3a392e1c32a3ed0669ebf71acf2cc69004f26405b2a90ee1d795286f5095b","446001.69999999925","562.8000000007451","88","1","swim","","","","",""
"dual-task","null","null","null","","arctic","swim","652.1999999992549","","d","null","88","88","1","swim-dual-task","","d","lowercase","456000","0","3","d5e3a392e1c32a3ed0669ebf71acf2cc69004f26405b2a90ee1d795286f5095b","456001.59999999776","652.1999999992549","88","1","swim","","","","",""
"dual-task","null","null","null","","arctic","swim","605.3000000007451","","q","null","88","88","1","swim-dual-task","","q","lowercase","466000","0","3","d5e3a392e1c32a3ed0669ebf71acf2cc69004f26405b2a90ee1d795286f5095b","466001.59999999776","605.3000000007451","88","1","swim","","","","",""
"dual-task","null","null","null","","arctic","swim","560.8000000007451","","q","null","88","88","1","swim-dual-task","","q","lowercase","478000","0","3","d5e3a392e1c32a3ed0669ebf71acf2cc69004f26405b2a90ee1d795286f5095b","478000.59999999776","560.8000000007451","88","1","swim","","","","",""
"dual-task","null","null","null","","arctic","swim","518.8000000007451","","H","null","77","77","1","swim-dual-task","","H","uppercase","488000","0","3","d5e3a392e1c32a3ed0669ebf71acf2cc69004f26405b2a90ee1d795286f5095b","488001.69999999925","518.8000000007451","77","1","swim","","","","",""
"dual-task","null","null","null","","arctic","swim","608.3999999985099","","q","null","88","88","1","swim-dual-task","","q","lowercase","498000","0","3","d5e3a392e1c32a3ed0669ebf71acf2cc69004f26405b2a90ee1d795286f5095b","498001.69999999925","608.3999999985099","88","1","swim","","","","",""
"dual-task","null","null","null","","arctic","swim","531.8000000007451","","e","null","88","88","1","swim-dual-task","","e","lowercase","512000","0","3","d5e3a392e1c32a3ed0669ebf71acf2cc69004f26405b2a90ee1d795286f5095b","512001.69999999925","531.8000000007451","88","1","swim","","","","",""
"dual-task","null","null","null","","arctic","swim","511.80000000074506","","f","null","88","88","1","swim-dual-task","","f","lowercase","518000","0","3","d5e3a392e1c32a3ed0669ebf71acf2cc69004f26405b2a90ee1d795286f5095b","518001.69999999925","511.80000000074506","88","1","swim","","","","",""
"dual-task","null","null","null","","arctic","swim","532.1000000014901","","F","null","77","77","1","swim-dual-task","","F","uppercase","524000","0","3","d5e3a392e1c32a3ed0669ebf71acf2cc69004f26405b2a90ee1d795286f5095b","524000.69999999925","532.1000000014901","77","1","swim","","","","",""
"dual-task","null","null","null","","arctic","swim","510.5","","R","null","77","77","1","swim-dual-task","","R","uppercase","536000","0","3","d5e3a392e1c32a3ed0669ebf71acf2cc69004f26405b2a90ee1d795286f5095b","536001.5999999978","510.5","77","1","swim","","","","",""
"dual-task","null","null","null","","arctic","swim","532.8999999985099","","g","null","88","88","1","swim-dual-task","","g","lowercase","550000","0","3","d5e3a392e1c32a3ed0669ebf71acf2cc69004f26405b2a90ee1d795286f5095b","550002.6999999993","532.8999999985099","88","1","swim","","","","",""
"dual-task","null","null","null","","arctic","swim","513.8999999985099","","R","null","77","77","1","swim-dual-task","","R","uppercase","556000","0","3","d5e3a392e1c32a3ed0669ebf71acf2cc69004f26405b2a90ee1d795286f5095b","556001.6999999993","513.8999999985099","77","1","swim","","","","",""
"dual-task","null","null","null","","arctic","swim","528.3000000007451","","g","null","88","88","1","swim-dual-task","","g","lowercase","562000","0","3","d5e3a392e1c32a3ed0669ebf71acf2cc69004f26405b2a90ee1d795286f5095b","562001.6999999993","528.3000000007451","88","1","swim","","","","",""
"dual-task","null","null","null","","arctic","swim","426.30000000074506","","A","null","77","77","1","swim-dual-task","","A","uppercase","568000","0","3","d5e3a392e1c32a3ed0669ebf71acf2cc69004f26405b2a90ee1d795286f5095b","568002.5999999978","426.30000000074506","77","1","swim","","","","",""
"dual-task","null","null","null","","arctic","swim","571.8000000007451","","t","null","88","88","1","swim-dual-task","","t","lowercase","580000","0","3","d5e3a392e1c32a3ed0669ebf71acf2cc69004f26405b2a90ee1d795286f5095b","580001.5999999978","571.8000000007451","88","1","swim","","","","",""
"dual-task","null","null","null","","arctic","swim","560.8000000007451","","e","null","88","88","1","swim-dual-task","","e","lowercase","590000","0","3","d5e3a392e1c32a3ed0669ebf71acf2cc69004f26405b2a90ee1d795286f5095b","590001.5999999978","560.8000000007451","88","1","swim","","","","",""
"dual-task","null","null","null","","arctic","swim","503.5","","H","null","77","77","1","swim-dual-task","","H","uppercase","604000","0","3","d5e3a392e1c32a3ed0669ebf71acf2cc69004f26405b2a90ee1d795286f5095b","604002.6999999993","503.5","77","1","swim","","","","",""
"dual-task","null","null","null","","arctic","swim","578.8000000007451","","N","null","77","77","1","swim-dual-task","","N","uppercase","614000","0","3","d5e3a392e1c32a3ed0669ebf71acf2cc69004f26405b2a90ee1d795286f5095b","614001.6999999993","578.8000000007451","77","1","swim","","","","",""
"dual-task","null","null","null","","arctic","swim","497.8999999985099","","h","null","88","88","1","swim-dual-task","","h","lowercase","624000","0","3","d5e3a392e1c32a3ed0669ebf71acf2cc69004f26405b2a90ee1d795286f5095b","624001.6999999993","497.8999999985099","88","1","swim","","","","",""
"dual-task","null","null","null","","arctic","swim","679.3000000007451","","h","null","88","88","1","swim-dual-task","","h","lowercase","632000","0","3","d5e3a392e1c32a3ed0669ebf71acf2cc69004f26405b2a90ee1d795286f5095b","632000.5999999978","679.3000000007451","88","1","swim","","","","",""
"dual-task","null","null","null","","arctic","swim","521.3999999985099","","R","null","77","77","1","swim-dual-task","","R","uppercase","642000","0","3","d5e3a392e1c32a3ed0669ebf71acf2cc69004f26405b2a90ee1d795286f5095b","642001.6999999993","521.3999999985099","77","1","swim","","","","",""
"dual-task","null","null","null","","arctic","swim","640.8000000007451","","r","null","88","88","1","swim-dual-task","","r","lowercase","648000","0","3","d5e3a392e1c32a3ed0669ebf71acf2cc69004f26405b2a90ee1d795286f5095b","648002.6999999993","640.8000000007451","88","1","swim","","","","",""
"dual-task","null","null","null","","arctic","swim","490.19999999925494","","r","null","88","88","1","swim-dual-task","","r","lowercase","660000","0","3","d5e3a392e1c32a3ed0669ebf71acf2cc69004f26405b2a90ee1d795286f5095b","660001.5999999978","490.19999999925494","88","1","swim","","","","",""
"dual-task","null","null","null","","arctic","swim","509.5","","F","null","77","77","1","swim-dual-task","","F","uppercase","670000","0","3","d5e3a392e1c32a3ed0669ebf71acf2cc69004f26405b2a90ee1d795286f5095b","670001.6999999993","509.5","77","1","swim","","","","",""
"dual-task","null","null","null","","arctic","swim","542.6999999992549","","H","null","77","77","1","swim-dual-task","","H","uppercase","680000","0","3","d5e3a392e1c32a3ed0669ebf71acf2cc69004f26405b2a90ee1d795286f5095b","680002.6999999993","542.6999999992549","77","1","swim","","","","",""
"dual-task","null","null","null","","arctic","swim","629.0999999977648","","F","null","77","77","1","swim-dual-task","","F","uppercase","692000","0","3","d5e3a392e1c32a3ed0669ebf71acf2cc69004f26405b2a90ee1d795286f5095b","692000.6999999993","629.0999999977648","77","1","swim","","","","",""
"dual-task","null","null","null","","arctic","swim","502.19999999925494","","F","null","77","77","1","swim-dual-task","","F","uppercase","702000","0","3","d5e3a392e1c32a3ed0669ebf71acf2cc69004f26405b2a90ee1d795286f5095b","702001.6999999993","502.19999999925494","77","1","swim","","","","",""
"dual-task","null","null","null","","arctic","swim","746.6000000014901","","n","null","88","88","1","swim-dual-task","","n","lowercase","710000","0","3","d5e3a392e1c32a3ed0669ebf71acf2cc69004f26405b2a90ee1d795286f5095b","710001.6999999993","746.6000000014901","88","1","swim","","","","",""
"dual-task","null","null","null","","arctic","swim","400.69999999925494","","Q","null","77","77","1","swim-dual-task","","Q","uppercase","718000","0","3","d5e3a392e1c32a3ed0669ebf71acf2cc69004f26405b2a90ee1d795286f5095b","718001.6999999993","400.69999999925494","77","1","swim","","","","",""
"dual-task","null","null","null","","arctic","swim","491.30000000074506","","e","null","88","88","1","swim-dual-task","","e","lowercase","730000","0","3","d5e3a392e1c32a3ed0669ebf71acf2cc69004f26405b2a90ee1d795286f5095b","730000.5999999978","491.30000000074506","88","1","swim","","","","",""
"dual-task","null","null","null","","arctic","swim","503.6000000014901","","D","null","77","77","1","swim-dual-task","","D","uppercase","742000","0","3","d5e3a392e1c32a3ed0669ebf71acf2cc69004f26405b2a90ee1d795286f5095b","742001.6999999993","503.6000000014901","77","1","swim","","","","",""
"dual-task","null","null","null","","arctic","swim","528.5","","b","null","88","88","1","swim-dual-task","","b","lowercase","748000","0","3","d5e3a392e1c32a3ed0669ebf71acf2cc69004f26405b2a90ee1d795286f5095b","748001.6999999993","528.5","88","1","swim","","","","",""
"dual-task","null","null","null","","arctic","swim","542.0999999977648","","E","null","77","77","1","swim-dual-task","","E","uppercase","762000","0","3","d5e3a392e1c32a3ed0669ebf71acf2cc69004f26405b2a90ee1d795286f5095b","762001.6999999993","542.0999999977648","77","1","swim","","","","",""
"dual-task","null","null","null","","arctic","swim","621.5","","h","null","88","88","1","swim-dual-task","","h","lowercase","772000","0","3","d5e3a392e1c32a3ed0669ebf71acf2cc69004f26405b2a90ee1d795286f5095b","772001.6999999993","621.5","88","1","swim","","","","",""
"dual-task","null","null","null","","arctic","swim","535.8000000007451","","G","null","77","77","1","swim-dual-task","","G","uppercase","784000","0","3","d5e3a392e1c32a3ed0669ebf71acf2cc69004f26405b2a90ee1d795286f5095b","784001.6999999993","535.8000000007451","77","1","swim","","","","",""
"dual-task","null","null","null","","arctic","swim","508.80000000074506","","H","null","77","77","1","swim-dual-task","","H","uppercase","792000","0","3","d5e3a392e1c32a3ed0669ebf71acf2cc69004f26405b2a90ee1d795286f5095b","792002.6999999993","508.80000000074506","77","1","swim","","","","",""
"audio-keyboard-response","62","1841589","0.0-6.0-2.0-1.0","d5e3a392e1c32a3ed0669ebf71acf2cc69004f26405b2a90ee1d795286f5095b","arctic","swim","null","","audio/story_swim_scrambled.mp3","","null","","","","","","","","","","","","","","","","","","","",""
"html-button-response","63","1844012","0.0-6.0-2.0-2.0","d5e3a392e1c32a3ed0669ebf71acf2cc69004f26405b2a90ee1d795286f5095b","arctic","swim","2421","","<p>This concludes the story. Thank you for listening.</p><p>You will now answer some questions about the content of the story.</p>","0","","","","","","","","","","","","","","","","","","","","",""
"survey-multi-choice","64","1847348","0.0-6.0-2.0-3.0-0.0","d5e3a392e1c32a3ed0669ebf71acf2cc69004f26405b2a90ee1d795286f5095b","arctic","swim","3334","","<b>What is the narrator afraid of, aside from the water?</b>","","","","1","swim-comprehension","","","","","","","","","","","","","{""Q0"":""Heights""}","","","",""
"survey-multi-choice","65","1850914","0.0-6.0-2.0-3.0-0.1","d5e3a392e1c32a3ed0669ebf71acf2cc69004f26405b2a90ee1d795286f5095b","arctic","swim","3312","","<b>How many times did the astronaut candidates have to complete the final exercise to pass?</b>","","","","1","swim-comprehension","","","","","","","","","","","","","{""Q0"":""Two""}","","","",""
"survey-multi-choice","66","1860711","0.0-6.0-2.0-3.0-0.2","d5e3a392e1c32a3ed0669ebf71acf2cc69004f26405b2a90ee1d795286f5095b","arctic","swim","9544","","<b>How many astronaut candidates passed the first swim test?</b>","","","","1","swim-comprehension","","","","","","","","","","","","","{""Q0"":""All of them""}","","","",""
"survey-multi-choice","67","1877711","0.0-6.0-2.0-3.0-0.3","d5e3a392e1c32a3ed0669ebf71acf2cc69004f26405b2a90ee1d795286f5095b","arctic","swim","16744","","<b>What gave the narrator his greatest feeling of accomplishment?</b>","","","","0","swim-comprehension","","","","","","","","","","","","","{""Q0"":""Seeing Earth from space""}","","","",""
"survey-multi-choice","68","1882119","0.0-6.0-2.0-3.0-0.4","d5e3a392e1c32a3ed0669ebf71acf2cc69004f26405b2a90ee1d795286f5095b","arctic","swim","4156","","<b>What were the astronaut candidates trained to do at the naval air station?</b>","","","","1","swim-comprehension","","","","","","","","","","","","","{""Q0"":""Eject out of aircraft and survive in water long enough to be rescued""}","","","",""
"survey-multi-choice","69","1886333","0.0-6.0-2.0-3.0-0.5","d5e3a392e1c32a3ed0669ebf71acf2cc69004f26405b2a90ee1d795286f5095b","arctic","swim","3960","","<b>How many astronaut candidates reported for duty at the Johnson Space Center?</b>","","","","1","swim-comprehension","","","","","","","","","","","","","{""Q0"":""Forty-four""}","","","",""
"survey-multi-choice","70","1899522","0.0-6.0-2.0-3.0-0.6","d5e3a392e1c32a3ed0669ebf71acf2cc69004f26405b2a90ee1d795286f5095b","arctic","swim","12937","","<b>What was the final step of the first swim test in the pool?</b>","","","","0","swim-comprehension","","","","","","","","","","","","","{""Q0"":""Perform a water rescue""}","","","",""
"survey-multi-choice","71","1907241","0.0-6.0-2.0-3.0-0.7","d5e3a392e1c32a3ed0669ebf71acf2cc69004f26405b2a90ee1d795286f5095b","arctic","swim","7466","","<b>Where is the home of naval aviation?</b>","","","","1","swim-comprehension","","","","","","","","","","","","","{""Q0"":""Pensacola""}","","","",""
"survey-multi-choice","72","1919466","0.0-6.0-2.0-3.0-0.8","d5e3a392e1c32a3ed0669ebf71acf2cc69004f26405b2a90ee1d795286f5095b","arctic","swim","11971","","<b>How often does the narrator swim, now that he is a good swimmer?</b>","","","","0","swim-comprehension","","","","","","","","","","","","","{""Q0"":""Every weekend with his kids""}","","","",""
"survey-multi-choice","73","1923112","0.0-6.0-2.0-3.0-0.9","d5e3a392e1c32a3ed0669ebf71acf2cc69004f26405b2a90ee1d795286f5095b","arctic","swim","3392","","<b>How did the narrator train for his swim test?</b>","","","","1","swim-comprehension","","","","","","","","","","","","","{""Q0"":""Took his kids to the pool every day""}","","","",""
"html-button-response","74","1924882","0.0-6.0-2.0-4.0","d5e3a392e1c32a3ed0669ebf71acf2cc69004f26405b2a90ee1d795286f5095b","arctic","swim","1520","","<p>Thank you for your responses.</p><p>You will now answer some questions about your impressions of the story.</p>","0","","","","","","","","","","","","","","","","","","","","",""
"html-button-response","75","1927870","0.0-6.0-2.0-5.0-0.0","d5e3a392e1c32a3ed0669ebf71acf2cc69004f26405b2a90ee1d795286f5095b","arctic","swim","2986","","A3","5","","","","swim-engagement","","","","","","","","","","","","","","6","absorption","",""
"html-button-response","76","1930143","0.0-6.0-2.0-5.0-0.1","d5e3a392e1c32a3ed0669ebf71acf2cc69004f26405b2a90ee1d795286f5095b","arctic","swim","2020","","E7","6","","","","swim-engagement","","","","","","","","","","","","","","7","enjoyment","",""
"html-button-response","77","1932442","0.0-6.0-2.0-5.0-0.2","d5e3a392e1c32a3ed0669ebf71acf2cc69004f26405b2a90ee1d795286f5095b","arctic","swim","2048","","MS3","4","","","","swim-engagement","","","","","","","","","","","","","","5","mental-sim","",""
"html-button-response","78","1935431","0.0-6.0-2.0-5.0-0.3","d5e3a392e1c32a3ed0669ebf71acf2cc69004f26405b2a90ee1d795286f5095b","arctic","swim","2737","","EE1","5","","","","swim-engagement","","","","","","","","","","","","","","6","emo-engage","",""
"html-button-response","79","1938941","0.0-6.0-2.0-5.0-0.4","d5e3a392e1c32a3ed0669ebf71acf2cc69004f26405b2a90ee1d795286f5095b","arctic","swim","3259","","A4","4","","","","swim-engagement","","","","","","","","","","","","","","5","absorption","",""
"html-button-response","80","1941041","0.0-6.0-2.0-5.0-0.5","d5e3a392e1c32a3ed0669ebf71acf2cc69004f26405b2a90ee1d795286f5095b","arctic","swim","1848","","A2","6","","","","swim-engagement","","","","","","","","","","","","","","7","absorption","",""
"html-button-response","81","1945853","0.0-6.0-2.0-5.0-0.6","d5e3a392e1c32a3ed0669ebf71acf2cc69004f26405b2a90ee1d795286f5095b","arctic","swim","4560","","E10","3","","","","swim-engagement","","","","","","","","","","","","","","4","enjoyment","",""
"html-button-response","82","1948221","0.0-6.0-2.0-5.0-0.7","d5e3a392e1c32a3ed0669ebf71acf2cc69004f26405b2a90ee1d795286f5095b","arctic","swim","2116","","EE4","4","","","","swim-engagement","","","","","","","","","","","","","","5","emo-engage","",""
"html-button-response","83","1951173","0.0-6.0-2.0-5.0-0.8","d5e3a392e1c32a3ed0669ebf71acf2cc69004f26405b2a90ee1d795286f5095b","arctic","swim","2700","","E1","3","","","","swim-engagement","","","","","","","","","","","","","","4","enjoyment","",""
"html-button-response","84","1953640","0.0-6.0-2.0-5.0-0.9","d5e3a392e1c32a3ed0669ebf71acf2cc69004f26405b2a90ee1d795286f5095b","arctic","swim","2215","","EE3","4","","","","swim-engagement","","","","","","","","","","","","","","5","emo-engage","",""
"html-button-response","85","1957135","0.0-6.0-2.0-5.0-0.10","d5e3a392e1c32a3ed0669ebf71acf2cc69004f26405b2a90ee1d795286f5095b","arctic","swim","3244","","EE2","4","","","","swim-engagement","","","","","","","","","","","","","","5","emo-engage","",""
"html-button-response","86","1959616","0.0-6.0-2.0-5.0-0.11","d5e3a392e1c32a3ed0669ebf71acf2cc69004f26405b2a90ee1d795286f5095b","arctic","swim","2230","","E8","2","","","","swim-engagement","","","","","","","","","","","","","","3","enjoyment","",""
"html-button-response","87","1963300","0.0-6.0-2.0-5.0-0.12","d5e3a392e1c32a3ed0669ebf71acf2cc69004f26405b2a90ee1d795286f5095b","arctic","swim","3432","","MS2","4","","","","swim-engagement","","","","","","","","","","","","","","5","mental-sim","",""
"html-button-response","88","1965634","0.0-6.0-2.0-5.0-0.13","d5e3a392e1c32a3ed0669ebf71acf2cc69004f26405b2a90ee1d795286f5095b","arctic","swim","2082","","MS1","6","","","","swim-engagement","","","","","","","","","","","","","","7","mental-sim","",""
"html-button-response","89","1968661","0.0-6.0-2.0-5.0-0.14","d5e3a392e1c32a3ed0669ebf71acf2cc69004f26405b2a90ee1d795286f5095b","arctic","swim","2775","","A5","5","","","","swim-engagement","","","","","","","","","","","","","","6","absorption","",""
"html-button-response","90","1972002","0.0-6.0-2.0-5.0-0.15","d5e3a392e1c32a3ed0669ebf71acf2cc69004f26405b2a90ee1d795286f5095b","arctic","swim","3090","","EE5","5","","","","swim-engagement","","","","","","","","","","","","","","6","emo-engage","",""
"html-button-response","91","1976425","0.0-6.0-2.0-5.0-0.16","d5e3a392e1c32a3ed0669ebf71acf2cc69004f26405b2a90ee1d795286f5095b","arctic","swim","4172","","A1","2","","","","swim-engagement","","","","","","","","","","","","","","3","absorption","",""
"html-button-response","92","1978661","0.0-6.0-2.0-5.0-0.17","d5e3a392e1c32a3ed0669ebf71acf2cc69004f26405b2a90ee1d795286f5095b","arctic","swim","1985","","E6","3","","","","swim-engagement","","","","","","","","","","","","","","4","enjoyment","",""
"html-button-response","93","1980241","0.0-8.0","d5e3a392e1c32a3ed0669ebf71acf2cc69004f26405b2a90ee1d795286f5095b","arctic","swim","1328","","<p>Thank you for your responses.</p><p>You will now answer some demographic, hearing, and general health questions.</p>","0","","","","","","","","","","","","","","","","","","","","",""
"survey-multi-choice","94","1982690","0.0-9.0-0.0","d5e3a392e1c32a3ed0669ebf71acf2cc69004f26405b2a90ee1d795286f5095b","arctic","swim","2447","","","","","","","survey","","","","","","","","","","","","","{""Q0"":""Chrome""}","","","browser",""
"survey-text","95","1985380","0.0-9.0-1.0","d5e3a392e1c32a3ed0669ebf71acf2cc69004f26405b2a90ee1d795286f5095b","arctic","swim","2437.5","","","","","","","survey","","","","","","","","","","","","","{""AGE"":""35""}","","","age","35"
"survey-multi-choice","96","1987184","0.0-9.0-2.0","d5e3a392e1c32a3ed0669ebf71acf2cc69004f26405b2a90ee1d795286f5095b","arctic","swim","1552","","","","","","","survey","","","","","","","","","","","","","{""Q0"":""Male""}","","","gender","Male"
"survey-multi-choice","97","1989463","0.0-9.0-4.0","d5e3a392e1c32a3ed0669ebf71acf2cc69004f26405b2a90ee1d795286f5095b","arctic","swim","2027","","","","","","","survey","","","","","","","","","","","","","{""Q0"":""Right""}","","","handedness","Right"
"survey-multi-choice","98","1992509","0.0-9.0-5.0","d5e3a392e1c32a3ed0669ebf71acf2cc69004f26405b2a90ee1d795286f5095b","arctic","swim","2793","","","","","","","survey","","","","","","","","","","","","","{""Q0"":""High school""}","","","education","High school"
"survey-text","99","1996320","0.0-10.0-0.0","d5e3a392e1c32a3ed0669ebf71acf2cc69004f26405b2a90ee1d795286f5095b","arctic","swim","3558.199999999255","","","","","","","survey","","","","","","","","","","","","","{""L1"":""English""}","","","first-language","English"
"survey-text","100","2002653","0.0-10.0-1.0","d5e3a392e1c32a3ed0669ebf71acf2cc69004f26405b2a90ee1d795286f5095b","arctic","swim","6078.5","","","","","","","survey","","","","","","","","","","","","","{""L2name"":"""",""L2fluency"":"""",""L3name"":"""",""L3fluency"":"""",""L4name"":"""",""L4fluency"":""""}","","","additional-languages","{""L2name"":"""",""L2fluency"":"""",""L3name"":"""",""L3fluency"":"""",""L4name"":"""",""L4fluency"":""""}"
"survey-multi-choice","101","2004765","0.0-10.0-2.0","d5e3a392e1c32a3ed0669ebf71acf2cc69004f26405b2a90ee1d795286f5095b","arctic","swim","1859","","","","","","","survey","","","","","","","","","","","","","{""Q0"":""No""}","","","hearing-aid","No"
"survey-multi-choice","102","2006786","0.0-10.0-3.0","d5e3a392e1c32a3ed0669ebf71acf2cc69004f26405b2a90ee1d795286f5095b","arctic","swim","1768","","","","","","","survey","","","","","","","","","","","","","{""Q0"":""Never""}","","","ringing-ears","Never"
"survey-multi-choice","103","2008742","0.0-10.0-5.0","d5e3a392e1c32a3ed0669ebf71acf2cc69004f26405b2a90ee1d795286f5095b","arctic","swim","1704","","","","","","","survey","","","","","","","","","","","","","{""Q0"":""No""}","","","neuro-disease","No"
"survey-multi-choice","104","2011328","0.0-10.0-7.0","d5e3a392e1c32a3ed0669ebf71acf2cc69004f26405b2a90ee1d795286f5095b","arctic","swim","2333","","","","","","","survey","","","","","","","","","","","","","{""Q0"":""No""}","","","take-meds","No"
"survey-text","105","2021099","0.0-10.0-9.0","d5e3a392e1c32a3ed0669ebf71acf2cc69004f26405b2a90ee1d795286f5095b","arctic","swim","9513.60000000149","","","","","","","survey","","","","","","","","","","","","","{""HC"":""None""}","","","health-concerns","None"
"html-button-response","106","2024472","0.0-11.0-0.0","d5e3a392e1c32a3ed0669ebf71acf2cc69004f26405b2a90ee1d795286f5095b","arctic","swim","3120","","<p>How would you describe your musical skills/experiences?</p>","1","","","","survey","","","","","","","","","","","","","","","","music-skill","2"
"survey-multi-choice","107","2026691","0.0-11.0-1.0","d5e3a392e1c32a3ed0669ebf71acf2cc69004f26405b2a90ee1d795286f5095b","arctic","swim","1968","","","","","","","survey","","","","","","","","","","","","","{""Q0"":""Yes""}","","","music-instrument","Yes"
"survey-text","108","2030027","0.0-11.0-2.0-0.0","d5e3a392e1c32a3ed0669ebf71acf2cc69004f26405b2a90ee1d795286f5095b","arctic","swim","3083.400000002235","","","","","","","survey","","","","","","","","","","","","","{""MEXP"":""1""}","","","music-training-yrs","1"
"html-button-response","109","2031967","0.0-12.0-0.0","d5e3a392e1c32a3ed0669ebf71acf2cc69004f26405b2a90ee1d795286f5095b","arctic","swim","1689","","<p>How would you describe your general hearing abilities?</p>","5","","","","survey","","","","","","","","","","","","","","","","ssq-01","6"
"html-button-response","110","2036953","0.0-12.0-1.0","d5e3a392e1c32a3ed0669ebf71acf2cc69004f26405b2a90ee1d795286f5095b","arctic","swim","4735","","<p>When you talk with someone at a place that strongly reverberates/echoes (e.g., in a church or train station),</br>can you understand what the person says?</p>","10","","","","survey","","","","","","","","","","","","","","","","ssq-02","10"
"html-button-response","111","2039953","0.0-12.0-2.0","d5e3a392e1c32a3ed0669ebf71acf2cc69004f26405b2a90ee1d795286f5095b","arctic","swim","2748","","<p>When you are with a group (~5 people) in a lively restaurant, can you follow the group's conversation?</p>","10","","","","survey","","","","","","","","","","","","","","","","ssq-03","10"
"html-button-response","112","2043622","0.0-12.0-3.0","d5e3a392e1c32a3ed0669ebf71acf2cc69004f26405b2a90ee1d795286f5095b","arctic","swim","3417","","<p>Based on the sound of a bus or truck, can you tell whether it is moving towards or away from you?</p>","7","","","","survey","","","","","","","","","","","","","","","","ssq-04","7"
"html-button-response","113","2046717","0.0-12.0-4.0","d5e3a392e1c32a3ed0669ebf71acf2cc69004f26405b2a90ee1d795286f5095b","arctic","swim","2841","","<p>When you are in an unknown environment, can you tell from which direction a brief sound originates?</p>","7","","","","survey","","","","","","","","","","","","","","","","ssq-05","7"
"html-button-response","114","2048907","0.0-12.0-5.0","d5e3a392e1c32a3ed0669ebf71acf2cc69004f26405b2a90ee1d795286f5095b","arctic","swim","1938","","<p>Are you able to ignore distracting sounds when you concentrate on a specific aspect of your acoustic surrounding?</p>","10","","","","survey","","","","","","","","","","","","","","","","ssq-06","10"
"fullscreen","115","2050159","0.0-13.0","d5e3a392e1c32a3ed0669ebf71acf2cc69004f26405b2a90ee1d795286f5095b","arctic","swim","","","","","","","","","true","","","","","","","","","","","","","","","",""
