"trial_type","trial_index","time_elapsed","internal_node_id","ParticipantID","firstStory","scramStory","rt","url","stimulus","button_pressed","key_press","correctRESP","correct","designation","success","letterStim","letterType","ONSET","TIMEOUT","CONDITION","Participant","ONSET_ACTUAL","RT","RESP","ACC","STORY","responses","response","type","surveyQuestion","QRESP"
"pavlovia","0","9","0.0-0.0","0e732545798114abb301f27d3ffd0b76c1b2ae003a89fd871fcdbe82b26ee1cd","arctic","arctic","","","","","","","","","","","","","","","","","","","","","","","","",""
"external-html","1","5886","0.0-1.0","0e732545798114abb301f27d3ffd0b76c1b2ae003a89fd871fcdbe82b26ee1cd","arctic","arctic","5703","consent/consent_updated.html","","","","","","","","","","","","","","","","","","","","","","",""
"html-button-response","2","10335","0.0-2.0-0.0","0e732545798114abb301f27d3ffd0b76c1b2ae003a89fd871fcdbe82b26ee1cd","arctic","arctic","4447","","<p>Before we begin the main task, you will complete a short volume calibration and headphone check.</p><p>Please make sure you are in a quiet listening environment, that you are wearing headphones, and that your computer's volume is turned on.<p></p>","0","","","","","","","","","","","","","","","","","","","","",""
"html-button-response","3","14202","0.0-2.0-1.0","0e732545798114abb301f27d3ffd0b76c1b2ae003a89fd871fcdbe82b26ee1cd","arctic","arctic","3615","","<p>The volume calibration will be first.</p><p>You will hear a thirty-second noise. Please adjust your computer's volume so that this noise is being presented at a comfortable level.<p></p>","0","","","","","","","","","","","","","","","","","","","","",""
"audio-button-response","4","23202","0.0-2.0-2.0","0e732545798114abb301f27d3ffd0b76c1b2ae003a89fd871fcdbe82b26ee1cd","arctic","arctic","8737","","audio/volumetest.mp3","0","","","","","","","","","","","","","","","","","","","","",""
"html-keyboard-response","5","34207","0.0-3.0-0.0","0e732545798114abb301f27d3ffd0b76c1b2ae003a89fd871fcdbe82b26ee1cd","arctic","arctic","11002","","<p>You will now complete a short headphone check.</p><p>On each trial, you will hear three tones. One of these tones will be quieter than the others. Your task is to identify whether the quiet tone occurred first, second, or third.</p><p>There are six trials in total.<p></p><p></p>(Press SPACEBAR to begin)","","32","","","","","","","","","","","","","","","","","","","",""
"html-keyboard-response","6","34967","0.0-3.0-1.0-0.0","0e732545798114abb301f27d3ffd0b76c1b2ae003a89fd871fcdbe82b26ee1cd","arctic","arctic","null","","<div style=""font-size:60px;"">+</div>","","null","","","","","","","","","","","","","","","","","","","",""
"audio-button-response","7","39348","0.0-3.0-1.0-1.0","0e732545798114abb301f27d3ffd0b76c1b2ae003a89fd871fcdbe82b26ee1cd","arctic","arctic","4376","","audio/t2_1.mp3","0","","1","0","headphone-test","","","","","","","","","","","","","","","","",""
"html-keyboard-response","8","39850","0.0-3.0-1.0-2.0","0e732545798114abb301f27d3ffd0b76c1b2ae003a89fd871fcdbe82b26ee1cd","arctic","arctic","null","","<p>Incorrect</p>","","null","","","","","","","","","","","","","","","","","","","",""
"html-keyboard-response","9","40355","0.0-3.0-1.0-0.1","0e732545798114abb301f27d3ffd0b76c1b2ae003a89fd871fcdbe82b26ee1cd","arctic","arctic","null","","<div style=""font-size:60px;"">+</div>","","null","","","","","","","","","","","","","","","","","","","",""
"audio-button-response","10","44651","0.0-3.0-1.0-1.1","0e732545798114abb301f27d3ffd0b76c1b2ae003a89fd871fcdbe82b26ee1cd","arctic","arctic","4294","","audio/t1_2.mp3","2","","0","0","headphone-test","","","","","","","","","","","","","","","","",""
"html-keyboard-response","11","45155","0.0-3.0-1.0-2.1","0e732545798114abb301f27d3ffd0b76c1b2ae003a89fd871fcdbe82b26ee1cd","arctic","arctic","null","","<p>Incorrect</p>","","null","","","","","","","","","","","","","","","","","","","",""
"html-keyboard-response","12","45660","0.0-3.0-1.0-0.2","0e732545798114abb301f27d3ffd0b76c1b2ae003a89fd871fcdbe82b26ee1cd","arctic","arctic","null","","<div style=""font-size:60px;"">+</div>","","null","","","","","","","","","","","","","","","","","","","",""
"audio-button-response","13","50008","0.0-3.0-1.0-1.2","0e732545798114abb301f27d3ffd0b76c1b2ae003a89fd871fcdbe82b26ee1cd","arctic","arctic","4347","","audio/t2_2.mp3","1","","1","1","headphone-test","","","","","","","","","","","","","","","","",""
"html-keyboard-response","14","50513","0.0-3.0-1.0-2.2","0e732545798114abb301f27d3ffd0b76c1b2ae003a89fd871fcdbe82b26ee1cd","arctic","arctic","null","","<p>Correct</p>","","null","","","","","","","","","","","","","","","","","","","",""
"html-keyboard-response","15","51018","0.0-3.0-1.0-0.3","0e732545798114abb301f27d3ffd0b76c1b2ae003a89fd871fcdbe82b26ee1cd","arctic","arctic","null","","<div style=""font-size:60px;"">+</div>","","null","","","","","","","","","","","","","","","","","","","",""
"audio-button-response","16","55279","0.0-3.0-1.0-1.3","0e732545798114abb301f27d3ffd0b76c1b2ae003a89fd871fcdbe82b26ee1cd","arctic","arctic","4259","","audio/t1_1.mp3","1","","0","0","headphone-test","","","","","","","","","","","","","","","","",""
"html-keyboard-response","17","55784","0.0-3.0-1.0-2.3","0e732545798114abb301f27d3ffd0b76c1b2ae003a89fd871fcdbe82b26ee1cd","arctic","arctic","null","","<p>Incorrect</p>","","null","","","","","","","","","","","","","","","","","","","",""
"html-keyboard-response","18","56285","0.0-3.0-1.0-0.4","0e732545798114abb301f27d3ffd0b76c1b2ae003a89fd871fcdbe82b26ee1cd","arctic","arctic","null","","<div style=""font-size:60px;"">+</div>","","null","","","","","","","","","","","","","","","","","","","",""
"audio-button-response","19","60361","0.0-3.0-1.0-1.4","0e732545798114abb301f27d3ffd0b76c1b2ae003a89fd871fcdbe82b26ee1cd","arctic","arctic","4074","","audio/t3_1.mp3","2","","2","1","headphone-test","","","","","","","","","","","","","","","","",""
"html-keyboard-response","20","60865","0.0-3.0-1.0-2.4","0e732545798114abb301f27d3ffd0b76c1b2ae003a89fd871fcdbe82b26ee1cd","arctic","arctic","null","","<p>Correct</p>","","null","","","","","","","","","","","","","","","","","","","",""
"html-keyboard-response","21","61368","0.0-3.0-1.0-0.5","0e732545798114abb301f27d3ffd0b76c1b2ae003a89fd871fcdbe82b26ee1cd","arctic","arctic","null","","<div style=""font-size:60px;"">+</div>","","null","","","","","","","","","","","","","","","","","","","",""
"audio-button-response","22","65407","0.0-3.0-1.0-1.5","0e732545798114abb301f27d3ffd0b76c1b2ae003a89fd871fcdbe82b26ee1cd","arctic","arctic","4037","","audio/t3_2.mp3","1","","2","0","headphone-test","","","","","","","","","","","","","","","","",""
"html-keyboard-response","23","65913","0.0-3.0-1.0-2.5","0e732545798114abb301f27d3ffd0b76c1b2ae003a89fd871fcdbe82b26ee1cd","arctic","arctic","null","","<p>Incorrect</p>","","null","","","","","","","","","","","","","","","","","","","",""
"fullscreen","24","68189","0.0-4.0","0e732545798114abb301f27d3ffd0b76c1b2ae003a89fd871fcdbe82b26ee1cd","arctic","arctic","","","","","","","","","true","","","","","","","","","","","","","","","",""
"html-button-response","25","74432","0.0-5.0-0.0","0e732545798114abb301f27d3ffd0b76c1b2ae003a89fd871fcdbe82b26ee1cd","arctic","arctic","6242","","<p>There are two blocks to this experiment.</p><p>In each block, you will hear a ~13.5 minute story. One of the stories will be scrambled. Please listen carefully to both stories and understand them as best you can.</p><p>After each story, you will be asked some questions to assess your comprehension.</p>","0","","","","","","","","","","","","","","","","","","","","",""
"html-button-response","26","84985","0.0-5.0-1.0","0e732545798114abb301f27d3ffd0b76c1b2ae003a89fd871fcdbe82b26ee1cd","arctic","arctic","10552","","<p>During each story, there will be an additional task.</p><p>A letter will occasionally appear on the screen.</br>Your job is to - as quickly as you can - decide whether the letter is lowercase or uppercase and press one of two keys on the keyboard:</p><p>If the letter is <b>lowercase</b>, press key &lt;<b>x</b>&gt;.</p><p>If the letter is <b>uppercase</b>, press key &lt;<b>m</b>&gt;.</p>","0","","","","","","","","","","","","","","","","","","","","",""
"html-keyboard-response","27","93146","0.0-5.0-2.0","0e732545798114abb301f27d3ffd0b76c1b2ae003a89fd871fcdbe82b26ee1cd","arctic","arctic","8159","","<p>Because we want your responses to be as quick as possible, please keep your index fingers over the keys while listening.</p><p>Each block lasts about 20 minutes.</p><p><b>Press &lt;x&gt; or &lt;m&gt; to start the first block!</b></p>","","88","","","","","","","","","","","","","","","","","","","",""
"html-keyboard-response","28","93649","0.0-6.0-0.0-0.0","0e732545798114abb301f27d3ffd0b76c1b2ae003a89fd871fcdbe82b26ee1cd","arctic","arctic","null","","<div style=""font-size:60px;"" tabindex=""0"">+</div>","","null","","","","","","","","","","","","","","","","","","","",""
"dual-task","null","null","null","","arctic","arctic","689.8999999985099","","t","null","88","88","1","arctic-dual-task","","t","lowercase","10000","0","1","0e732545798114abb301f27d3ffd0b76c1b2ae003a89fd871fcdbe82b26ee1cd","9999.69999999553","689.8999999985099","88","1","arctic","","","","",""
"dual-task","null","null","null","","arctic","arctic","692.8999999985099","","r","null","88","88","1","arctic-dual-task","","r","lowercase","24000","0","1","0e732545798114abb301f27d3ffd0b76c1b2ae003a89fd871fcdbe82b26ee1cd","24001.10000000149","692.8999999985099","88","1","arctic","","","","",""
"dual-task","null","null","null","","arctic","arctic","734.1999999955297","","H","null","77","77","1","arctic-dual-task","","H","uppercase","34000","0","1","0e732545798114abb301f27d3ffd0b76c1b2ae003a89fd871fcdbe82b26ee1cd","34003","734.1999999955297","77","1","arctic","","","","",""
"dual-task","null","null","null","","arctic","arctic","647.1000000014901","","f","null","88","88","1","arctic-dual-task","","f","lowercase","44000","0","1","0e732545798114abb301f27d3ffd0b76c1b2ae003a89fd871fcdbe82b26ee1cd","43998.60000000149","647.1000000014901","88","1","arctic","","","","",""
"dual-task","null","null","null","","arctic","arctic","694.8999999985099","","d","null","88","88","1","arctic-dual-task","","d","lowercase","56000","0","1","0e732545798114abb301f27d3ffd0b76c1b2ae003a89fd871fcdbe82b26ee1cd","55998.5","694.8999999985099","88","1","arctic","","","","",""
"dual-task","null","null","null","","arctic","arctic","597.7999999970198","","R","null","77","77","1","arctic-dual-task","","R","uppercase","64000","0","1","0e732545798114abb301f27d3ffd0b76c1b2ae003a89fd871fcdbe82b26ee1cd","64003.39999999851","597.7999999970198","77","1","arctic","","","","",""
"dual-task","null","null","null","","arctic","arctic","588.5","","T","null","77","77","1","arctic-dual-task","","T","uppercase","76000","0","1","0e732545798114abb301f27d3ffd0b76c1b2ae003a89fd871fcdbe82b26ee1cd","76002.29999999702","588.5","77","1","arctic","","","","",""
"dual-task","null","null","null","","arctic","arctic","1111.6999999955297","","A","null","77","77","1","arctic-dual-task","","A","uppercase","86000","0","1","0e732545798114abb301f27d3ffd0b76c1b2ae003a89fd871fcdbe82b26ee1cd","85998.89999999851","1111.6999999955297","77","1","arctic","","","","",""
"dual-task","null","null","null","","arctic","arctic","730.6999999955297","","f","null","88","88","1","arctic-dual-task","","f","lowercase","100000","0","1","0e732545798114abb301f27d3ffd0b76c1b2ae003a89fd871fcdbe82b26ee1cd","100000","730.6999999955297","88","1","arctic","","","","",""
"dual-task","null","null","null","","arctic","arctic","657","","E","null","77","77","1","arctic-dual-task","","E","uppercase","110000","0","1","0e732545798114abb301f27d3ffd0b76c1b2ae003a89fd871fcdbe82b26ee1cd","110000.29999999702","657","77","1","arctic","","","","",""
"dual-task","null","null","null","","arctic","arctic","527.3000000044703","","D","null","77","77","1","arctic-dual-task","","D","uppercase","122000","0","1","0e732545798114abb301f27d3ffd0b76c1b2ae003a89fd871fcdbe82b26ee1cd","122000.79999999702","527.3000000044703","77","1","arctic","","","","",""
"dual-task","null","null","null","","arctic","arctic","601","","e","null","88","88","1","arctic-dual-task","","e","lowercase","128000","0","1","0e732545798114abb301f27d3ffd0b76c1b2ae003a89fd871fcdbe82b26ee1cd","128003.29999999702","601","88","1","arctic","","","","",""
"dual-task","null","null","null","","arctic","arctic","531.6000000014901","","D","null","77","77","1","arctic-dual-task","","D","uppercase","140000","0","1","0e732545798114abb301f27d3ffd0b76c1b2ae003a89fd871fcdbe82b26ee1cd","140002.1000000015","531.6000000014901","77","1","arctic","","","","",""
"dual-task","null","null","null","","arctic","arctic","383.59999999403954","","F","null","88","77","0","arctic-dual-task","","F","uppercase","152000","0","1","0e732545798114abb301f27d3ffd0b76c1b2ae003a89fd871fcdbe82b26ee1cd","152000.5","383.59999999403954","88","0","arctic","","","","",""
"dual-task","null","null","null","","arctic","arctic","705.2000000029802","","D","null","77","77","1","arctic-dual-task","","D","uppercase","160000","0","1","0e732545798114abb301f27d3ffd0b76c1b2ae003a89fd871fcdbe82b26ee1cd","159999.3999999985","705.2000000029802","77","1","arctic","","","","",""
"dual-task","null","null","null","","arctic","arctic","683.7000000029802","","b","null","88","88","1","arctic-dual-task","","b","lowercase","172000","0","1","0e732545798114abb301f27d3ffd0b76c1b2ae003a89fd871fcdbe82b26ee1cd","171999.29999999702","683.7000000029802","88","1","arctic","","","","",""
"dual-task","null","null","null","","arctic","arctic","724","","g","null","88","88","1","arctic-dual-task","","g","lowercase","180000","0","1","0e732545798114abb301f27d3ffd0b76c1b2ae003a89fd871fcdbe82b26ee1cd","180004.19999999553","724","88","1","arctic","","","","",""
"dual-task","null","null","null","","arctic","arctic","726.7000000029802","","d","null","88","88","1","arctic-dual-task","","d","lowercase","188000","0","1","0e732545798114abb301f27d3ffd0b76c1b2ae003a89fd871fcdbe82b26ee1cd","188003.6000000015","726.7000000029802","88","1","arctic","","","","",""
"dual-task","null","null","null","","arctic","arctic","546.6000000014901","","R","null","77","77","1","arctic-dual-task","","R","uppercase","196000","0","1","0e732545798114abb301f27d3ffd0b76c1b2ae003a89fd871fcdbe82b26ee1cd","195999.3999999985","546.6000000014901","77","1","arctic","","","","",""
"dual-task","null","null","null","","arctic","arctic","672.6000000014901","","g","null","88","88","1","arctic-dual-task","","g","lowercase","208000","0","1","0e732545798114abb301f27d3ffd0b76c1b2ae003a89fd871fcdbe82b26ee1cd","208001.8999999985","672.6000000014901","88","1","arctic","","","","",""
"dual-task","null","null","null","","arctic","arctic","516.6000000014901","","H","null","77","77","1","arctic-dual-task","","H","uppercase","218000","0","1","0e732545798114abb301f27d3ffd0b76c1b2ae003a89fd871fcdbe82b26ee1cd","218003.79999999702","516.6000000014901","77","1","arctic","","","","",""
"dual-task","null","null","null","","arctic","arctic","659.1000000014901","","f","null","88","88","1","arctic-dual-task","","f","lowercase","228000","0","1","0e732545798114abb301f27d3ffd0b76c1b2ae003a89fd871fcdbe82b26ee1cd","227999.79999999702","659.1000000014901","88","1","arctic","","","","",""
"dual-task","null","null","null","","arctic","arctic","708.7999999970198","","N","null","77","77","1","arctic-dual-task","","N","uppercase","242000","0","1","0e732545798114abb301f27d3ffd0b76c1b2ae003a89fd871fcdbe82b26ee1cd","242001.79999999702","708.7999999970198","77","1","arctic","","","","",""
"dual-task","null","null","null","","arctic","arctic","682.3999999985099","","T","null","77","77","1","arctic-dual-task","","T","uppercase","254000","0","1","0e732545798114abb301f27d3ffd0b76c1b2ae003a89fd871fcdbe82b26ee1cd","254000.5","682.3999999985099","77","1","arctic","","","","",""
"dual-task","null","null","null","","arctic","arctic","762.1000000014901","","f","null","88","88","1","arctic-dual-task","","f","lowercase","260000","0","1","0e732545798114abb301f27d3ffd0b76c1b2ae003a89fd871fcdbe82b26ee1cd","260002.79999999702","762.1000000014901","88","1","arctic","","","","",""
"dual-task","null","null","null","","arctic","arctic","659.5","","t","null","88","88","1","arctic-dual-task","","t","lowercase","270000","0","1","0e732545798114abb301f27d3ffd0b76c1b2ae003a89fd871fcdbe82b26ee1cd","269999.299999997","659.5","88","1","arctic","","","","",""
"dual-task","null","null","null","","arctic","arctic","595.1000000014901","","q","null","88","88","1","arctic-dual-task","","q","lowercase","282000","0","1","0e732545798114abb301f27d3ffd0b76c1b2ae003a89fd871fcdbe82b26ee1cd","282003.799999997","595.1000000014901","88","1","arctic","","","","",""
"dual-task","null","null","null","","arctic","arctic","539.3999999985099","","B","null","77","77","1","arctic-dual-task","","B","uppercase","290000","0","1","0e732545798114abb301f27d3ffd0b76c1b2ae003a89fd871fcdbe82b26ee1cd","290000.5","539.3999999985099","77","1","arctic","","","","",""
"dual-task","null","null","null","","arctic","arctic","635","","A","null","77","77","1","arctic-dual-task","","A","uppercase","300000","0","1","0e732545798114abb301f27d3ffd0b76c1b2ae003a89fd871fcdbe82b26ee1cd","300000.799999997","635","77","1","arctic","","","","",""
"dual-task","null","null","null","","arctic","arctic","598.6000000014901","","b","null","88","88","1","arctic-dual-task","","b","lowercase","312000","0","1","0e732545798114abb301f27d3ffd0b76c1b2ae003a89fd871fcdbe82b26ee1cd","312003.8999999985","598.6000000014901","88","1","arctic","","","","",""
"dual-task","null","null","null","","arctic","arctic","803.1000000014901","","A","null","77","77","1","arctic-dual-task","","A","uppercase","320000","0","1","0e732545798114abb301f27d3ffd0b76c1b2ae003a89fd871fcdbe82b26ee1cd","320003.19999999553","803.1000000014901","77","1","arctic","","","","",""
"dual-task","null","null","null","","arctic","arctic","574.2999999970198","","G","null","77","77","1","arctic-dual-task","","G","uppercase","332000","0","1","0e732545798114abb301f27d3ffd0b76c1b2ae003a89fd871fcdbe82b26ee1cd","332002.3999999985","574.2999999970198","77","1","arctic","","","","",""
"dual-task","null","null","null","","arctic","arctic","593.3999999985099","","F","null","77","77","1","arctic-dual-task","","F","uppercase","340000","0","1","0e732545798114abb301f27d3ffd0b76c1b2ae003a89fd871fcdbe82b26ee1cd","340001.5","593.3999999985099","77","1","arctic","","","","",""
"dual-task","null","null","null","","arctic","arctic","854.5999999940395","","n","null","88","88","1","arctic-dual-task","","n","lowercase","352000","0","1","0e732545798114abb301f27d3ffd0b76c1b2ae003a89fd871fcdbe82b26ee1cd","352000.5","854.5999999940395","88","1","arctic","","","","",""
"dual-task","null","null","null","","arctic","arctic","626.6000000014901","","a","null","88","88","1","arctic-dual-task","","a","lowercase","360000","0","1","0e732545798114abb301f27d3ffd0b76c1b2ae003a89fd871fcdbe82b26ee1cd","360001.799999997","626.6000000014901","88","1","arctic","","","","",""
"dual-task","null","null","null","","arctic","arctic","590.3000000044703","","Q","null","77","77","1","arctic-dual-task","","Q","uppercase","368000","0","1","0e732545798114abb301f27d3ffd0b76c1b2ae003a89fd871fcdbe82b26ee1cd","368004.69999999553","590.3000000044703","77","1","arctic","","","","",""
"dual-task","null","null","null","","arctic","arctic","724.5","","B","null","77","77","1","arctic-dual-task","","B","uppercase","382000","0","1","0e732545798114abb301f27d3ffd0b76c1b2ae003a89fd871fcdbe82b26ee1cd","382000.6000000015","724.5","77","1","arctic","","","","",""
"dual-task","null","null","null","","arctic","arctic","821.8000000044703","","e","null","88","88","1","arctic-dual-task","","e","lowercase","396000","0","1","0e732545798114abb301f27d3ffd0b76c1b2ae003a89fd871fcdbe82b26ee1cd","396002.1000000015","821.8000000044703","88","1","arctic","","","","",""
"dual-task","null","null","null","","arctic","arctic","1040.1999999955297","","R","null","77","77","1","arctic-dual-task","","R","uppercase","406000","0","1","0e732545798114abb301f27d3ffd0b76c1b2ae003a89fd871fcdbe82b26ee1cd","406000.3999999985","1040.1999999955297","77","1","arctic","","","","",""
"dual-task","null","null","null","","arctic","arctic","569.1000000014901","","n","null","88","88","1","arctic-dual-task","","n","lowercase","414000","0","1","0e732545798114abb301f27d3ffd0b76c1b2ae003a89fd871fcdbe82b26ee1cd","414003.5","569.1000000014901","88","1","arctic","","","","",""
"dual-task","null","null","null","","arctic","arctic","933.4000000059605","","r","null","88","88","1","arctic-dual-task","","r","lowercase","422000","0","1","0e732545798114abb301f27d3ffd0b76c1b2ae003a89fd871fcdbe82b26ee1cd","422002.69999999553","933.4000000059605","88","1","arctic","","","","",""
"dual-task","null","null","null","","arctic","arctic","644.5","","t","null","88","88","1","arctic-dual-task","","t","lowercase","432000","0","1","0e732545798114abb301f27d3ffd0b76c1b2ae003a89fd871fcdbe82b26ee1cd","431999.69999999553","644.5","88","1","arctic","","","","",""
"dual-task","null","null","null","","arctic","arctic","473.09999999403954","","A","null","77","77","1","arctic-dual-task","","A","uppercase","440000","0","1","0e732545798114abb301f27d3ffd0b76c1b2ae003a89fd871fcdbe82b26ee1cd","440004","473.09999999403954","77","1","arctic","","","","",""
"dual-task","null","null","null","","arctic","arctic","577.3999999985099","","R","null","77","77","1","arctic-dual-task","","R","uppercase","454000","0","1","0e732545798114abb301f27d3ffd0b76c1b2ae003a89fd871fcdbe82b26ee1cd","453999.799999997","577.3999999985099","77","1","arctic","","","","",""
"dual-task","null","null","null","","arctic","arctic","744.6000000014901","","T","null","77","77","1","arctic-dual-task","","T","uppercase","462000","0","1","0e732545798114abb301f27d3ffd0b76c1b2ae003a89fd871fcdbe82b26ee1cd","462004.69999999553","744.6000000014901","77","1","arctic","","","","",""
"dual-task","null","null","null","","arctic","arctic","516.9000000059605","","T","null","77","77","1","arctic-dual-task","","T","uppercase","472000","0","1","0e732545798114abb301f27d3ffd0b76c1b2ae003a89fd871fcdbe82b26ee1cd","472001.1000000015","516.9000000059605","77","1","arctic","","","","",""
"dual-task","null","null","null","","arctic","arctic","561.1000000014901","","h","null","77","88","0","arctic-dual-task","","h","lowercase","480000","0","1","0e732545798114abb301f27d3ffd0b76c1b2ae003a89fd871fcdbe82b26ee1cd","480001.3999999985","561.1000000014901","77","0","arctic","","","","",""
"dual-task","null","null","null","","arctic","arctic","699.2000000029802","","a","null","88","88","1","arctic-dual-task","","a","lowercase","486000","0","1","0e732545798114abb301f27d3ffd0b76c1b2ae003a89fd871fcdbe82b26ee1cd","486002.69999999553","699.2000000029802","88","1","arctic","","","","",""
"dual-task","null","null","null","","arctic","arctic","564.1000000014901","","n","null","88","88","1","arctic-dual-task","","n","lowercase","496000","0","1","0e732545798114abb301f27d3ffd0b76c1b2ae003a89fd871fcdbe82b26ee1cd","496004.69999999553","564.1000000014901","88","1","arctic","","","","",""
"dual-task","null","null","null","","arctic","arctic","644.1000000014901","","Q","null","77","77","1","arctic-dual-task","","Q","uppercase","508000","0","1","0e732545798114abb301f27d3ffd0b76c1b2ae003a89fd871fcdbe82b26ee1cd","508003.6000000015","644.1000000014901","77","1","arctic","","","","",""
"dual-task","null","null","null","","arctic","arctic","584.8000000044703","","N","null","77","77","1","arctic-dual-task","","N","uppercase","514000","0","1","0e732545798114abb301f27d3ffd0b76c1b2ae003a89fd871fcdbe82b26ee1cd","514000.19999999553","584.8000000044703","77","1","arctic","","","","",""
"dual-task","null","null","null","","arctic","arctic","680.6000000014901","","D","null","77","77","1","arctic-dual-task","","D","uppercase","520000","0","1","0e732545798114abb301f27d3ffd0b76c1b2ae003a89fd871fcdbe82b26ee1cd","520002.6000000015","680.6000000014901","77","1","arctic","","","","",""
"dual-task","null","null","null","","arctic","arctic","627.2999999970198","","r","null","88","88","1","arctic-dual-task","","r","lowercase","530000","0","1","0e732545798114abb301f27d3ffd0b76c1b2ae003a89fd871fcdbe82b26ee1cd","530004.5","627.2999999970198","88","1","arctic","","","","",""
"dual-task","null","null","null","","arctic","arctic","878.6000000014901","","h","null","88","88","1","arctic-dual-task","","h","lowercase","542000","0","1","0e732545798114abb301f27d3ffd0b76c1b2ae003a89fd871fcdbe82b26ee1cd","542003.6999999955","878.6000000014901","88","1","arctic","","","","",""
"dual-task","null","null","null","","arctic","arctic","560.7999999970198","","d","null","88","88","1","arctic-dual-task","","d","lowercase","554000","0","1","0e732545798114abb301f27d3ffd0b76c1b2ae003a89fd871fcdbe82b26ee1cd","554002.299999997","560.7999999970198","88","1","arctic","","","","",""
"dual-task","null","null","null","","arctic","arctic","745.5","","B","null","77","77","1","arctic-dual-task","","B","uppercase","562000","0","1","0e732545798114abb301f27d3ffd0b76c1b2ae003a89fd871fcdbe82b26ee1cd","562001.6999999955","745.5","77","1","arctic","","","","",""
"dual-task","null","null","null","","arctic","arctic","1137.5","","e","null","88","88","1","arctic-dual-task","","e","lowercase","570000","0","1","0e732545798114abb301f27d3ffd0b76c1b2ae003a89fd871fcdbe82b26ee1cd","570000.8999999985","1137.5","88","1","arctic","","","","",""
"dual-task","null","null","null","","arctic","arctic","996.3999999985099","","G","null","77","77","1","arctic-dual-task","","G","uppercase","578000","0","1","0e732545798114abb301f27d3ffd0b76c1b2ae003a89fd871fcdbe82b26ee1cd","578002.299999997","996.3999999985099","77","1","arctic","","","","",""
"dual-task","null","null","null","","arctic","arctic","636","","F","null","77","77","1","arctic-dual-task","","F","uppercase","586000","0","1","0e732545798114abb301f27d3ffd0b76c1b2ae003a89fd871fcdbe82b26ee1cd","586001.5","636","77","1","arctic","","","","",""
"dual-task","null","null","null","","arctic","arctic","546.3000000044703","","G","null","77","77","1","arctic-dual-task","","G","uppercase","594000","0","1","0e732545798114abb301f27d3ffd0b76c1b2ae003a89fd871fcdbe82b26ee1cd","594004.6999999955","546.3000000044703","77","1","arctic","","","","",""
"dual-task","null","null","null","","arctic","arctic","648.5999999940395","","Q","null","77","77","1","arctic-dual-task","","Q","uppercase","608000","0","1","0e732545798114abb301f27d3ffd0b76c1b2ae003a89fd871fcdbe82b26ee1cd","608000.5","648.5999999940395","77","1","arctic","","","","",""
"dual-task","null","null","null","","arctic","arctic","685.1000000014901","","H","null","77","77","1","arctic-dual-task","","H","uppercase","618000","0","1","0e732545798114abb301f27d3ffd0b76c1b2ae003a89fd871fcdbe82b26ee1cd","618000.3999999985","685.1000000014901","77","1","arctic","","","","",""
"dual-task","null","null","null","","arctic","arctic","682.2000000029802","","e","null","88","88","1","arctic-dual-task","","e","lowercase","626000","0","1","0e732545798114abb301f27d3ffd0b76c1b2ae003a89fd871fcdbe82b26ee1cd","626001.6000000015","682.2000000029802","88","1","arctic","","","","",""
"dual-task","null","null","null","","arctic","arctic","1596.2999999970198","","a","null","88","88","1","arctic-dual-task","","a","lowercase","638000","0","1","0e732545798114abb301f27d3ffd0b76c1b2ae003a89fd871fcdbe82b26ee1cd","638001.6000000015","1596.2999999970198","88","1","arctic","","","","",""
"dual-task","null","null","null","","arctic","arctic","615.1000000014901","","Q","null","77","77","1","arctic-dual-task","","Q","uppercase","646000","0","1","0e732545798114abb301f27d3ffd0b76c1b2ae003a89fd871fcdbe82b26ee1cd","646005.6000000015","615.1000000014901","77","1","arctic","","","","",""
"dual-task","null","null","null","","arctic","arctic","615.5","","b","null","88","88","1","arctic-dual-task","","b","lowercase","658000","0","1","0e732545798114abb301f27d3ffd0b76c1b2ae003a89fd871fcdbe82b26ee1cd","658004.1999999955","615.5","88","1","arctic","","","","",""
"dual-task","null","null","null","","arctic","arctic","609.1000000014901","","E","null","77","77","1","arctic-dual-task","","E","uppercase","670000","0","1","0e732545798114abb301f27d3ffd0b76c1b2ae003a89fd871fcdbe82b26ee1cd","670003.3999999985","609.1000000014901","77","1","arctic","","","","",""
"dual-task","null","null","null","","arctic","arctic","478.5","","d","null","88","88","1","arctic-dual-task","","d","lowercase","680000","0","1","0e732545798114abb301f27d3ffd0b76c1b2ae003a89fd871fcdbe82b26ee1cd","680000.3999999985","478.5","88","1","arctic","","","","",""
"dual-task","null","null","null","","arctic","arctic","615","","q","null","88","88","1","arctic-dual-task","","q","lowercase","688000","0","1","0e732545798114abb301f27d3ffd0b76c1b2ae003a89fd871fcdbe82b26ee1cd","688004.799999997","615","88","1","arctic","","","","",""
"dual-task","null","null","null","","arctic","arctic","552.2999999970198","","g","null","88","88","1","arctic-dual-task","","g","lowercase","702000","0","1","0e732545798114abb301f27d3ffd0b76c1b2ae003a89fd871fcdbe82b26ee1cd","702002.3999999985","552.2999999970198","88","1","arctic","","","","",""
"dual-task","null","null","null","","arctic","arctic","539.7000000029802","","G","null","77","77","1","arctic-dual-task","","G","uppercase","716000","0","1","0e732545798114abb301f27d3ffd0b76c1b2ae003a89fd871fcdbe82b26ee1cd","716002.1999999955","539.7000000029802","77","1","arctic","","","","",""
"dual-task","null","null","null","","arctic","arctic","NA","","H","null","NA","77","0","arctic-dual-task","","H","uppercase","724000","1","1","0e732545798114abb301f27d3ffd0b76c1b2ae003a89fd871fcdbe82b26ee1cd","724001.5","NA","NA","0","arctic","","","","",""
"dual-task","null","null","null","","arctic","arctic","566.2999999970198","","h","null","88","88","1","arctic-dual-task","","h","lowercase","734000","0","1","0e732545798114abb301f27d3ffd0b76c1b2ae003a89fd871fcdbe82b26ee1cd","734003.5","566.2999999970198","88","1","arctic","","","","",""
"dual-task","null","null","null","","arctic","arctic","568.0999999940395","","E","null","77","77","1","arctic-dual-task","","E","uppercase","744000","0","1","0e732545798114abb301f27d3ffd0b76c1b2ae003a89fd871fcdbe82b26ee1cd","744005.3999999985","568.0999999940395","77","1","arctic","","","","",""
"dual-task","null","null","null","","arctic","arctic","759.9000000059605","","B","null","77","77","1","arctic-dual-task","","B","uppercase","754000","0","1","0e732545798114abb301f27d3ffd0b76c1b2ae003a89fd871fcdbe82b26ee1cd","754001.6000000015","759.9000000059605","77","1","arctic","","","","",""
"dual-task","null","null","null","","arctic","arctic","715.6000000014901","","n","null","88","88","1","arctic-dual-task","","n","lowercase","766000","0","1","0e732545798114abb301f27d3ffd0b76c1b2ae003a89fd871fcdbe82b26ee1cd","766000.6999999955","715.6000000014901","88","1","arctic","","","","",""
"dual-task","null","null","null","","arctic","arctic","530.7999999970198","","r","null","88","88","1","arctic-dual-task","","r","lowercase","778000","0","1","0e732545798114abb301f27d3ffd0b76c1b2ae003a89fd871fcdbe82b26ee1cd","778005.3999999985","530.7999999970198","88","1","arctic","","","","",""
"dual-task","null","null","null","","arctic","arctic","702.1000000014901","","q","null","88","88","1","arctic-dual-task","","q","lowercase","788000","0","1","0e732545798114abb301f27d3ffd0b76c1b2ae003a89fd871fcdbe82b26ee1cd","788001.5","702.1000000014901","88","1","arctic","","","","",""
"audio-keyboard-response","29","891628","0.0-6.0-0.0-1.0","0e732545798114abb301f27d3ffd0b76c1b2ae003a89fd871fcdbe82b26ee1cd","arctic","arctic","null","","audio/story_arctic_scrambled.mp3","","null","","","","","","","","","","","","","","","","","","","",""
"html-button-response","30","894476","0.0-6.0-0.0-2.0","0e732545798114abb301f27d3ffd0b76c1b2ae003a89fd871fcdbe82b26ee1cd","arctic","arctic","2846","","<p>This concludes the story. Thank you for listening.</p><p>You will now answer some questions about the content of the story.</p>","0","","","","","","","","","","","","","","","","","","","","",""
"survey-multi-choice","31","902437","0.0-6.0-0.0-3.0-0.0","0e732545798114abb301f27d3ffd0b76c1b2ae003a89fd871fcdbe82b26ee1cd","arctic","arctic","7955","","<b>How many sponsorships did the narrator receive to support her expedition?</b>","","","","1","arctic-comprehension","","","","","","","","","","","","","{""Q0"":""None""}","","","",""
"survey-multi-choice","32","909396","0.0-6.0-0.0-3.0-0.1","0e732545798114abb301f27d3ffd0b76c1b2ae003a89fd871fcdbe82b26ee1cd","arctic","arctic","6698","","<b>How did the narrator prepare for her expedition?</b>","","","","1","arctic-comprehension","","","","","","","","","","","","","{""Q0"":""Trained in Alaska learning how to dogsled""}","","","",""
"survey-multi-choice","33","913976","0.0-6.0-0.0-3.0-0.2","0e732545798114abb301f27d3ffd0b76c1b2ae003a89fd871fcdbe82b26ee1cd","arctic","arctic","4323","","<b>What was the objective of the narrator&#39;s expedition?</b>","","","","1","arctic-comprehension","","","","","","","","","","","","","{""Q0"":""Dogsled across Arctic America""}","","","",""
"survey-multi-choice","34","917903","0.0-6.0-0.0-3.0-0.3","0e732545798114abb301f27d3ffd0b76c1b2ae003a89fd871fcdbe82b26ee1cd","arctic","arctic","3665","","<b>What is the name of the narrator&#39;s neighbour?</b>","","","","1","arctic-comprehension","","","","","","","","","","","","","{""Q0"":""Dave""}","","","",""
"survey-multi-choice","35","923704","0.0-6.0-0.0-3.0-0.4","0e732545798114abb301f27d3ffd0b76c1b2ae003a89fd871fcdbe82b26ee1cd","arctic","arctic","5541","","<b>Which dog on the narrator&#39;s dog team never followed instructions?</b>","","","","1","arctic-comprehension","","","","","","","","","","","","","{""Q0"":""Robert""}","","","",""
"survey-multi-choice","36","934687","0.0-6.0-0.0-3.0-0.5","0e732545798114abb301f27d3ffd0b76c1b2ae003a89fd871fcdbe82b26ee1cd","arctic","arctic","10724","","<b>How did the narrator&#39;s encounter with the polar bears end?</b>","","","","1","arctic-comprehension","","","","","","","","","","","","","{""Q0"":""The bears walked back to their den.""}","","","",""
"survey-multi-choice","37","942229","0.0-6.0-0.0-3.0-0.6","0e732545798114abb301f27d3ffd0b76c1b2ae003a89fd871fcdbe82b26ee1cd","arctic","arctic","7282","","<b>What were the weather conditions in the Arctic like the winter of the narrator&#39;s expedition?</b>","","","","1","arctic-comprehension","","","","","","","","","","","","","{""Q0"":""There were more storms than any other winter in recorded history.""}","","","",""
"survey-multi-choice","38","954213","0.0-6.0-0.0-3.0-0.7","0e732545798114abb301f27d3ffd0b76c1b2ae003a89fd871fcdbe82b26ee1cd","arctic","arctic","11721","","<b>What did the narrator do for leisure while in her tent?</b>","","","","0","arctic-comprehension","","","","","","","","","","","","","{""Q0"":""Paint""}","","","",""
"survey-multi-choice","39","963514","0.0-6.0-0.0-3.0-0.8","0e732545798114abb301f27d3ffd0b76c1b2ae003a89fd871fcdbe82b26ee1cd","arctic","arctic","9045","","<b>How did the narrator&#39;s neighbour respond when she told him about her expedition?</b>","","","","0","arctic-comprehension","","","","","","","","","","","","","{""Q0"":""He said he was worried about her.""}","","","",""
"survey-multi-choice","40","970038","0.0-6.0-0.0-3.0-0.9","0e732545798114abb301f27d3ffd0b76c1b2ae003a89fd871fcdbe82b26ee1cd","arctic","arctic","6268","","<b>How did the dogs respond when they saw the bears?</b>","","","","1","arctic-comprehension","","","","","","","","","","","","","{""Q0"":""Approached them""}","","","",""
"html-button-response","41","971956","0.0-6.0-0.0-4.0","0e732545798114abb301f27d3ffd0b76c1b2ae003a89fd871fcdbe82b26ee1cd","arctic","arctic","1664","","<p>Thank you for your responses.</p><p>You will now answer some questions about your impressions of the story.</p>","0","","","","","","","","","","","","","","","","","","","","",""
"html-button-response","42","975428","0.0-6.0-0.0-5.0-0.0","0e732545798114abb301f27d3ffd0b76c1b2ae003a89fd871fcdbe82b26ee1cd","arctic","arctic","3471","","EE1","4","","","","arctic-engagement","","","","","","","","","","","","","","5","emo-engage","",""
"html-button-response","43","979788","0.0-6.0-0.0-5.0-0.1","0e732545798114abb301f27d3ffd0b76c1b2ae003a89fd871fcdbe82b26ee1cd","arctic","arctic","4103","","A4","5","","","","arctic-engagement","","","","","","","","","","","","","","6","absorption","",""
"html-button-response","44","983448","0.0-6.0-0.0-5.0-0.2","0e732545798114abb301f27d3ffd0b76c1b2ae003a89fd871fcdbe82b26ee1cd","arctic","arctic","3404","","A1","2","","","","arctic-engagement","","","","","","","","","","","","","","3","absorption","",""
"html-button-response","45","985759","0.0-6.0-0.0-5.0-0.3","0e732545798114abb301f27d3ffd0b76c1b2ae003a89fd871fcdbe82b26ee1cd","arctic","arctic","2056","","EE4","3","","","","arctic-engagement","","","","","","","","","","","","","","4","emo-engage","",""
"html-button-response","46","989515","0.0-6.0-0.0-5.0-0.4","0e732545798114abb301f27d3ffd0b76c1b2ae003a89fd871fcdbe82b26ee1cd","arctic","arctic","3502","","E10","4","","","","arctic-engagement","","","","","","","","","","","","","","5","enjoyment","",""
"html-button-response","47","991434","0.0-6.0-0.0-5.0-0.5","0e732545798114abb301f27d3ffd0b76c1b2ae003a89fd871fcdbe82b26ee1cd","arctic","arctic","1661","","EE3","2","","","","arctic-engagement","","","","","","","","","","","","","","3","emo-engage","",""
"html-button-response","48","994011","0.0-6.0-0.0-5.0-0.6","0e732545798114abb301f27d3ffd0b76c1b2ae003a89fd871fcdbe82b26ee1cd","arctic","arctic","2323","","E7","5","","","","arctic-engagement","","","","","","","","","","","","","","6","enjoyment","",""
"html-button-response","49","996484","0.0-6.0-0.0-5.0-0.7","0e732545798114abb301f27d3ffd0b76c1b2ae003a89fd871fcdbe82b26ee1cd","arctic","arctic","2218","","E6","4","","","","arctic-engagement","","","","","","","","","","","","","","5","enjoyment","",""
"html-button-response","50","998613","0.0-6.0-0.0-5.0-0.8","0e732545798114abb301f27d3ffd0b76c1b2ae003a89fd871fcdbe82b26ee1cd","arctic","arctic","1874","","MS1","6","","","","arctic-engagement","","","","","","","","","","","","","","7","mental-sim","",""
"html-button-response","51","1001283","0.0-6.0-0.0-5.0-0.9","0e732545798114abb301f27d3ffd0b76c1b2ae003a89fd871fcdbe82b26ee1cd","arctic","arctic","2414","","EE5","4","","","","arctic-engagement","","","","","","","","","","","","","","5","emo-engage","",""
"html-button-response","52","1003133","0.0-6.0-0.0-5.0-0.10","0e732545798114abb301f27d3ffd0b76c1b2ae003a89fd871fcdbe82b26ee1cd","arctic","arctic","1594","","E1","5","","","","arctic-engagement","","","","","","","","","","","","","","6","enjoyment","",""
"html-button-response","53","1005581","0.0-6.0-0.0-5.0-0.11","0e732545798114abb301f27d3ffd0b76c1b2ae003a89fd871fcdbe82b26ee1cd","arctic","arctic","2194","","MS3","3","","","","arctic-engagement","","","","","","","","","","","","","","4","mental-sim","",""
"html-button-response","54","1008383","0.0-6.0-0.0-5.0-0.12","0e732545798114abb301f27d3ffd0b76c1b2ae003a89fd871fcdbe82b26ee1cd","arctic","arctic","2548","","A5","2","","","","arctic-engagement","","","","","","","","","","","","","","3","absorption","",""
"html-button-response","55","1011503","0.0-6.0-0.0-5.0-0.13","0e732545798114abb301f27d3ffd0b76c1b2ae003a89fd871fcdbe82b26ee1cd","arctic","arctic","2864","","MS2","4","","","","arctic-engagement","","","","","","","","","","","","","","5","mental-sim","",""
"html-button-response","56","1014343","0.0-6.0-0.0-5.0-0.14","0e732545798114abb301f27d3ffd0b76c1b2ae003a89fd871fcdbe82b26ee1cd","arctic","arctic","2587","","A3","5","","","","arctic-engagement","","","","","","","","","","","","","","6","absorption","",""
"html-button-response","57","1016865","0.0-6.0-0.0-5.0-0.15","0e732545798114abb301f27d3ffd0b76c1b2ae003a89fd871fcdbe82b26ee1cd","arctic","arctic","2265","","E8","1","","","","arctic-engagement","","","","","","","","","","","","","","2","enjoyment","",""
"html-button-response","58","1018831","0.0-6.0-0.0-5.0-0.16","0e732545798114abb301f27d3ffd0b76c1b2ae003a89fd871fcdbe82b26ee1cd","arctic","arctic","1711","","EE2","5","","","","arctic-engagement","","","","","","","","","","","","","","6","emo-engage","",""
"html-button-response","59","1021091","0.0-6.0-0.0-5.0-0.17","0e732545798114abb301f27d3ffd0b76c1b2ae003a89fd871fcdbe82b26ee1cd","arctic","arctic","2004","","A2","4","","","","arctic-engagement","","","","","","","","","","","","","","5","absorption","",""
"html-keyboard-response","60","1027433","0.0-6.0-1.0","0e732545798114abb301f27d3ffd0b76c1b2ae003a89fd871fcdbe82b26ee1cd","arctic","arctic","6088","","<p>Thank you for your responses. You will now listen to the second story.</p><p>Remember, as you listen to the story you will see letters appear on the screen.</br>As quickly as possible, press <b>&lt;x&gt;</b> if the letter is lowercase and <b>&lt;m&gt;</b> if the letter is uppercase.</p><p>Press <b>&lt;x&gt;</b> or <b>&lt;m&gt;</b> to begin listening!</p>","","77","","","","","","","","","","","","","","","","","","","",""
"html-keyboard-response","61","1027938","0.0-6.0-2.0-0.0","0e732545798114abb301f27d3ffd0b76c1b2ae003a89fd871fcdbe82b26ee1cd","arctic","arctic","null","","<div style=""font-size:60px;"" tabindex=""0"">+</div>","","null","","","","","","","","","","","","","","","","","","","",""
"dual-task","null","null","null","","arctic","arctic","648.6000000014901","","T","null","77","77","1","swim-dual-task","","T","uppercase","10000","0","1","0e732545798114abb301f27d3ffd0b76c1b2ae003a89fd871fcdbe82b26ee1cd","10000.40000000596","648.6000000014901","77","1","swim","","","","",""
"dual-task","null","null","null","","arctic","arctic","534.2999999970198","","H","null","77","77","1","swim-dual-task","","H","uppercase","18000","0","1","0e732545798114abb301f27d3ffd0b76c1b2ae003a89fd871fcdbe82b26ee1cd","17999.30000000447","534.2999999970198","77","1","swim","","","","",""
"dual-task","null","null","null","","arctic","arctic","540","","h","null","77","88","0","swim-dual-task","","h","lowercase","28000","0","1","0e732545798114abb301f27d3ffd0b76c1b2ae003a89fd871fcdbe82b26ee1cd","28001.20000000298","540","77","0","swim","","","","",""
"dual-task","null","null","null","","arctic","arctic","602.5","","t","null","88","88","1","swim-dual-task","","t","lowercase","40000","0","1","0e732545798114abb301f27d3ffd0b76c1b2ae003a89fd871fcdbe82b26ee1cd","40000.20000000298","602.5","88","1","swim","","","","",""
"dual-task","null","null","null","","arctic","arctic","480.40000000596046","","T","null","88","77","0","swim-dual-task","","T","uppercase","54000","0","1","0e732545798114abb301f27d3ffd0b76c1b2ae003a89fd871fcdbe82b26ee1cd","54002","480.40000000596046","88","0","swim","","","","",""
"dual-task","null","null","null","","arctic","arctic","1036.5","","A","null","77","77","1","swim-dual-task","","A","uppercase","62000","0","1","0e732545798114abb301f27d3ffd0b76c1b2ae003a89fd871fcdbe82b26ee1cd","62001.5","1036.5","77","1","swim","","","","",""
"dual-task","null","null","null","","arctic","arctic","543.2000000029802","","G","null","77","77","1","swim-dual-task","","G","uppercase","72000","0","1","0e732545798114abb301f27d3ffd0b76c1b2ae003a89fd871fcdbe82b26ee1cd","72003.40000000596","543.2000000029802","77","1","swim","","","","",""
"dual-task","null","null","null","","arctic","arctic","557.8999999985099","","E","null","77","77","1","swim-dual-task","","E","uppercase","82000","0","1","0e732545798114abb301f27d3ffd0b76c1b2ae003a89fd871fcdbe82b26ee1cd","81999.40000000596","557.8999999985099","77","1","swim","","","","",""
"dual-task","null","null","null","","arctic","arctic","710","","d","null","88","88","1","swim-dual-task","","d","lowercase","94000","0","1","0e732545798114abb301f27d3ffd0b76c1b2ae003a89fd871fcdbe82b26ee1cd","93999","710","88","1","swim","","","","",""
"dual-task","null","null","null","","arctic","arctic","591.8999999985099","","f","null","88","88","1","swim-dual-task","","f","lowercase","108000","0","1","0e732545798114abb301f27d3ffd0b76c1b2ae003a89fd871fcdbe82b26ee1cd","108004","591.8999999985099","88","1","swim","","","","",""
"dual-task","null","null","null","","arctic","arctic","678.6000000014901","","t","null","88","88","1","swim-dual-task","","t","lowercase","116000","0","1","0e732545798114abb301f27d3ffd0b76c1b2ae003a89fd871fcdbe82b26ee1cd","115999.20000000298","678.6000000014901","88","1","swim","","","","",""
"dual-task","null","null","null","","arctic","arctic","671.8999999985099","","g","null","88","88","1","swim-dual-task","","g","lowercase","124000","0","1","0e732545798114abb301f27d3ffd0b76c1b2ae003a89fd871fcdbe82b26ee1cd","124004.20000000298","671.8999999985099","88","1","swim","","","","",""
"dual-task","null","null","null","","arctic","arctic","597.6000000014901","","h","null","88","88","1","swim-dual-task","","h","lowercase","136000","0","1","0e732545798114abb301f27d3ffd0b76c1b2ae003a89fd871fcdbe82b26ee1cd","136003.20000000298","597.6000000014901","88","1","swim","","","","",""
"dual-task","null","null","null","","arctic","arctic","1087.7999999970198","","q","null","88","88","1","swim-dual-task","","q","lowercase","150000","0","1","0e732545798114abb301f27d3ffd0b76c1b2ae003a89fd871fcdbe82b26ee1cd","149999.30000000447","1087.7999999970198","88","1","swim","","","","",""
"dual-task","null","null","null","","arctic","arctic","603.8999999985099","","q","null","88","88","1","swim-dual-task","","q","lowercase","162000","0","1","0e732545798114abb301f27d3ffd0b76c1b2ae003a89fd871fcdbe82b26ee1cd","162003.70000000298","603.8999999985099","88","1","swim","","","","",""
"dual-task","null","null","null","","arctic","arctic","731.5","","Q","null","77","77","1","swim-dual-task","","Q","uppercase","174000","0","1","0e732545798114abb301f27d3ffd0b76c1b2ae003a89fd871fcdbe82b26ee1cd","174002.80000000447","731.5","77","1","swim","","","","",""
"dual-task","null","null","null","","arctic","arctic","565.7000000029802","","g","null","88","88","1","swim-dual-task","","g","lowercase","184000","0","1","0e732545798114abb301f27d3ffd0b76c1b2ae003a89fd871fcdbe82b26ee1cd","184004.40000000596","565.7000000029802","88","1","swim","","","","",""
"dual-task","null","null","null","","arctic","arctic","612.7000000029802","","R","null","77","77","1","swim-dual-task","","R","uppercase","196000","0","1","0e732545798114abb301f27d3ffd0b76c1b2ae003a89fd871fcdbe82b26ee1cd","196003.5","612.7000000029802","77","1","swim","","","","",""
"dual-task","null","null","null","","arctic","arctic","538.1000000014901","","D","null","77","77","1","swim-dual-task","","D","uppercase","210000","0","1","0e732545798114abb301f27d3ffd0b76c1b2ae003a89fd871fcdbe82b26ee1cd","209999.40000000596","538.1000000014901","77","1","swim","","","","",""
"dual-task","null","null","null","","arctic","arctic","624.2999999970198","","r","null","88","88","1","swim-dual-task","","r","lowercase","220000","0","1","0e732545798114abb301f27d3ffd0b76c1b2ae003a89fd871fcdbe82b26ee1cd","220001.30000000447","624.2999999970198","88","1","swim","","","","",""
"dual-task","null","null","null","","arctic","arctic","543.7000000029802","","N","null","77","77","1","swim-dual-task","","N","uppercase","230000","0","1","0e732545798114abb301f27d3ffd0b76c1b2ae003a89fd871fcdbe82b26ee1cd","230000","543.7000000029802","77","1","swim","","","","",""
"dual-task","null","null","null","","arctic","arctic","547.2000000029802","","Q","null","77","77","1","swim-dual-task","","Q","uppercase","238000","0","1","0e732545798114abb301f27d3ffd0b76c1b2ae003a89fd871fcdbe82b26ee1cd","238002.6000000015","547.2000000029802","77","1","swim","","","","",""
"dual-task","null","null","null","","arctic","arctic","655.2000000029802","","g","null","88","88","1","swim-dual-task","","g","lowercase","246000","0","1","0e732545798114abb301f27d3ffd0b76c1b2ae003a89fd871fcdbe82b26ee1cd","246002","655.2000000029802","88","1","swim","","","","",""
"dual-task","null","null","null","","arctic","arctic","576.6999999955297","","d","null","88","88","1","swim-dual-task","","d","lowercase","258000","0","1","0e732545798114abb301f27d3ffd0b76c1b2ae003a89fd871fcdbe82b26ee1cd","258000.80000000447","576.6999999955297","88","1","swim","","","","",""
"dual-task","null","null","null","","arctic","arctic","564.7999999970198","","b","null","88","88","1","swim-dual-task","","b","lowercase","268000","0","1","0e732545798114abb301f27d3ffd0b76c1b2ae003a89fd871fcdbe82b26ee1cd","268002.80000000447","564.7999999970198","88","1","swim","","","","",""
"dual-task","null","null","null","","arctic","arctic","560.3999999985099","","R","null","77","77","1","swim-dual-task","","R","uppercase","282000","0","1","0e732545798114abb301f27d3ffd0b76c1b2ae003a89fd871fcdbe82b26ee1cd","282004.40000000596","560.3999999985099","77","1","swim","","","","",""
"dual-task","null","null","null","","arctic","arctic","746.2000000029802","","F","null","77","77","1","swim-dual-task","","F","uppercase","288000","0","1","0e732545798114abb301f27d3ffd0b76c1b2ae003a89fd871fcdbe82b26ee1cd","288001","746.2000000029802","77","1","swim","","","","",""
"dual-task","null","null","null","","arctic","arctic","667.3999999985099","","n","null","88","88","1","swim-dual-task","","n","lowercase","302000","0","1","0e732545798114abb301f27d3ffd0b76c1b2ae003a89fd871fcdbe82b26ee1cd","302002.6000000015","667.3999999985099","88","1","swim","","","","",""
"dual-task","null","null","null","","arctic","arctic","687.6000000014901","","B","null","77","77","1","swim-dual-task","","B","uppercase","312000","0","1","0e732545798114abb301f27d3ffd0b76c1b2ae003a89fd871fcdbe82b26ee1cd","312004.6000000015","687.6000000014901","77","1","swim","","","","",""
"dual-task","null","null","null","","arctic","arctic","622.6999999955297","","f","null","88","88","1","swim-dual-task","","f","lowercase","322000","0","1","0e732545798114abb301f27d3ffd0b76c1b2ae003a89fd871fcdbe82b26ee1cd","322000.80000000447","622.6999999955297","88","1","swim","","","","",""
"dual-task","null","null","null","","arctic","arctic","675.7999999970198","","H","null","77","77","1","swim-dual-task","","H","uppercase","330000","0","1","0e732545798114abb301f27d3ffd0b76c1b2ae003a89fd871fcdbe82b26ee1cd","330000.200000003","675.7999999970198","77","1","swim","","","","",""
"dual-task","null","null","null","","arctic","arctic","525.1000000014901","","N","null","77","77","1","swim-dual-task","","N","uppercase","340000","0","1","0e732545798114abb301f27d3ffd0b76c1b2ae003a89fd871fcdbe82b26ee1cd","340002.200000003","525.1000000014901","77","1","swim","","","","",""
"dual-task","null","null","null","","arctic","arctic","575.8000000044703","","T","null","77","77","1","swim-dual-task","","T","uppercase","350000","0","1","0e732545798114abb301f27d3ffd0b76c1b2ae003a89fd871fcdbe82b26ee1cd","350004","575.8000000044703","77","1","swim","","","","",""
"dual-task","null","null","null","","arctic","arctic","462.20000000298023","","G","null","88","77","0","swim-dual-task","","G","uppercase","362000","0","1","0e732545798114abb301f27d3ffd0b76c1b2ae003a89fd871fcdbe82b26ee1cd","362003","462.20000000298023","88","0","swim","","","","",""
"dual-task","null","null","null","","arctic","arctic","639.9000000059605","","F","null","77","77","1","swim-dual-task","","F","uppercase","372000","0","1","0e732545798114abb301f27d3ffd0b76c1b2ae003a89fd871fcdbe82b26ee1cd","372000.5","639.9000000059605","77","1","swim","","","","",""
"dual-task","null","null","null","","arctic","arctic","595.7999999970198","","T","null","77","77","1","swim-dual-task","","T","uppercase","380000","0","1","0e732545798114abb301f27d3ffd0b76c1b2ae003a89fd871fcdbe82b26ee1cd","380004.200000003","595.7999999970198","77","1","swim","","","","",""
"dual-task","null","null","null","","arctic","arctic","776.5","","r","null","88","88","1","swim-dual-task","","r","lowercase","390000","0","1","0e732545798114abb301f27d3ffd0b76c1b2ae003a89fd871fcdbe82b26ee1cd","390000.30000000447","776.5","88","1","swim","","","","",""
"dual-task","null","null","null","","arctic","arctic","558.1000000014901","","E","null","77","77","1","swim-dual-task","","E","uppercase","396000","0","1","0e732545798114abb301f27d3ffd0b76c1b2ae003a89fd871fcdbe82b26ee1cd","396002.90000000596","558.1000000014901","77","1","swim","","","","",""
"dual-task","null","null","null","","arctic","arctic","638.7999999970198","","r","null","88","88","1","swim-dual-task","","r","lowercase","406000","0","1","0e732545798114abb301f27d3ffd0b76c1b2ae003a89fd871fcdbe82b26ee1cd","406004.80000000447","638.7999999970198","88","1","swim","","","","",""
"dual-task","null","null","null","","arctic","arctic","682.2999999970198","","H","null","77","77","1","swim-dual-task","","H","uppercase","416000","0","1","0e732545798114abb301f27d3ffd0b76c1b2ae003a89fd871fcdbe82b26ee1cd","416001","682.2999999970198","77","1","swim","","","","",""
"dual-task","null","null","null","","arctic","arctic","627.6999999955297","","F","null","77","77","1","swim-dual-task","","F","uppercase","422000","0","1","0e732545798114abb301f27d3ffd0b76c1b2ae003a89fd871fcdbe82b26ee1cd","422003.40000000596","627.6999999955297","77","1","swim","","","","",""
"dual-task","null","null","null","","arctic","arctic","722.7000000029802","","g","null","88","88","1","swim-dual-task","","g","lowercase","428000","0","1","0e732545798114abb301f27d3ffd0b76c1b2ae003a89fd871fcdbe82b26ee1cd","427999.80000000447","722.7000000029802","88","1","swim","","","","",""
"dual-task","null","null","null","","arctic","arctic","604.7000000029802","","t","null","88","88","1","swim-dual-task","","t","lowercase","438000","0","1","0e732545798114abb301f27d3ffd0b76c1b2ae003a89fd871fcdbe82b26ee1cd","438002","604.7000000029802","88","1","swim","","","","",""
"dual-task","null","null","null","","arctic","arctic","661.1000000014901","","A","null","77","77","1","swim-dual-task","","A","uppercase","444000","0","1","0e732545798114abb301f27d3ffd0b76c1b2ae003a89fd871fcdbe82b26ee1cd","444004.40000000596","661.1000000014901","77","1","swim","","","","",""
"dual-task","null","null","null","","arctic","arctic","643.3000000044703","","Q","null","77","77","1","swim-dual-task","","Q","uppercase","452000","0","1","0e732545798114abb301f27d3ffd0b76c1b2ae003a89fd871fcdbe82b26ee1cd","452003.5","643.3000000044703","77","1","swim","","","","",""
"dual-task","null","null","null","","arctic","arctic","711.3999999985099","","E","null","77","77","1","swim-dual-task","","E","uppercase","460000","0","1","0e732545798114abb301f27d3ffd0b76c1b2ae003a89fd871fcdbe82b26ee1cd","460003.80000000447","711.3999999985099","77","1","swim","","","","",""
"dual-task","null","null","null","","arctic","arctic","737.2000000029802","","H","null","77","77","1","swim-dual-task","","H","uppercase","474000","0","1","0e732545798114abb301f27d3ffd0b76c1b2ae003a89fd871fcdbe82b26ee1cd","474004.5","737.2000000029802","77","1","swim","","","","",""
"dual-task","null","null","null","","arctic","arctic","1203.3000000044703","","e","null","88","88","1","swim-dual-task","","e","lowercase","486000","0","1","0e732545798114abb301f27d3ffd0b76c1b2ae003a89fd871fcdbe82b26ee1cd","486003.5","1203.3000000044703","88","1","swim","","","","",""
"dual-task","null","null","null","","arctic","arctic","623.1000000014901","","q","null","88","88","1","swim-dual-task","","q","lowercase","494000","0","1","0e732545798114abb301f27d3ffd0b76c1b2ae003a89fd871fcdbe82b26ee1cd","494002.6000000015","623.1000000014901","88","1","swim","","","","",""
"dual-task","null","null","null","","arctic","arctic","745.5","","f","null","88","88","1","swim-dual-task","","f","lowercase","508000","0","1","0e732545798114abb301f27d3ffd0b76c1b2ae003a89fd871fcdbe82b26ee1cd","508004.200000003","745.5","88","1","swim","","","","",""
"dual-task","null","null","null","","arctic","arctic","586.5","","n","null","88","88","1","swim-dual-task","","n","lowercase","522000","0","1","0e732545798114abb301f27d3ffd0b76c1b2ae003a89fd871fcdbe82b26ee1cd","522000.1000000015","586.5","88","1","swim","","","","",""
"dual-task","null","null","null","","arctic","arctic","654.5","","h","null","88","88","1","swim-dual-task","","h","lowercase","532000","0","1","0e732545798114abb301f27d3ffd0b76c1b2ae003a89fd871fcdbe82b26ee1cd","532002.1000000015","654.5","88","1","swim","","","","",""
"dual-task","null","null","null","","arctic","arctic","662.4000000059605","","B","null","77","77","1","swim-dual-task","","B","uppercase","544000","0","1","0e732545798114abb301f27d3ffd0b76c1b2ae003a89fd871fcdbe82b26ee1cd","544000.900000006","662.4000000059605","77","1","swim","","","","",""
"dual-task","null","null","null","","arctic","arctic","624.1000000014901","","N","null","77","77","1","swim-dual-task","","N","uppercase","558000","0","1","0e732545798114abb301f27d3ffd0b76c1b2ae003a89fd871fcdbe82b26ee1cd","558002.6000000015","624.1000000014901","77","1","swim","","","","",""
"dual-task","null","null","null","","arctic","arctic","637.6000000014901","","D","null","77","77","1","swim-dual-task","","D","uppercase","564000","0","1","0e732545798114abb301f27d3ffd0b76c1b2ae003a89fd871fcdbe82b26ee1cd","564000.6000000015","637.6000000014901","77","1","swim","","","","",""
"dual-task","null","null","null","","arctic","arctic","886.7999999970198","","h","null","88","88","1","swim-dual-task","","h","lowercase","574000","0","1","0e732545798114abb301f27d3ffd0b76c1b2ae003a89fd871fcdbe82b26ee1cd","574001.1000000015","886.7999999970198","88","1","swim","","","","",""
"dual-task","null","null","null","","arctic","arctic","608.3000000044703","","b","null","88","88","1","swim-dual-task","","b","lowercase","582000","0","1","0e732545798114abb301f27d3ffd0b76c1b2ae003a89fd871fcdbe82b26ee1cd","582000.400000006","608.3000000044703","88","1","swim","","","","",""
"dual-task","null","null","null","","arctic","arctic","541.7000000029802","","N","null","77","77","1","swim-dual-task","","N","uppercase","592000","0","1","0e732545798114abb301f27d3ffd0b76c1b2ae003a89fd871fcdbe82b26ee1cd","592002.5","541.7000000029802","77","1","swim","","","","",""
"dual-task","null","null","null","","arctic","arctic","548.6000000014901","","a","null","88","88","1","swim-dual-task","","a","lowercase","606000","0","1","0e732545798114abb301f27d3ffd0b76c1b2ae003a89fd871fcdbe82b26ee1cd","606004","548.6000000014901","88","1","swim","","","","",""
"dual-task","null","null","null","","arctic","arctic","637.2999999970198","","D","null","77","77","1","swim-dual-task","","D","uppercase","612000","0","1","0e732545798114abb301f27d3ffd0b76c1b2ae003a89fd871fcdbe82b26ee1cd","612000.700000003","637.2999999970198","77","1","swim","","","","",""
"dual-task","null","null","null","","arctic","arctic","701.7999999970198","","E","null","88","77","0","swim-dual-task","","E","uppercase","620000","0","1","0e732545798114abb301f27d3ffd0b76c1b2ae003a89fd871fcdbe82b26ee1cd","620000.8000000045","701.7999999970198","88","0","swim","","","","",""
"dual-task","null","null","null","","arctic","arctic","627.7000000029802","","a","null","88","88","1","swim-dual-task","","a","lowercase","628000","0","1","0e732545798114abb301f27d3ffd0b76c1b2ae003a89fd871fcdbe82b26ee1cd","628004.900000006","627.7000000029802","88","1","swim","","","","",""
"dual-task","null","null","null","","arctic","arctic","564.6000000014901","","G","null","77","77","1","swim-dual-task","","G","uppercase","636000","0","1","0e732545798114abb301f27d3ffd0b76c1b2ae003a89fd871fcdbe82b26ee1cd","636004.400000006","564.6000000014901","77","1","swim","","","","",""
"dual-task","null","null","null","","arctic","arctic","534","","n","null","88","88","1","swim-dual-task","","n","lowercase","646000","0","1","0e732545798114abb301f27d3ffd0b76c1b2ae003a89fd871fcdbe82b26ee1cd","646000.5","534","88","1","swim","","","","",""
"dual-task","null","null","null","","arctic","arctic","534.1999999955297","","d","null","88","88","1","swim-dual-task","","d","lowercase","656000","0","1","0e732545798114abb301f27d3ffd0b76c1b2ae003a89fd871fcdbe82b26ee1cd","656004.3000000045","534.1999999955297","88","1","swim","","","","",""
"dual-task","null","null","null","","arctic","arctic","693","","A","null","77","77","1","swim-dual-task","","A","uppercase","664000","0","1","0e732545798114abb301f27d3ffd0b76c1b2ae003a89fd871fcdbe82b26ee1cd","664001.6000000015","693","77","1","swim","","","","",""
"dual-task","null","null","null","","arctic","arctic","658.5","","B","null","77","77","1","swim-dual-task","","B","uppercase","676000","0","1","0e732545798114abb301f27d3ffd0b76c1b2ae003a89fd871fcdbe82b26ee1cd","676000.6000000015","658.5","77","1","swim","","","","",""
"dual-task","null","null","null","","arctic","arctic","1669.0999999940395","","e","null","88","88","1","swim-dual-task","","e","lowercase","688000","0","1","0e732545798114abb301f27d3ffd0b76c1b2ae003a89fd871fcdbe82b26ee1cd","688005.3000000045","1669.0999999940395","88","1","swim","","","","",""
"dual-task","null","null","null","","arctic","arctic","593.4000000059605","","e","null","88","88","1","swim-dual-task","","e","lowercase","694000","0","1","0e732545798114abb301f27d3ffd0b76c1b2ae003a89fd871fcdbe82b26ee1cd","694001.900000006","593.4000000059605","88","1","swim","","","","",""
"dual-task","null","null","null","","arctic","arctic","534.2999999970198","","D","null","77","77","1","swim-dual-task","","D","uppercase","704000","0","1","0e732545798114abb301f27d3ffd0b76c1b2ae003a89fd871fcdbe82b26ee1cd","704003.900000006","534.2999999970198","77","1","swim","","","","",""
"dual-task","null","null","null","","arctic","arctic","502.79999999701977","","A","null","77","77","1","swim-dual-task","","A","uppercase","712000","0","1","0e732545798114abb301f27d3ffd0b76c1b2ae003a89fd871fcdbe82b26ee1cd","712004.900000006","502.79999999701977","77","1","swim","","","","",""
"dual-task","null","null","null","","arctic","arctic","587","","a","null","88","88","1","swim-dual-task","","a","lowercase","722000","0","1","0e732545798114abb301f27d3ffd0b76c1b2ae003a89fd871fcdbe82b26ee1cd","722005.1000000015","587","88","1","swim","","","","",""
"dual-task","null","null","null","","arctic","arctic","501.3999999985099","","a","null","88","88","1","swim-dual-task","","a","lowercase","734000","0","1","0e732545798114abb301f27d3ffd0b76c1b2ae003a89fd871fcdbe82b26ee1cd","734004.1000000015","501.3999999985099","88","1","swim","","","","",""
"dual-task","null","null","null","","arctic","arctic","598.6000000014901","","n","null","88","88","1","swim-dual-task","","n","lowercase","746000","0","1","0e732545798114abb301f27d3ffd0b76c1b2ae003a89fd871fcdbe82b26ee1cd","746005.1000000015","598.6000000014901","88","1","swim","","","","",""
"dual-task","null","null","null","","arctic","arctic","747.1000000014901","","b","null","88","88","1","swim-dual-task","","b","lowercase","760000","0","1","0e732545798114abb301f27d3ffd0b76c1b2ae003a89fd871fcdbe82b26ee1cd","760004.5","747.1000000014901","88","1","swim","","","","",""
"dual-task","null","null","null","","arctic","arctic","674.2999999970198","","B","null","77","77","1","swim-dual-task","","B","uppercase","766000","0","1","0e732545798114abb301f27d3ffd0b76c1b2ae003a89fd871fcdbe82b26ee1cd","766001.200000003","674.2999999970198","77","1","swim","","","","",""
"dual-task","null","null","null","","arctic","arctic","1492.0999999940395","","F","null","77","77","1","swim-dual-task","","F","uppercase","778000","0","1","0e732545798114abb301f27d3ffd0b76c1b2ae003a89fd871fcdbe82b26ee1cd","778005.8000000045","1492.0999999940395","77","1","swim","","","","",""
"dual-task","null","null","null","","arctic","arctic","675.2999999970198","","d","null","88","88","1","swim-dual-task","","d","lowercase","788000","0","1","0e732545798114abb301f27d3ffd0b76c1b2ae003a89fd871fcdbe82b26ee1cd","788002.1000000015","675.2999999970198","88","1","swim","","","","",""
"dual-task","null","null","null","","arctic","arctic","568.7000000029802","","R","null","77","77","1","swim-dual-task","","R","uppercase","794000","0","1","0e732545798114abb301f27d3ffd0b76c1b2ae003a89fd871fcdbe82b26ee1cd","794004.5","568.7000000029802","77","1","swim","","","","",""
"audio-keyboard-response","62","1837974","0.0-6.0-2.0-1.0","0e732545798114abb301f27d3ffd0b76c1b2ae003a89fd871fcdbe82b26ee1cd","arctic","arctic","null","","audio/story_swim.mp3","","null","","","","","","","","","","","","","","","","","","","",""
"html-button-response","63","1839642","0.0-6.0-2.0-2.0","0e732545798114abb301f27d3ffd0b76c1b2ae003a89fd871fcdbe82b26ee1cd","arctic","arctic","1667","","<p>This concludes the story. Thank you for listening.</p><p>You will now answer some questions about the content of the story.</p>","0","","","","","","","","","","","","","","","","","","","","",""
"survey-multi-choice","64","1848017","0.0-6.0-2.0-3.0-0.0","0e732545798114abb301f27d3ffd0b76c1b2ae003a89fd871fcdbe82b26ee1cd","arctic","arctic","8367","","<b>What were the astronaut candidates trained to do at the naval air station?</b>","","","","1","swim-comprehension","","","","","","","","","","","","","{""Q0"":""Eject out of aircraft and survive in water long enough to be rescued""}","","","",""
"survey-multi-choice","65","1853946","0.0-6.0-2.0-3.0-0.1","0e732545798114abb301f27d3ffd0b76c1b2ae003a89fd871fcdbe82b26ee1cd","arctic","arctic","5667","","<b>How did the narrator train for his swim test?</b>","","","","1","swim-comprehension","","","","","","","","","","","","","{""Q0"":""Took his kids to the pool every day""}","","","",""
"survey-multi-choice","66","1858362","0.0-6.0-2.0-3.0-0.2","0e732545798114abb301f27d3ffd0b76c1b2ae003a89fd871fcdbe82b26ee1cd","arctic","arctic","4156","","<b>Where is the home of naval aviation?</b>","","","","1","swim-comprehension","","","","","","","","","","","","","{""Q0"":""Pensacola""}","","","",""
"survey-multi-choice","67","1863460","0.0-6.0-2.0-3.0-0.3","0e732545798114abb301f27d3ffd0b76c1b2ae003a89fd871fcdbe82b26ee1cd","arctic","arctic","4841","","<b>What gave the narrator his greatest feeling of accomplishment?</b>","","","","1","swim-comprehension","","","","","","","","","","","","","{""Q0"":""Passing the water survival course""}","","","",""
"survey-multi-choice","68","1868583","0.0-6.0-2.0-3.0-0.4","0e732545798114abb301f27d3ffd0b76c1b2ae003a89fd871fcdbe82b26ee1cd","arctic","arctic","4868","","<b>How many astronaut candidates passed the first swim test?</b>","","","","1","swim-comprehension","","","","","","","","","","","","","{""Q0"":""All of them""}","","","",""
"survey-multi-choice","69","1872231","0.0-6.0-2.0-3.0-0.5","0e732545798114abb301f27d3ffd0b76c1b2ae003a89fd871fcdbe82b26ee1cd","arctic","arctic","3394","","<b>What is the narrator afraid of, aside from the water?</b>","","","","1","swim-comprehension","","","","","","","","","","","","","{""Q0"":""Heights""}","","","",""
"survey-multi-choice","70","1878123","0.0-6.0-2.0-3.0-0.6","0e732545798114abb301f27d3ffd0b76c1b2ae003a89fd871fcdbe82b26ee1cd","arctic","arctic","5635","","<b>What was the final step of the first swim test in the pool?</b>","","","","1","swim-comprehension","","","","","","","","","","","","","{""Q0"":""Tread water with hands above the water""}","","","",""
"survey-multi-choice","71","1883123","0.0-6.0-2.0-3.0-0.7","0e732545798114abb301f27d3ffd0b76c1b2ae003a89fd871fcdbe82b26ee1cd","arctic","arctic","4742","","<b>How often does the narrator swim, now that he is a good swimmer?</b>","","","","1","swim-comprehension","","","","","","","","","","","","","{""Q0"":""Never swam again in his life""}","","","",""
"survey-multi-choice","72","1886939","0.0-6.0-2.0-3.0-0.8","0e732545798114abb301f27d3ffd0b76c1b2ae003a89fd871fcdbe82b26ee1cd","arctic","arctic","3560","","<b>How many astronaut candidates reported for duty at the Johnson Space Center?</b>","","","","1","swim-comprehension","","","","","","","","","","","","","{""Q0"":""Forty-four""}","","","",""
"survey-multi-choice","73","1893743","0.0-6.0-2.0-3.0-0.9","0e732545798114abb301f27d3ffd0b76c1b2ae003a89fd871fcdbe82b26ee1cd","arctic","arctic","6545","","<b>How many times did the astronaut candidates have to complete the final exercise to pass?</b>","","","","1","swim-comprehension","","","","","","","","","","","","","{""Q0"":""Two""}","","","",""
"html-button-response","74","1895464","0.0-6.0-2.0-4.0","0e732545798114abb301f27d3ffd0b76c1b2ae003a89fd871fcdbe82b26ee1cd","arctic","arctic","1466","","<p>Thank you for your responses.</p><p>You will now answer some questions about your impressions of the story.</p>","0","","","","","","","","","","","","","","","","","","","","",""
"html-button-response","75","1898161","0.0-6.0-2.0-5.0-0.0","0e732545798114abb301f27d3ffd0b76c1b2ae003a89fd871fcdbe82b26ee1cd","arctic","arctic","2695","","EE2","6","","","","swim-engagement","","","","","","","","","","","","","","7","emo-engage","",""
"html-button-response","76","1900043","0.0-6.0-2.0-5.0-0.1","0e732545798114abb301f27d3ffd0b76c1b2ae003a89fd871fcdbe82b26ee1cd","arctic","arctic","1627","","E1","4","","","","swim-engagement","","","","","","","","","","","","","","5","enjoyment","",""
"html-button-response","77","1902057","0.0-6.0-2.0-5.0-0.2","0e732545798114abb301f27d3ffd0b76c1b2ae003a89fd871fcdbe82b26ee1cd","arctic","arctic","1760","","A5","5","","","","swim-engagement","","","","","","","","","","","","","","6","absorption","",""
"html-button-response","78","1904881","0.0-6.0-2.0-5.0-0.3","0e732545798114abb301f27d3ffd0b76c1b2ae003a89fd871fcdbe82b26ee1cd","arctic","arctic","2569","","E10","6","","","","swim-engagement","","","","","","","","","","","","","","7","enjoyment","",""
"html-button-response","79","1908420","0.0-6.0-2.0-5.0-0.4","0e732545798114abb301f27d3ffd0b76c1b2ae003a89fd871fcdbe82b26ee1cd","arctic","arctic","3282","","A4","3","","","","swim-engagement","","","","","","","","","","","","","","4","absorption","",""
"html-button-response","80","1910346","0.0-6.0-2.0-5.0-0.5","0e732545798114abb301f27d3ffd0b76c1b2ae003a89fd871fcdbe82b26ee1cd","arctic","arctic","1673","","A2","4","","","","swim-engagement","","","","","","","","","","","","","","5","absorption","",""
"html-button-response","81","1911940","0.0-6.0-2.0-5.0-0.6","0e732545798114abb301f27d3ffd0b76c1b2ae003a89fd871fcdbe82b26ee1cd","arctic","arctic","1340","","E6","5","","","","swim-engagement","","","","","","","","","","","","","","6","enjoyment","",""
"html-button-response","82","1914042","0.0-6.0-2.0-5.0-0.7","0e732545798114abb301f27d3ffd0b76c1b2ae003a89fd871fcdbe82b26ee1cd","arctic","arctic","1845","","EE3","4","","","","swim-engagement","","","","","","","","","","","","","","5","emo-engage","",""
"html-button-response","83","1917558","0.0-6.0-2.0-5.0-0.8","0e732545798114abb301f27d3ffd0b76c1b2ae003a89fd871fcdbe82b26ee1cd","arctic","arctic","3260","","A1","3","","","","swim-engagement","","","","","","","","","","","","","","4","absorption","",""
"html-button-response","84","1920156","0.0-6.0-2.0-5.0-0.9","0e732545798114abb301f27d3ffd0b76c1b2ae003a89fd871fcdbe82b26ee1cd","arctic","arctic","2340","","EE1","5","","","","swim-engagement","","","","","","","","","","","","","","6","emo-engage","",""
"html-button-response","85","1922085","0.0-6.0-2.0-5.0-0.10","0e732545798114abb301f27d3ffd0b76c1b2ae003a89fd871fcdbe82b26ee1cd","arctic","arctic","1674","","MS3","6","","","","swim-engagement","","","","","","","","","","","","","","7","mental-sim","",""
"html-button-response","86","1924340","0.0-6.0-2.0-5.0-0.11","0e732545798114abb301f27d3ffd0b76c1b2ae003a89fd871fcdbe82b26ee1cd","arctic","arctic","2002","","MS1","5","","","","swim-engagement","","","","","","","","","","","","","","6","mental-sim","",""
"html-button-response","87","1927152","0.0-6.0-2.0-5.0-0.12","0e732545798114abb301f27d3ffd0b76c1b2ae003a89fd871fcdbe82b26ee1cd","arctic","arctic","2555","","MS2","6","","","","swim-engagement","","","","","","","","","","","","","","7","mental-sim","",""
"html-button-response","88","1929782","0.0-6.0-2.0-5.0-0.13","0e732545798114abb301f27d3ffd0b76c1b2ae003a89fd871fcdbe82b26ee1cd","arctic","arctic","2377","","EE4","4","","","","swim-engagement","","","","","","","","","","","","","","5","emo-engage","",""
"html-button-response","89","1931232","0.0-6.0-2.0-5.0-0.14","0e732545798114abb301f27d3ffd0b76c1b2ae003a89fd871fcdbe82b26ee1cd","arctic","arctic","1197","","E7","5","","","","swim-engagement","","","","","","","","","","","","","","6","enjoyment","",""
"html-button-response","90","1932534","0.0-6.0-2.0-5.0-0.15","0e732545798114abb301f27d3ffd0b76c1b2ae003a89fd871fcdbe82b26ee1cd","arctic","arctic","1048","","A3","6","","","","swim-engagement","","","","","","","","","","","","","","7","absorption","",""
"html-button-response","91","1934735","0.0-6.0-2.0-5.0-0.16","0e732545798114abb301f27d3ffd0b76c1b2ae003a89fd871fcdbe82b26ee1cd","arctic","arctic","1948","","E8","2","","","","swim-engagement","","","","","","","","","","","","","","3","enjoyment","",""
"html-button-response","92","1936878","0.0-6.0-2.0-5.0-0.17","0e732545798114abb301f27d3ffd0b76c1b2ae003a89fd871fcdbe82b26ee1cd","arctic","arctic","1885","","EE5","5","","","","swim-engagement","","","","","","","","","","","","","","6","emo-engage","",""
"html-button-response","93","1938415","0.0-8.0","0e732545798114abb301f27d3ffd0b76c1b2ae003a89fd871fcdbe82b26ee1cd","arctic","arctic","1281","","<p>Thank you for your responses.</p><p>You will now answer some demographic, hearing, and general health questions.</p>","0","","","","","","","","","","","","","","","","","","","","",""
"survey-multi-choice","94","1940733","0.0-9.0-0.0","0e732545798114abb301f27d3ffd0b76c1b2ae003a89fd871fcdbe82b26ee1cd","arctic","arctic","2311","","","","","","","survey","","","","","","","","","","","","","{""Q0"":""Chrome""}","","","browser",""
"survey-text","95","1944454","0.0-9.0-1.0","0e732545798114abb301f27d3ffd0b76c1b2ae003a89fd871fcdbe82b26ee1cd","arctic","arctic","3462.6999999955297","","","","","","","survey","","","","","","","","","","","","","{""AGE"":""30""}","","","age","30"
"survey-multi-choice","96","1946823","0.0-9.0-2.0","0e732545798114abb301f27d3ffd0b76c1b2ae003a89fd871fcdbe82b26ee1cd","arctic","arctic","2110","","","","","","","survey","","","","","","","","","","","","","{""Q0"":""Female""}","","","gender","Female"
"survey-multi-choice","97","1949305","0.0-9.0-4.0","0e732545798114abb301f27d3ffd0b76c1b2ae003a89fd871fcdbe82b26ee1cd","arctic","arctic","2224","","","","","","","survey","","","","","","","","","","","","","{""Q0"":""Right""}","","","handedness","Right"
"survey-multi-choice","98","1952105","0.0-9.0-5.0","0e732545798114abb301f27d3ffd0b76c1b2ae003a89fd871fcdbe82b26ee1cd","arctic","arctic","2536","","","","","","","survey","","","","","","","","","","","","","{""Q0"":""Bachelor's Degree""}","","","education","Bachelor's Degree"
"survey-text","99","1956968","0.0-10.0-0.0","0e732545798114abb301f27d3ffd0b76c1b2ae003a89fd871fcdbe82b26ee1cd","arctic","arctic","4608","","","","","","","survey","","","","","","","","","","","","","{""L1"":""English""}","","","first-language","English"
"survey-text","100","1960662","0.0-10.0-1.0","0e732545798114abb301f27d3ffd0b76c1b2ae003a89fd871fcdbe82b26ee1cd","arctic","arctic","3434.6999999955297","","","","","","","survey","","","","","","","","","","","","","{""L2name"":"""",""L2fluency"":"""",""L3name"":"""",""L3fluency"":"""",""L4name"":"""",""L4fluency"":""""}","","","additional-languages","{""L2name"":"""",""L2fluency"":"""",""L3name"":"""",""L3fluency"":"""",""L4name"":"""",""L4fluency"":""""}"
"survey-multi-choice","101","1964022","0.0-10.0-2.0","0e732545798114abb301f27d3ffd0b76c1b2ae003a89fd871fcdbe82b26ee1cd","arctic","arctic","3106","","","","","","","survey","","","","","","","","","","","","","{""Q0"":""No""}","","","hearing-aid","No"
"survey-multi-choice","102","1966738","0.0-10.0-3.0","0e732545798114abb301f27d3ffd0b76c1b2ae003a89fd871fcdbe82b26ee1cd","arctic","arctic","2461","","","","","","","survey","","","","","","","","","","","","","{""Q0"":""Never""}","","","ringing-ears","Never"
"survey-multi-choice","103","1969479","0.0-10.0-5.0","0e732545798114abb301f27d3ffd0b76c1b2ae003a89fd871fcdbe82b26ee1cd","arctic","arctic","2486","","","","","","","survey","","","","","","","","","","","","","{""Q0"":""No""}","","","neuro-disease","No"
"survey-multi-choice","104","1973052","0.0-10.0-7.0","0e732545798114abb301f27d3ffd0b76c1b2ae003a89fd871fcdbe82b26ee1cd","arctic","arctic","3317","","","","","","","survey","","","","","","","","","","","","","{""Q0"":""No""}","","","take-meds","No"
"survey-text","105","1976564","0.0-10.0-9.0","0e732545798114abb301f27d3ffd0b76c1b2ae003a89fd871fcdbe82b26ee1cd","arctic","arctic","3249.2999999970198","","","","","","","survey","","","","","","","","","","","","","{""HC"":""""}","","","health-concerns",""
"html-button-response","106","1979028","0.0-11.0-0.0","0e732545798114abb301f27d3ffd0b76c1b2ae003a89fd871fcdbe82b26ee1cd","arctic","arctic","2207","","<p>How would you describe your musical skills/experiences?</p>","1","","","","survey","","","","","","","","","","","","","","","","music-skill","2"
"survey-multi-choice","107","1982001","0.0-11.0-1.0","0e732545798114abb301f27d3ffd0b76c1b2ae003a89fd871fcdbe82b26ee1cd","arctic","arctic","2717","","","","","","","survey","","","","","","","","","","","","","{""Q0"":""No""}","","","music-instrument","No"
"html-button-response","108","1985190","0.0-12.0-0.0","0e732545798114abb301f27d3ffd0b76c1b2ae003a89fd871fcdbe82b26ee1cd","arctic","arctic","2936","","<p>How would you describe your general hearing abilities?</p>","4","","","","survey","","","","","","","","","","","","","","","","ssq-01","5"
"html-button-response","109","1989406","0.0-12.0-1.0","0e732545798114abb301f27d3ffd0b76c1b2ae003a89fd871fcdbe82b26ee1cd","arctic","arctic","3963","","<p>When you talk with someone at a place that strongly reverberates/echoes (e.g., in a church or train station),</br>can you understand what the person says?</p>","7","","","","survey","","","","","","","","","","","","","","","","ssq-02","7"
"html-button-response","110","1992660","0.0-12.0-2.0","0e732545798114abb301f27d3ffd0b76c1b2ae003a89fd871fcdbe82b26ee1cd","arctic","arctic","2998","","<p>When you are with a group (~5 people) in a lively restaurant, can you follow the group's conversation?</p>","9","","","","survey","","","","","","","","","","","","","","","","ssq-03","9"
"html-button-response","111","1996097","0.0-12.0-3.0","0e732545798114abb301f27d3ffd0b76c1b2ae003a89fd871fcdbe82b26ee1cd","arctic","arctic","3182","","<p>Based on the sound of a bus or truck, can you tell whether it is moving towards or away from you?</p>","7","","","","survey","","","","","","","","","","","","","","","","ssq-04","7"
"html-button-response","112","1999903","0.0-12.0-4.0","0e732545798114abb301f27d3ffd0b76c1b2ae003a89fd871fcdbe82b26ee1cd","arctic","arctic","3551","","<p>When you are in an unknown environment, can you tell from which direction a brief sound originates?</p>","3","","","","survey","","","","","","","","","","","","","","","","ssq-05","3"
"html-button-response","113","2003525","0.0-12.0-5.0","0e732545798114abb301f27d3ffd0b76c1b2ae003a89fd871fcdbe82b26ee1cd","arctic","arctic","3368","","<p>Are you able to ignore distracting sounds when you concentrate on a specific aspect of your acoustic surrounding?</p>","4","","","","survey","","","","","","","","","","","","","","","","ssq-06","4"
"fullscreen","114","2004781","0.0-13.0","0e732545798114abb301f27d3ffd0b76c1b2ae003a89fd871fcdbe82b26ee1cd","arctic","arctic","","","","","","","","","true","","","","","","","","","","","","","","","",""
