"trial_type","trial_index","time_elapsed","internal_node_id","ParticipantID","firstStory","scramStory","rt","url","stimulus","button_pressed","key_press","correctRESP","correct","designation","success","letterStim","letterType","ONSET","TIMEOUT","CONDITION","Participant","ONSET_ACTUAL","RT","RESP","ACC","STORY","responses","response","type","surveyQuestion","QRESP"
"pavlovia","0","92","0.0-0.0","5f6fef703fc43e99a2f09b8233f71aa8ab1dc4de4dca4405c1d79fc609197b01","swim","arctic","","","","","","","","","","","","","","","","","","","","","","","","",""
"external-html","1","41292","0.0-1.0","5f6fef703fc43e99a2f09b8233f71aa8ab1dc4de4dca4405c1d79fc609197b01","swim","arctic","40308","consent/consent_updated.html","","","","","","","","","","","","","","","","","","","","","","",""
"html-button-response","2","52338","0.0-2.0-0.0","5f6fef703fc43e99a2f09b8233f71aa8ab1dc4de4dca4405c1d79fc609197b01","swim","arctic","11040","","<p>Before we begin the main task, you will complete a short volume calibration and headphone check.</p><p>Please make sure you are in a quiet listening environment, that you are wearing headphones, and that your computer's volume is turned on.<p></p>","0","","","","","","","","","","","","","","","","","","","","",""
"html-button-response","3","58601","0.0-2.0-1.0","5f6fef703fc43e99a2f09b8233f71aa8ab1dc4de4dca4405c1d79fc609197b01","swim","arctic","6010","","<p>The volume calibration will be first.</p><p>You will hear a thirty-second noise. Please adjust your computer's volume so that this noise is being presented at a comfortable level.<p></p>","0","","","","","","","","","","","","","","","","","","","","",""
"audio-button-response","4","77513","0.0-2.0-2.0","5f6fef703fc43e99a2f09b8233f71aa8ab1dc4de4dca4405c1d79fc609197b01","swim","arctic","18638","","audio/volumetest.mp3","0","","","","","","","","","","","","","","","","","","","","",""
"html-keyboard-response","5","93288","0.0-3.0-0.0","5f6fef703fc43e99a2f09b8233f71aa8ab1dc4de4dca4405c1d79fc609197b01","swim","arctic","15772","","<p>You will now complete a short headphone check.</p><p>On each trial, you will hear three tones. One of these tones will be quieter than the others. Your task is to identify whether the quiet tone occurred first, second, or third.</p><p>There are six trials in total.<p></p><p></p>(Press SPACEBAR to begin)","","32","","","","","","","","","","","","","","","","","","","",""
"html-keyboard-response","6","94058","0.0-3.0-1.0-0.0","5f6fef703fc43e99a2f09b8233f71aa8ab1dc4de4dca4405c1d79fc609197b01","swim","arctic","null","","<div style=""font-size:60px;"">+</div>","","null","","","","","","","","","","","","","","","","","","","",""
"audio-button-response","7","99338","0.0-3.0-1.0-1.0","5f6fef703fc43e99a2f09b8233f71aa8ab1dc4de4dca4405c1d79fc609197b01","swim","arctic","5278","","audio/t3_1.mp3","2","","2","1","headphone-test","","","","","","","","","","","","","","","","",""
"html-keyboard-response","8","99843","0.0-3.0-1.0-2.0","5f6fef703fc43e99a2f09b8233f71aa8ab1dc4de4dca4405c1d79fc609197b01","swim","arctic","null","","<p>Correct</p>","","null","","","","","","","","","","","","","","","","","","","",""
"html-keyboard-response","9","100363","0.0-3.0-1.0-0.1","5f6fef703fc43e99a2f09b8233f71aa8ab1dc4de4dca4405c1d79fc609197b01","swim","arctic","null","","<div style=""font-size:60px;"">+</div>","","null","","","","","","","","","","","","","","","","","","","",""
"audio-button-response","10","105075","0.0-3.0-1.0-1.1","5f6fef703fc43e99a2f09b8233f71aa8ab1dc4de4dca4405c1d79fc609197b01","swim","arctic","4711","","audio/t1_1.mp3","1","","0","0","headphone-test","","","","","","","","","","","","","","","","",""
"html-keyboard-response","11","105584","0.0-3.0-1.0-2.1","5f6fef703fc43e99a2f09b8233f71aa8ab1dc4de4dca4405c1d79fc609197b01","swim","arctic","null","","<p>Incorrect</p>","","null","","","","","","","","","","","","","","","","","","","",""
"html-keyboard-response","12","106095","0.0-3.0-1.0-0.2","5f6fef703fc43e99a2f09b8233f71aa8ab1dc4de4dca4405c1d79fc609197b01","swim","arctic","null","","<div style=""font-size:60px;"">+</div>","","null","","","","","","","","","","","","","","","","","","","",""
"audio-button-response","13","111882","0.0-3.0-1.0-1.2","5f6fef703fc43e99a2f09b8233f71aa8ab1dc4de4dca4405c1d79fc609197b01","swim","arctic","5784","","audio/t3_2.mp3","1","","2","0","headphone-test","","","","","","","","","","","","","","","","",""
"html-keyboard-response","14","112403","0.0-3.0-1.0-2.2","5f6fef703fc43e99a2f09b8233f71aa8ab1dc4de4dca4405c1d79fc609197b01","swim","arctic","null","","<p>Incorrect</p>","","null","","","","","","","","","","","","","","","","","","","",""
"html-keyboard-response","15","112913","0.0-3.0-1.0-0.3","5f6fef703fc43e99a2f09b8233f71aa8ab1dc4de4dca4405c1d79fc609197b01","swim","arctic","null","","<div style=""font-size:60px;"">+</div>","","null","","","","","","","","","","","","","","","","","","","",""
"audio-button-response","16","118272","0.0-3.0-1.0-1.3","5f6fef703fc43e99a2f09b8233f71aa8ab1dc4de4dca4405c1d79fc609197b01","swim","arctic","5356","","audio/t1_2.mp3","2","","0","0","headphone-test","","","","","","","","","","","","","","","","",""
"html-keyboard-response","17","118793","0.0-3.0-1.0-2.3","5f6fef703fc43e99a2f09b8233f71aa8ab1dc4de4dca4405c1d79fc609197b01","swim","arctic","null","","<p>Incorrect</p>","","null","","","","","","","","","","","","","","","","","","","",""
"html-keyboard-response","18","119303","0.0-3.0-1.0-0.4","5f6fef703fc43e99a2f09b8233f71aa8ab1dc4de4dca4405c1d79fc609197b01","swim","arctic","null","","<div style=""font-size:60px;"">+</div>","","null","","","","","","","","","","","","","","","","","","","",""
"audio-button-response","19","125416","0.0-3.0-1.0-1.4","5f6fef703fc43e99a2f09b8233f71aa8ab1dc4de4dca4405c1d79fc609197b01","swim","arctic","6110","","audio/t2_2.mp3","2","","1","0","headphone-test","","","","","","","","","","","","","","","","",""
"html-keyboard-response","20","125920","0.0-3.0-1.0-2.4","5f6fef703fc43e99a2f09b8233f71aa8ab1dc4de4dca4405c1d79fc609197b01","swim","arctic","null","","<p>Incorrect</p>","","null","","","","","","","","","","","","","","","","","","","",""
"html-keyboard-response","21","126422","0.0-3.0-1.0-0.5","5f6fef703fc43e99a2f09b8233f71aa8ab1dc4de4dca4405c1d79fc609197b01","swim","arctic","null","","<div style=""font-size:60px;"">+</div>","","null","","","","","","","","","","","","","","","","","","","",""
"audio-button-response","22","131446","0.0-3.0-1.0-1.5","5f6fef703fc43e99a2f09b8233f71aa8ab1dc4de4dca4405c1d79fc609197b01","swim","arctic","5022","","audio/t2_1.mp3","0","","1","0","headphone-test","","","","","","","","","","","","","","","","",""
"html-keyboard-response","23","131964","0.0-3.0-1.0-2.5","5f6fef703fc43e99a2f09b8233f71aa8ab1dc4de4dca4405c1d79fc609197b01","swim","arctic","null","","<p>Incorrect</p>","","null","","","","","","","","","","","","","","","","","","","",""
"fullscreen","24","135733","0.0-4.0","5f6fef703fc43e99a2f09b8233f71aa8ab1dc4de4dca4405c1d79fc609197b01","swim","arctic","","","","","","","","","true","","","","","","","","","","","","","","","",""
"html-button-response","25","157735","0.0-5.0-0.0","5f6fef703fc43e99a2f09b8233f71aa8ab1dc4de4dca4405c1d79fc609197b01","swim","arctic","22000","","<p>There are two blocks to this experiment.</p><p>In each block, you will hear a ~13.5 minute story. One of the stories will be scrambled. Please listen carefully to both stories and understand them as best you can.</p><p>After each story, you will be asked some questions to assess your comprehension.</p>","0","","","","","","","","","","","","","","","","","","","","",""
"html-button-response","26","176610","0.0-5.0-1.0","5f6fef703fc43e99a2f09b8233f71aa8ab1dc4de4dca4405c1d79fc609197b01","swim","arctic","18875","","<p>During each story, there will be an additional task.</p><p>A letter will occasionally appear on the screen.</br>Your job is to - as quickly as you can - decide whether the letter is lowercase or uppercase and press one of two keys on the keyboard:</p><p>If the letter is <b>lowercase</b>, press key &lt;<b>x</b>&gt;.</p><p>If the letter is <b>uppercase</b>, press key &lt;<b>m</b>&gt;.</p>","0","","","","","","","","","","","","","","","","","","","","",""
"html-keyboard-response","27","183252","0.0-5.0-2.0","5f6fef703fc43e99a2f09b8233f71aa8ab1dc4de4dca4405c1d79fc609197b01","swim","arctic","6642","","<p>Because we want your responses to be as quick as possible, please keep your index fingers over the keys while listening.</p><p>Each block lasts about 20 minutes.</p><p><b>Press &lt;x&gt; or &lt;m&gt; to start the first block!</b></p>","","88","","","","","","","","","","","","","","","","","","","",""
"html-keyboard-response","28","183758","0.0-7.0-0.0-0.0","5f6fef703fc43e99a2f09b8233f71aa8ab1dc4de4dca4405c1d79fc609197b01","swim","arctic","null","","<div style=""font-size:60px;"" tabindex=""0"">+</div>","","null","","","","","","","","","","","","","","","","","","","",""
"dual-task","null","null","null","","swim","arctic","NA","","b","null","NA","88","0","swim-dual-task","","b","lowercase","16000","1","5","5f6fef703fc43e99a2f09b8233f71aa8ab1dc4de4dca4405c1d79fc609197b01","15998.900000095367","NA","NA","0","swim","","","","",""
"dual-task","null","null","null","","swim","arctic","1729.0999999046326","","g","null","88","88","1","swim-dual-task","","g","lowercase","26000","0","5","5f6fef703fc43e99a2f09b8233f71aa8ab1dc4de4dca4405c1d79fc609197b01","26008.400000095367","1729.0999999046326","88","1","swim","","","","",""
"dual-task","null","null","null","","swim","arctic","1006.5999999046326","","d","null","88","88","1","swim-dual-task","","d","lowercase","38000","0","5","5f6fef703fc43e99a2f09b8233f71aa8ab1dc4de4dca4405c1d79fc609197b01","38008","1006.5999999046326","88","1","swim","","","","",""
"dual-task","null","null","null","","swim","arctic","1020.5","","H","null","77","77","1","swim-dual-task","","H","uppercase","48000","0","5","5f6fef703fc43e99a2f09b8233f71aa8ab1dc4de4dca4405c1d79fc609197b01","48008.299999952316","1020.5","77","1","swim","","","","",""
"dual-task","null","null","null","","swim","arctic","882.2999999523163","","A","null","77","77","1","swim-dual-task","","A","uppercase","54000","0","5","5f6fef703fc43e99a2f09b8233f71aa8ab1dc4de4dca4405c1d79fc609197b01","54008.5","882.2999999523163","77","1","swim","","","","",""
"dual-task","null","null","null","","swim","arctic","993.3999998569489","","Q","null","77","77","1","swim-dual-task","","Q","uppercase","64000","0","5","5f6fef703fc43e99a2f09b8233f71aa8ab1dc4de4dca4405c1d79fc609197b01","63998.40000009537","993.3999998569489","77","1","swim","","","","",""
"dual-task","null","null","null","","swim","arctic","1207","","g","null","88","88","1","swim-dual-task","","g","lowercase","74000","0","5","5f6fef703fc43e99a2f09b8233f71aa8ab1dc4de4dca4405c1d79fc609197b01","73998.29999995232","1207","88","1","swim","","","","",""
"dual-task","null","null","null","","swim","arctic","857.7000000476837","","G","null","77","77","1","swim-dual-task","","G","uppercase","80000","0","5","5f6fef703fc43e99a2f09b8233f71aa8ab1dc4de4dca4405c1d79fc609197b01","80010.29999995232","857.7000000476837","77","1","swim","","","","",""
"dual-task","null","null","null","","swim","arctic","632.7000000476837","","q","null","88","88","1","swim-dual-task","","q","lowercase","92000","0","5","5f6fef703fc43e99a2f09b8233f71aa8ab1dc4de4dca4405c1d79fc609197b01","92008.29999995232","632.7000000476837","88","1","swim","","","","",""
"dual-task","null","null","null","","swim","arctic","631.1000001430511","","n","null","88","88","1","swim-dual-task","","n","lowercase","104000","0","5","5f6fef703fc43e99a2f09b8233f71aa8ab1dc4de4dca4405c1d79fc609197b01","104008.29999995232","631.1000001430511","88","1","swim","","","","",""
"dual-task","null","null","null","","swim","arctic","591.2999999523163","","r","null","88","88","1","swim-dual-task","","r","lowercase","112000","0","5","5f6fef703fc43e99a2f09b8233f71aa8ab1dc4de4dca4405c1d79fc609197b01","112008.60000014305","591.2999999523163","88","1","swim","","","","",""
"dual-task","null","null","null","","swim","arctic","620.3999998569489","","r","null","88","88","1","swim-dual-task","","r","lowercase","126000","0","5","5f6fef703fc43e99a2f09b8233f71aa8ab1dc4de4dca4405c1d79fc609197b01","126008.29999995232","620.3999998569489","88","1","swim","","","","",""
"dual-task","null","null","null","","swim","arctic","606.7000000476837","","B","null","77","77","1","swim-dual-task","","B","uppercase","138000","0","5","5f6fef703fc43e99a2f09b8233f71aa8ab1dc4de4dca4405c1d79fc609197b01","137998.60000014305","606.7000000476837","77","1","swim","","","","",""
"dual-task","null","null","null","","swim","arctic","1303.3999998569489","","N","null","77","77","1","swim-dual-task","","N","uppercase","144000","0","5","5f6fef703fc43e99a2f09b8233f71aa8ab1dc4de4dca4405c1d79fc609197b01","144008.5","1303.3999998569489","77","1","swim","","","","",""
"dual-task","null","null","null","","swim","arctic","1138","","T","null","77","77","1","swim-dual-task","","T","uppercase","156000","0","5","5f6fef703fc43e99a2f09b8233f71aa8ab1dc4de4dca4405c1d79fc609197b01","156009.10000014305","1138","77","1","swim","","","","",""
"dual-task","null","null","null","","swim","arctic","1242.0999999046326","","G","null","77","77","1","swim-dual-task","","G","uppercase","168000","0","5","5f6fef703fc43e99a2f09b8233f71aa8ab1dc4de4dca4405c1d79fc609197b01","167998.60000014305","1242.0999999046326","77","1","swim","","","","",""
"dual-task","null","null","null","","swim","arctic","1008.2999999523163","","r","null","88","88","1","swim-dual-task","","r","lowercase","178000","0","5","5f6fef703fc43e99a2f09b8233f71aa8ab1dc4de4dca4405c1d79fc609197b01","178008.40000009537","1008.2999999523163","88","1","swim","","","","",""
"dual-task","null","null","null","","swim","arctic","909.5","","q","null","88","88","1","swim-dual-task","","q","lowercase","186000","0","5","5f6fef703fc43e99a2f09b8233f71aa8ab1dc4de4dca4405c1d79fc609197b01","186008.40000009537","909.5","88","1","swim","","","","",""
"dual-task","null","null","null","","swim","arctic","1382","","t","null","88","88","1","swim-dual-task","","t","lowercase","194000","0","5","5f6fef703fc43e99a2f09b8233f71aa8ab1dc4de4dca4405c1d79fc609197b01","194002.29999995232","1382","88","1","swim","","","","",""
"dual-task","null","null","null","","swim","arctic","1330.9000000953674","","f","null","88","88","1","swim-dual-task","","f","lowercase","204000","0","5","5f6fef703fc43e99a2f09b8233f71aa8ab1dc4de4dca4405c1d79fc609197b01","203999.5","1330.9000000953674","88","1","swim","","","","",""
"dual-task","null","null","null","","swim","arctic","961.2000000476837","","B","null","77","77","1","swim-dual-task","","B","uppercase","212000","0","5","5f6fef703fc43e99a2f09b8233f71aa8ab1dc4de4dca4405c1d79fc609197b01","212018.5","961.2000000476837","77","1","swim","","","","",""
"dual-task","null","null","null","","swim","arctic","1053.2999999523163","","T","null","77","77","1","swim-dual-task","","T","uppercase","224000","0","5","5f6fef703fc43e99a2f09b8233f71aa8ab1dc4de4dca4405c1d79fc609197b01","224018.60000014305","1053.2999999523163","77","1","swim","","","","",""
"dual-task","null","null","null","","swim","arctic","1081.0999999046326","","e","null","88","88","1","swim-dual-task","","e","lowercase","236000","0","5","5f6fef703fc43e99a2f09b8233f71aa8ab1dc4de4dca4405c1d79fc609197b01","236018.5","1081.0999999046326","88","1","swim","","","","",""
"dual-task","null","null","null","","swim","arctic","991.3999998569489","","g","null","88","88","1","swim-dual-task","","g","lowercase","248000","0","5","5f6fef703fc43e99a2f09b8233f71aa8ab1dc4de4dca4405c1d79fc609197b01","248008.5","991.3999998569489","88","1","swim","","","","",""
"dual-task","null","null","null","","swim","arctic","1059.7000000476837","","E","null","77","77","1","swim-dual-task","","E","uppercase","254000","0","5","5f6fef703fc43e99a2f09b8233f71aa8ab1dc4de4dca4405c1d79fc609197b01","254008.40000009537","1059.7000000476837","77","1","swim","","","","",""
"dual-task","null","null","null","","swim","arctic","946.1000001430511","","A","null","77","77","1","swim-dual-task","","A","uppercase","266000","0","5","5f6fef703fc43e99a2f09b8233f71aa8ab1dc4de4dca4405c1d79fc609197b01","266008.40000009537","946.1000001430511","77","1","swim","","","","",""
"dual-task","null","null","null","","swim","arctic","1043.0999999046326","","q","null","88","88","1","swim-dual-task","","q","lowercase","276000","0","5","5f6fef703fc43e99a2f09b8233f71aa8ab1dc4de4dca4405c1d79fc609197b01","276008.60000014305","1043.0999999046326","88","1","swim","","","","",""
"dual-task","null","null","null","","swim","arctic","1010.6000001430511","","R","null","77","77","1","swim-dual-task","","R","uppercase","290000","0","5","5f6fef703fc43e99a2f09b8233f71aa8ab1dc4de4dca4405c1d79fc609197b01","290009","1010.6000001430511","77","1","swim","","","","",""
"dual-task","null","null","null","","swim","arctic","841.7999999523163","","a","null","88","88","1","swim-dual-task","","a","lowercase","298000","0","5","5f6fef703fc43e99a2f09b8233f71aa8ab1dc4de4dca4405c1d79fc609197b01","298008.40000009537","841.7999999523163","88","1","swim","","","","",""
"dual-task","null","null","null","","swim","arctic","936.3999998569489","","N","null","77","77","1","swim-dual-task","","N","uppercase","308000","0","5","5f6fef703fc43e99a2f09b8233f71aa8ab1dc4de4dca4405c1d79fc609197b01","308009","936.3999998569489","77","1","swim","","","","",""
"dual-task","null","null","null","","swim","arctic","930.5","","f","null","88","88","1","swim-dual-task","","f","lowercase","320000","0","5","5f6fef703fc43e99a2f09b8233f71aa8ab1dc4de4dca4405c1d79fc609197b01","320008.60000014305","930.5","88","1","swim","","","","",""
"dual-task","null","null","null","","swim","arctic","983.0999999046326","","e","null","88","88","1","swim-dual-task","","e","lowercase","332000","0","5","5f6fef703fc43e99a2f09b8233f71aa8ab1dc4de4dca4405c1d79fc609197b01","332008.7999999523","983.0999999046326","88","1","swim","","","","",""
"dual-task","null","null","null","","swim","arctic","1060.7000000476837","","F","null","77","77","1","swim-dual-task","","F","uppercase","342000","0","5","5f6fef703fc43e99a2f09b8233f71aa8ab1dc4de4dca4405c1d79fc609197b01","342008.7999999523","1060.7000000476837","77","1","swim","","","","",""
"dual-task","null","null","null","","swim","arctic","877.4000000953674","","R","null","77","77","1","swim-dual-task","","R","uppercase","354000","0","5","5f6fef703fc43e99a2f09b8233f71aa8ab1dc4de4dca4405c1d79fc609197b01","354008.90000009537","877.4000000953674","77","1","swim","","","","",""
"dual-task","null","null","null","","swim","arctic","1088.1999998092651","","E","null","77","77","1","swim-dual-task","","E","uppercase","362000","0","5","5f6fef703fc43e99a2f09b8233f71aa8ab1dc4de4dca4405c1d79fc609197b01","362008.60000014305","1088.1999998092651","77","1","swim","","","","",""
"dual-task","null","null","null","","swim","arctic","1622.2000000476837","","b","null","88","88","1","swim-dual-task","","b","lowercase","370000","0","5","5f6fef703fc43e99a2f09b8233f71aa8ab1dc4de4dca4405c1d79fc609197b01","370008.5","1622.2000000476837","88","1","swim","","","","",""
"dual-task","null","null","null","","swim","arctic","926.5999999046326","","q","null","88","88","1","swim-dual-task","","q","lowercase","380000","0","5","5f6fef703fc43e99a2f09b8233f71aa8ab1dc4de4dca4405c1d79fc609197b01","380019.10000014305","926.5999999046326","88","1","swim","","","","",""
"dual-task","null","null","null","","swim","arctic","850.4000000953674","","h","null","88","88","1","swim-dual-task","","h","lowercase","388000","0","5","5f6fef703fc43e99a2f09b8233f71aa8ab1dc4de4dca4405c1d79fc609197b01","388018.7000000477","850.4000000953674","88","1","swim","","","","",""
"dual-task","null","null","null","","swim","arctic","828.2000000476837","","R","null","77","77","1","swim-dual-task","","R","uppercase","402000","0","5","5f6fef703fc43e99a2f09b8233f71aa8ab1dc4de4dca4405c1d79fc609197b01","402008.60000014305","828.2000000476837","77","1","swim","","","","",""
"dual-task","null","null","null","","swim","arctic","1032","","b","null","88","88","1","swim-dual-task","","b","lowercase","412000","0","5","5f6fef703fc43e99a2f09b8233f71aa8ab1dc4de4dca4405c1d79fc609197b01","412008.90000009537","1032","88","1","swim","","","","",""
"dual-task","null","null","null","","swim","arctic","958","","B","null","77","77","1","swim-dual-task","","B","uppercase","422000","0","5","5f6fef703fc43e99a2f09b8233f71aa8ab1dc4de4dca4405c1d79fc609197b01","422018.7999999523","958","77","1","swim","","","","",""
"dual-task","null","null","null","","swim","arctic","974.5","","D","null","77","77","1","swim-dual-task","","D","uppercase","432000","0","5","5f6fef703fc43e99a2f09b8233f71aa8ab1dc4de4dca4405c1d79fc609197b01","432008.7000000477","974.5","77","1","swim","","","","",""
"dual-task","null","null","null","","swim","arctic","978.7000000476837","","g","null","88","88","1","swim-dual-task","","g","lowercase","444000","0","5","5f6fef703fc43e99a2f09b8233f71aa8ab1dc4de4dca4405c1d79fc609197b01","444008.7999999523","978.7000000476837","88","1","swim","","","","",""
"dual-task","null","null","null","","swim","arctic","1096.7999999523163","","a","null","88","88","1","swim-dual-task","","a","lowercase","450000","0","5","5f6fef703fc43e99a2f09b8233f71aa8ab1dc4de4dca4405c1d79fc609197b01","450009.40000009537","1096.7999999523163","88","1","swim","","","","",""
"dual-task","null","null","null","","swim","arctic","1019.7000000476837","","N","null","77","77","1","swim-dual-task","","N","uppercase","464000","0","5","5f6fef703fc43e99a2f09b8233f71aa8ab1dc4de4dca4405c1d79fc609197b01","464008.5","1019.7000000476837","77","1","swim","","","","",""
"dual-task","null","null","null","","swim","arctic","1467.7999999523163","","F","null","77","77","1","swim-dual-task","","F","uppercase","470000","0","5","5f6fef703fc43e99a2f09b8233f71aa8ab1dc4de4dca4405c1d79fc609197b01","470009","1467.7999999523163","77","1","swim","","","","",""
"dual-task","null","null","null","","swim","arctic","979.0999999046326","","n","null","88","88","1","swim-dual-task","","n","lowercase","482000","0","5","5f6fef703fc43e99a2f09b8233f71aa8ab1dc4de4dca4405c1d79fc609197b01","482008.7000000477","979.0999999046326","88","1","swim","","","","",""
"dual-task","null","null","null","","swim","arctic","893.6999998092651","","H","null","77","77","1","swim-dual-task","","H","uppercase","490000","0","5","5f6fef703fc43e99a2f09b8233f71aa8ab1dc4de4dca4405c1d79fc609197b01","490009","893.6999998092651","77","1","swim","","","","",""
"dual-task","null","null","null","","swim","arctic","971.5","","t","null","88","88","1","swim-dual-task","","t","lowercase","500000","0","5","5f6fef703fc43e99a2f09b8233f71aa8ab1dc4de4dca4405c1d79fc609197b01","500008.7000000477","971.5","88","1","swim","","","","",""
"dual-task","null","null","null","","swim","arctic","NA","","n","null","NA","88","0","swim-dual-task","","n","lowercase","506000","1","5","5f6fef703fc43e99a2f09b8233f71aa8ab1dc4de4dca4405c1d79fc609197b01","506008.7999999523","NA","NA","0","swim","","","","",""
"dual-task","null","null","null","","swim","arctic","942.7000000476837","","F","null","77","77","1","swim-dual-task","","F","uppercase","516000","0","5","5f6fef703fc43e99a2f09b8233f71aa8ab1dc4de4dca4405c1d79fc609197b01","516018.90000009537","942.7000000476837","77","1","swim","","","","",""
"dual-task","null","null","null","","swim","arctic","1115","","A","null","77","77","1","swim-dual-task","","A","uppercase","530000","0","5","5f6fef703fc43e99a2f09b8233f71aa8ab1dc4de4dca4405c1d79fc609197b01","530008.7999999523","1115","77","1","swim","","","","",""
"dual-task","null","null","null","","swim","arctic","1263.7000000476837","","b","null","88","88","1","swim-dual-task","","b","lowercase","542000","0","5","5f6fef703fc43e99a2f09b8233f71aa8ab1dc4de4dca4405c1d79fc609197b01","542019","1263.7000000476837","88","1","swim","","","","",""
"dual-task","null","null","null","","swim","arctic","1025.8000001907349","","t","null","88","88","1","swim-dual-task","","t","lowercase","552000","0","5","5f6fef703fc43e99a2f09b8233f71aa8ab1dc4de4dca4405c1d79fc609197b01","552008.7000000477","1025.8000001907349","88","1","swim","","","","",""
"dual-task","null","null","null","","swim","arctic","872.5999999046326","","R","null","77","77","1","swim-dual-task","","R","uppercase","564000","0","5","5f6fef703fc43e99a2f09b8233f71aa8ab1dc4de4dca4405c1d79fc609197b01","564018.9000000954","872.5999999046326","77","1","swim","","","","",""
"dual-task","null","null","null","","swim","arctic","1224.2000000476837","","h","null","88","88","1","swim-dual-task","","h","lowercase","572000","0","5","5f6fef703fc43e99a2f09b8233f71aa8ab1dc4de4dca4405c1d79fc609197b01","572010.2999999523","1224.2000000476837","88","1","swim","","","","",""
"dual-task","null","null","null","","swim","arctic","1071.8999998569489","","A","null","77","77","1","swim-dual-task","","A","uppercase","586000","0","5","5f6fef703fc43e99a2f09b8233f71aa8ab1dc4de4dca4405c1d79fc609197b01","586008.9000000954","1071.8999998569489","77","1","swim","","","","",""
"dual-task","null","null","null","","swim","arctic","1009.5","","B","null","77","77","1","swim-dual-task","","B","uppercase","598000","0","5","5f6fef703fc43e99a2f09b8233f71aa8ab1dc4de4dca4405c1d79fc609197b01","598018.9000000954","1009.5","77","1","swim","","","","",""
"dual-task","null","null","null","","swim","arctic","1160.2999999523163","","E","null","77","77","1","swim-dual-task","","E","uppercase","610000","0","5","5f6fef703fc43e99a2f09b8233f71aa8ab1dc4de4dca4405c1d79fc609197b01","610001","1160.2999999523163","77","1","swim","","","","",""
"dual-task","null","null","null","","swim","arctic","NA","","h","null","NA","88","0","swim-dual-task","","h","lowercase","616000","1","5","5f6fef703fc43e99a2f09b8233f71aa8ab1dc4de4dca4405c1d79fc609197b01","616018.9000000954","NA","NA","0","swim","","","","",""
"dual-task","null","null","null","","swim","arctic","1096.7999999523163","","E","null","77","77","1","swim-dual-task","","E","uppercase","630000","0","5","5f6fef703fc43e99a2f09b8233f71aa8ab1dc4de4dca4405c1d79fc609197b01","630008.7999999523","1096.7999999523163","77","1","swim","","","","",""
"dual-task","null","null","null","","swim","arctic","1437","","T","null","77","77","1","swim-dual-task","","T","uppercase","642000","0","5","5f6fef703fc43e99a2f09b8233f71aa8ab1dc4de4dca4405c1d79fc609197b01","642008.7999999523","1437","77","1","swim","","","","",""
"dual-task","null","null","null","","swim","arctic","1256","","f","null","88","88","1","swim-dual-task","","f","lowercase","650000","0","5","5f6fef703fc43e99a2f09b8233f71aa8ab1dc4de4dca4405c1d79fc609197b01","650019.100000143","1256","88","1","swim","","","","",""
"dual-task","null","null","null","","swim","arctic","1087.8999998569489","","G","null","77","77","1","swim-dual-task","","G","uppercase","658000","0","5","5f6fef703fc43e99a2f09b8233f71aa8ab1dc4de4dca4405c1d79fc609197b01","658009.600000143","1087.8999998569489","77","1","swim","","","","",""
"dual-task","null","null","null","","swim","arctic","1008.2000000476837","","t","null","88","88","1","swim-dual-task","","t","lowercase","666000","0","5","5f6fef703fc43e99a2f09b8233f71aa8ab1dc4de4dca4405c1d79fc609197b01","666008.9000000954","1008.2000000476837","88","1","swim","","","","",""
"dual-task","null","null","null","","swim","arctic","976.4000000953674","","a","null","88","88","1","swim-dual-task","","a","lowercase","674000","0","5","5f6fef703fc43e99a2f09b8233f71aa8ab1dc4de4dca4405c1d79fc609197b01","674009.2000000477","976.4000000953674","88","1","swim","","","","",""
"dual-task","null","null","null","","swim","arctic","1033.7999999523163","","Q","null","77","77","1","swim-dual-task","","Q","uppercase","684000","0","5","5f6fef703fc43e99a2f09b8233f71aa8ab1dc4de4dca4405c1d79fc609197b01","684018.9000000954","1033.7999999523163","77","1","swim","","","","",""
"dual-task","null","null","null","","swim","arctic","919.1000001430511","","D","null","77","77","1","swim-dual-task","","D","uppercase","696000","0","5","5f6fef703fc43e99a2f09b8233f71aa8ab1dc4de4dca4405c1d79fc609197b01","696018","919.1000001430511","77","1","swim","","","","",""
"dual-task","null","null","null","","swim","arctic","1800.8000001907349","","F","null","77","77","1","swim-dual-task","","F","uppercase","702000","0","5","5f6fef703fc43e99a2f09b8233f71aa8ab1dc4de4dca4405c1d79fc609197b01","702007.7000000477","1800.8000001907349","77","1","swim","","","","",""
"dual-task","null","null","null","","swim","arctic","1243.5999999046326","","d","null","88","88","1","swim-dual-task","","d","lowercase","716000","0","5","5f6fef703fc43e99a2f09b8233f71aa8ab1dc4de4dca4405c1d79fc609197b01","716009.2000000477","1243.5999999046326","88","1","swim","","","","",""
"dual-task","null","null","null","","swim","arctic","1000.0999999046326","","H","null","77","77","1","swim-dual-task","","H","uppercase","726000","0","5","5f6fef703fc43e99a2f09b8233f71aa8ab1dc4de4dca4405c1d79fc609197b01","726008.7999999523","1000.0999999046326","77","1","swim","","","","",""
"dual-task","null","null","null","","swim","arctic","1194.1000001430511","","d","null","88","88","1","swim-dual-task","","d","lowercase","732000","0","5","5f6fef703fc43e99a2f09b8233f71aa8ab1dc4de4dca4405c1d79fc609197b01","732009","1194.1000001430511","88","1","swim","","","","",""
"dual-task","null","null","null","","swim","arctic","1176.2000000476837","","d","null","88","88","1","swim-dual-task","","d","lowercase","740000","0","5","5f6fef703fc43e99a2f09b8233f71aa8ab1dc4de4dca4405c1d79fc609197b01","740010.7999999523","1176.2000000476837","88","1","swim","","","","",""
"dual-task","null","null","null","","swim","arctic","1189","","a","null","88","88","1","swim-dual-task","","a","lowercase","752000","0","5","5f6fef703fc43e99a2f09b8233f71aa8ab1dc4de4dca4405c1d79fc609197b01","752018.7000000477","1189","88","1","swim","","","","",""
"dual-task","null","null","null","","swim","arctic","1001.5","","Q","null","77","77","1","swim-dual-task","","Q","uppercase","764000","0","5","5f6fef703fc43e99a2f09b8233f71aa8ab1dc4de4dca4405c1d79fc609197b01","764009.5","1001.5","77","1","swim","","","","",""
"dual-task","null","null","null","","swim","arctic","1051.5999999046326","","e","null","88","88","1","swim-dual-task","","e","lowercase","776000","0","5","5f6fef703fc43e99a2f09b8233f71aa8ab1dc4de4dca4405c1d79fc609197b01","776019.100000143","1051.5999999046326","88","1","swim","","","","",""
"dual-task","null","null","null","","swim","arctic","1168.0999999046326","","h","null","88","88","1","swim-dual-task","","h","lowercase","786000","0","5","5f6fef703fc43e99a2f09b8233f71aa8ab1dc4de4dca4405c1d79fc609197b01","786019.2999999523","1168.0999999046326","88","1","swim","","","","",""
"dual-task","null","null","null","","swim","arctic","990.8999998569489","","n","null","88","88","1","swim-dual-task","","n","lowercase","798000","0","5","5f6fef703fc43e99a2f09b8233f71aa8ab1dc4de4dca4405c1d79fc609197b01","798009.2999999523","990.8999998569489","88","1","swim","","","","",""
"audio-keyboard-response","29","994304","0.0-7.0-0.0-1.0","5f6fef703fc43e99a2f09b8233f71aa8ab1dc4de4dca4405c1d79fc609197b01","swim","arctic","null","","audio/story_swim.mp3","","null","","","","","","","","","","","","","","","","","","","",""
"html-button-response","30","1021414","0.0-7.0-0.0-2.0","5f6fef703fc43e99a2f09b8233f71aa8ab1dc4de4dca4405c1d79fc609197b01","swim","arctic","27109","","<p>This concludes the story. Thank you for listening.</p><p>You will now answer some questions about the content of the story.</p>","0","","","","","","","","","","","","","","","","","","","","",""
"survey-multi-choice","31","1029106","0.0-7.0-0.0-3.0-0.0","5f6fef703fc43e99a2f09b8233f71aa8ab1dc4de4dca4405c1d79fc609197b01","swim","arctic","7686","","<b>How many astronaut candidates passed the first swim test?</b>","","","","1","swim-comprehension","","","","","","","","","","","","","{""Q0"":""All of them""}","","","",""
"survey-multi-choice","32","1035755","0.0-7.0-0.0-3.0-0.1","5f6fef703fc43e99a2f09b8233f71aa8ab1dc4de4dca4405c1d79fc609197b01","swim","arctic","6392","","<b>What is the narrator afraid of, aside from the water?</b>","","","","1","swim-comprehension","","","","","","","","","","","","","{""Q0"":""Heights""}","","","",""
"survey-multi-choice","33","1051347","0.0-7.0-0.0-3.0-0.2","5f6fef703fc43e99a2f09b8233f71aa8ab1dc4de4dca4405c1d79fc609197b01","swim","arctic","15337","","<b>What was the final step of the first swim test in the pool?</b>","","","","1","swim-comprehension","","","","","","","","","","","","","{""Q0"":""Tread water with hands above the water""}","","","",""
"survey-multi-choice","34","1062526","0.0-7.0-0.0-3.0-0.3","5f6fef703fc43e99a2f09b8233f71aa8ab1dc4de4dca4405c1d79fc609197b01","swim","arctic","10919","","<b>How many times did the astronaut candidates have to complete the final exercise to pass?</b>","","","","1","swim-comprehension","","","","","","","","","","","","","{""Q0"":""Two""}","","","",""
"survey-multi-choice","35","1085425","0.0-7.0-0.0-3.0-0.4","5f6fef703fc43e99a2f09b8233f71aa8ab1dc4de4dca4405c1d79fc609197b01","swim","arctic","22641","","<b>What were the astronaut candidates trained to do at the naval air station?</b>","","","","1","swim-comprehension","","","","","","","","","","","","","{""Q0"":""Eject out of aircraft and survive in water long enough to be rescued""}","","","",""
"survey-multi-choice","36","1091527","0.0-7.0-0.0-3.0-0.5","5f6fef703fc43e99a2f09b8233f71aa8ab1dc4de4dca4405c1d79fc609197b01","swim","arctic","5845","","<b>How often does the narrator swim, now that he is a good swimmer?</b>","","","","1","swim-comprehension","","","","","","","","","","","","","{""Q0"":""Never swam again in his life""}","","","",""
"survey-multi-choice","37","1103068","0.0-7.0-0.0-3.0-0.6","5f6fef703fc43e99a2f09b8233f71aa8ab1dc4de4dca4405c1d79fc609197b01","swim","arctic","11277","","<b>What gave the narrator his greatest feeling of accomplishment?</b>","","","","1","swim-comprehension","","","","","","","","","","","","","{""Q0"":""Passing the water survival course""}","","","",""
"survey-multi-choice","38","1116722","0.0-7.0-0.0-3.0-0.7","5f6fef703fc43e99a2f09b8233f71aa8ab1dc4de4dca4405c1d79fc609197b01","swim","arctic","13397","","<b>How did the narrator train for his swim test?</b>","","","","1","swim-comprehension","","","","","","","","","","","","","{""Q0"":""Took his kids to the pool every day""}","","","",""
"survey-multi-choice","39","1121997","0.0-7.0-0.0-3.0-0.8","5f6fef703fc43e99a2f09b8233f71aa8ab1dc4de4dca4405c1d79fc609197b01","swim","arctic","5019","","<b>Where is the home of naval aviation?</b>","","","","1","swim-comprehension","","","","","","","","","","","","","{""Q0"":""Pensacola""}","","","",""
"survey-multi-choice","40","1131424","0.0-7.0-0.0-3.0-0.9","5f6fef703fc43e99a2f09b8233f71aa8ab1dc4de4dca4405c1d79fc609197b01","swim","arctic","9170","","<b>How many astronaut candidates reported for duty at the Johnson Space Center?</b>","","","","1","swim-comprehension","","","","","","","","","","","","","{""Q0"":""Forty-four""}","","","",""
"html-button-response","41","1134591","0.0-7.0-0.0-4.0","5f6fef703fc43e99a2f09b8233f71aa8ab1dc4de4dca4405c1d79fc609197b01","swim","arctic","2909","","<p>Thank you for your responses.</p><p>You will now answer some questions about your impressions of the story.</p>","0","","","","","","","","","","","","","","","","","","","","",""
"html-button-response","42","1144588","0.0-7.0-0.0-5.0-0.0","5f6fef703fc43e99a2f09b8233f71aa8ab1dc4de4dca4405c1d79fc609197b01","swim","arctic","9995","","A5","3","","","","swim-engagement","","","","","","","","","","","","","","4","absorption","",""
"html-button-response","43","1148847","0.0-7.0-0.0-5.0-0.1","5f6fef703fc43e99a2f09b8233f71aa8ab1dc4de4dca4405c1d79fc609197b01","swim","arctic","3997","","MS2","6","","","","swim-engagement","","","","","","","","","","","","","","7","mental-sim","",""
"html-button-response","44","1154445","0.0-7.0-0.0-5.0-0.2","5f6fef703fc43e99a2f09b8233f71aa8ab1dc4de4dca4405c1d79fc609197b01","swim","arctic","5336","","EE1","6","","","","swim-engagement","","","","","","","","","","","","","","7","emo-engage","",""
"html-button-response","45","1159654","0.0-7.0-0.0-5.0-0.3","5f6fef703fc43e99a2f09b8233f71aa8ab1dc4de4dca4405c1d79fc609197b01","swim","arctic","4951","","EE3","2","","","","swim-engagement","","","","","","","","","","","","","","3","emo-engage","",""
"html-button-response","46","1163865","0.0-7.0-0.0-5.0-0.4","5f6fef703fc43e99a2f09b8233f71aa8ab1dc4de4dca4405c1d79fc609197b01","swim","arctic","3951","","EE5","5","","","","swim-engagement","","","","","","","","","","","","","","6","emo-engage","",""
"html-button-response","47","1166533","0.0-7.0-0.0-5.0-0.5","5f6fef703fc43e99a2f09b8233f71aa8ab1dc4de4dca4405c1d79fc609197b01","swim","arctic","2405","","E7","6","","","","swim-engagement","","","","","","","","","","","","","","7","enjoyment","",""
"html-button-response","48","1172982","0.0-7.0-0.0-5.0-0.6","5f6fef703fc43e99a2f09b8233f71aa8ab1dc4de4dca4405c1d79fc609197b01","swim","arctic","6191","","A4","4","","","","swim-engagement","","","","","","","","","","","","","","5","absorption","",""
"html-button-response","49","1178084","0.0-7.0-0.0-5.0-0.7","5f6fef703fc43e99a2f09b8233f71aa8ab1dc4de4dca4405c1d79fc609197b01","swim","arctic","4848","","E8","3","","","","swim-engagement","","","","","","","","","","","","","","4","enjoyment","",""
"html-button-response","50","1181510","0.0-7.0-0.0-5.0-0.8","5f6fef703fc43e99a2f09b8233f71aa8ab1dc4de4dca4405c1d79fc609197b01","swim","arctic","3170","","EE2","2","","","","swim-engagement","","","","","","","","","","","","","","3","emo-engage","",""
"html-button-response","51","1184628","0.0-7.0-0.0-5.0-0.9","5f6fef703fc43e99a2f09b8233f71aa8ab1dc4de4dca4405c1d79fc609197b01","swim","arctic","2864","","E1","4","","","","swim-engagement","","","","","","","","","","","","","","5","enjoyment","",""
"html-button-response","52","1187403","0.0-7.0-0.0-5.0-0.10","5f6fef703fc43e99a2f09b8233f71aa8ab1dc4de4dca4405c1d79fc609197b01","swim","arctic","2520","","EE4","6","","","","swim-engagement","","","","","","","","","","","","","","7","emo-engage","",""
"html-button-response","53","1190011","0.0-7.0-0.0-5.0-0.11","5f6fef703fc43e99a2f09b8233f71aa8ab1dc4de4dca4405c1d79fc609197b01","swim","arctic","2353","","MS1","6","","","","swim-engagement","","","","","","","","","","","","","","7","mental-sim","",""
"html-button-response","54","1192203","0.0-7.0-0.0-5.0-0.12","5f6fef703fc43e99a2f09b8233f71aa8ab1dc4de4dca4405c1d79fc609197b01","swim","arctic","1928","","E10","6","","","","swim-engagement","","","","","","","","","","","","","","7","enjoyment","",""
"html-button-response","55","1224957","0.0-7.0-0.0-5.0-0.13","5f6fef703fc43e99a2f09b8233f71aa8ab1dc4de4dca4405c1d79fc609197b01","swim","arctic","32494","","MS3","6","","","","swim-engagement","","","","","","","","","","","","","","7","mental-sim","",""
"html-button-response","56","1227560","0.0-7.0-0.0-5.0-0.14","5f6fef703fc43e99a2f09b8233f71aa8ab1dc4de4dca4405c1d79fc609197b01","swim","arctic","2346","","A2","6","","","","swim-engagement","","","","","","","","","","","","","","7","absorption","",""
"html-button-response","57","1231914","0.0-7.0-0.0-5.0-0.15","5f6fef703fc43e99a2f09b8233f71aa8ab1dc4de4dca4405c1d79fc609197b01","swim","arctic","4101","","A1","0","","","","swim-engagement","","","","","","","","","","","","","","1","absorption","",""
"html-button-response","58","1234930","0.0-7.0-0.0-5.0-0.16","5f6fef703fc43e99a2f09b8233f71aa8ab1dc4de4dca4405c1d79fc609197b01","swim","arctic","2758","","E6","5","","","","swim-engagement","","","","","","","","","","","","","","6","enjoyment","",""
"html-button-response","59","1237446","0.0-7.0-0.0-5.0-0.17","5f6fef703fc43e99a2f09b8233f71aa8ab1dc4de4dca4405c1d79fc609197b01","swim","arctic","2254","","A3","5","","","","swim-engagement","","","","","","","","","","","","","","6","absorption","",""
"html-keyboard-response","60","1381181","0.0-7.0-1.0","5f6fef703fc43e99a2f09b8233f71aa8ab1dc4de4dca4405c1d79fc609197b01","swim","arctic","143476","","<p>Thank you for your responses. You will now listen to the second story.</p><p>Remember, as you listen to the story you will see letters appear on the screen.</br>As quickly as possible, press <b>&lt;x&gt;</b> if the letter is lowercase and <b>&lt;m&gt;</b> if the letter is uppercase.</p><p>Press <b>&lt;x&gt;</b> or <b>&lt;m&gt;</b> to begin listening!</p>","","77","","","","","","","","","","","","","","","","","","","",""
"html-keyboard-response","61","1381688","0.0-7.0-2.0-0.0","5f6fef703fc43e99a2f09b8233f71aa8ab1dc4de4dca4405c1d79fc609197b01","swim","arctic","null","","<div style=""font-size:60px;"" tabindex=""0"">+</div>","","null","","","","","","","","","","","","","","","","","","","",""
"dual-task","null","null","null","","swim","arctic","1151.2999999523163","","n","null","88","88","1","arctic-dual-task","","n","lowercase","18000","0","5","5f6fef703fc43e99a2f09b8233f71aa8ab1dc4de4dca4405c1d79fc609197b01","18010.400000095367","1151.2999999523163","88","1","arctic","","","","",""
"dual-task","null","null","null","","swim","arctic","1143.0999999046326","","f","null","88","88","1","arctic-dual-task","","f","lowercase","32000","0","5","5f6fef703fc43e99a2f09b8233f71aa8ab1dc4de4dca4405c1d79fc609197b01","32008","1143.0999999046326","88","1","arctic","","","","",""
"dual-task","null","null","null","","swim","arctic","1066.0999999046326","","T","null","77","77","1","arctic-dual-task","","T","uppercase","42000","0","5","5f6fef703fc43e99a2f09b8233f71aa8ab1dc4de4dca4405c1d79fc609197b01","42009.60000014305","1066.0999999046326","77","1","arctic","","","","",""
"dual-task","null","null","null","","swim","arctic","816.3999998569489","","B","null","77","77","1","arctic-dual-task","","B","uppercase","56000","0","5","5f6fef703fc43e99a2f09b8233f71aa8ab1dc4de4dca4405c1d79fc609197b01","55999.60000014305","816.3999998569489","77","1","arctic","","","","",""
"dual-task","null","null","null","","swim","arctic","657.9000000953674","","H","null","77","77","1","arctic-dual-task","","H","uppercase","68000","0","5","5f6fef703fc43e99a2f09b8233f71aa8ab1dc4de4dca4405c1d79fc609197b01","68009.5","657.9000000953674","77","1","arctic","","","","",""
"dual-task","null","null","null","","swim","arctic","622.6999998092651","","N","null","77","77","1","arctic-dual-task","","N","uppercase","82000","0","5","5f6fef703fc43e99a2f09b8233f71aa8ab1dc4de4dca4405c1d79fc609197b01","82009.70000004768","622.6999998092651","77","1","arctic","","","","",""
"dual-task","null","null","null","","swim","arctic","581.3999998569489","","D","null","77","77","1","arctic-dual-task","","D","uppercase","88000","0","5","5f6fef703fc43e99a2f09b8233f71aa8ab1dc4de4dca4405c1d79fc609197b01","88009.60000014305","581.3999998569489","77","1","arctic","","","","",""
"dual-task","null","null","null","","swim","arctic","671.2000000476837","","A","null","77","77","1","arctic-dual-task","","A","uppercase","100000","0","5","5f6fef703fc43e99a2f09b8233f71aa8ab1dc4de4dca4405c1d79fc609197b01","100010.5","671.2000000476837","77","1","arctic","","","","",""
"dual-task","null","null","null","","swim","arctic","805.8999998569489","","h","null","88","88","1","arctic-dual-task","","h","lowercase","108000","0","5","5f6fef703fc43e99a2f09b8233f71aa8ab1dc4de4dca4405c1d79fc609197b01","108009.60000014305","805.8999998569489","88","1","arctic","","","","",""
"dual-task","null","null","null","","swim","arctic","650","","d","null","88","88","1","arctic-dual-task","","d","lowercase","116000","0","5","5f6fef703fc43e99a2f09b8233f71aa8ab1dc4de4dca4405c1d79fc609197b01","115999.70000004768","650","88","1","arctic","","","","",""
"dual-task","null","null","null","","swim","arctic","571.3999998569489","","g","null","88","88","1","arctic-dual-task","","g","lowercase","124000","0","5","5f6fef703fc43e99a2f09b8233f71aa8ab1dc4de4dca4405c1d79fc609197b01","123999.60000014305","571.3999998569489","88","1","arctic","","","","",""
"dual-task","null","null","null","","swim","arctic","641.5","","A","null","77","77","1","arctic-dual-task","","A","uppercase","134000","0","5","5f6fef703fc43e99a2f09b8233f71aa8ab1dc4de4dca4405c1d79fc609197b01","134009.70000004768","641.5","77","1","arctic","","","","",""
"dual-task","null","null","null","","swim","arctic","740.6000001430511","","T","null","77","77","1","arctic-dual-task","","T","uppercase","144000","0","5","5f6fef703fc43e99a2f09b8233f71aa8ab1dc4de4dca4405c1d79fc609197b01","143999.60000014305","740.6000001430511","77","1","arctic","","","","",""
"dual-task","null","null","null","","swim","arctic","741.6999998092651","","e","null","88","88","1","arctic-dual-task","","e","lowercase","150000","0","5","5f6fef703fc43e99a2f09b8233f71aa8ab1dc4de4dca4405c1d79fc609197b01","150009.70000004768","741.6999998092651","88","1","arctic","","","","",""
"dual-task","null","null","null","","swim","arctic","652","","a","null","88","88","1","arctic-dual-task","","a","lowercase","160000","0","5","5f6fef703fc43e99a2f09b8233f71aa8ab1dc4de4dca4405c1d79fc609197b01","159999.60000014305","652","88","1","arctic","","","","",""
"dual-task","null","null","null","","swim","arctic","660.3000001907349","","A","null","77","77","1","arctic-dual-task","","A","uppercase","170000","0","5","5f6fef703fc43e99a2f09b8233f71aa8ab1dc4de4dca4405c1d79fc609197b01","170020","660.3000001907349","77","1","arctic","","","","",""
"dual-task","null","null","null","","swim","arctic","639.4000000953674","","Q","null","77","77","1","arctic-dual-task","","Q","uppercase","176000","0","5","5f6fef703fc43e99a2f09b8233f71aa8ab1dc4de4dca4405c1d79fc609197b01","176009.70000004768","639.4000000953674","77","1","arctic","","","","",""
"dual-task","null","null","null","","swim","arctic","589.0999999046326","","g","null","88","88","1","arctic-dual-task","","g","lowercase","188000","0","5","5f6fef703fc43e99a2f09b8233f71aa8ab1dc4de4dca4405c1d79fc609197b01","188009.80000019073","589.0999999046326","88","1","arctic","","","","",""
"dual-task","null","null","null","","swim","arctic","552.5","","F","null","77","77","1","arctic-dual-task","","F","uppercase","194000","0","5","5f6fef703fc43e99a2f09b8233f71aa8ab1dc4de4dca4405c1d79fc609197b01","193999.60000014305","552.5","77","1","arctic","","","","",""
"dual-task","null","null","null","","swim","arctic","530","","a","null","88","88","1","arctic-dual-task","","a","lowercase","204000","0","5","5f6fef703fc43e99a2f09b8233f71aa8ab1dc4de4dca4405c1d79fc609197b01","204019.80000019073","530","88","1","arctic","","","","",""
"dual-task","null","null","null","","swim","arctic","1518.7999999523163","","F","null","77","77","1","arctic-dual-task","","F","uppercase","214000","0","5","5f6fef703fc43e99a2f09b8233f71aa8ab1dc4de4dca4405c1d79fc609197b01","214020","1518.7999999523163","77","1","arctic","","","","",""
"dual-task","null","null","null","","swim","arctic","673","","D","null","77","77","1","arctic-dual-task","","D","uppercase","224000","0","5","5f6fef703fc43e99a2f09b8233f71aa8ab1dc4de4dca4405c1d79fc609197b01","223999.70000004768","673","77","1","arctic","","","","",""
"dual-task","null","null","null","","swim","arctic","674.2999999523163","","G","null","77","77","1","arctic-dual-task","","G","uppercase","230000","0","5","5f6fef703fc43e99a2f09b8233f71aa8ab1dc4de4dca4405c1d79fc609197b01","230010","674.2999999523163","77","1","arctic","","","","",""
"dual-task","null","null","null","","swim","arctic","623","","f","null","88","88","1","arctic-dual-task","","f","lowercase","244000","0","5","5f6fef703fc43e99a2f09b8233f71aa8ab1dc4de4dca4405c1d79fc609197b01","244000.70000004768","623","88","1","arctic","","","","",""
"dual-task","null","null","null","","swim","arctic","673.5","","b","null","88","88","1","arctic-dual-task","","b","lowercase","258000","0","5","5f6fef703fc43e99a2f09b8233f71aa8ab1dc4de4dca4405c1d79fc609197b01","257999.60000014305","673.5","88","1","arctic","","","","",""
"dual-task","null","null","null","","swim","arctic","589.9000000953674","","E","null","77","77","1","arctic-dual-task","","E","uppercase","266000","0","5","5f6fef703fc43e99a2f09b8233f71aa8ab1dc4de4dca4405c1d79fc609197b01","266010.90000009537","589.9000000953674","77","1","arctic","","","","",""
"dual-task","null","null","null","","swim","arctic","730","","e","null","88","88","1","arctic-dual-task","","e","lowercase","276000","0","5","5f6fef703fc43e99a2f09b8233f71aa8ab1dc4de4dca4405c1d79fc609197b01","275999.80000019073","730","88","1","arctic","","","","",""
"dual-task","null","null","null","","swim","arctic","709.8999998569489","","F","null","77","77","1","arctic-dual-task","","F","uppercase","290000","0","5","5f6fef703fc43e99a2f09b8233f71aa8ab1dc4de4dca4405c1d79fc609197b01","289999.80000019073","709.8999998569489","77","1","arctic","","","","",""
"dual-task","null","null","null","","swim","arctic","856.4000000953674","","H","null","77","77","1","arctic-dual-task","","H","uppercase","298000","0","5","5f6fef703fc43e99a2f09b8233f71aa8ab1dc4de4dca4405c1d79fc609197b01","298019.80000019073","856.4000000953674","77","1","arctic","","","","",""
"dual-task","null","null","null","","swim","arctic","893.3000001907349","","f","null","88","88","1","arctic-dual-task","","f","lowercase","306000","0","5","5f6fef703fc43e99a2f09b8233f71aa8ab1dc4de4dca4405c1d79fc609197b01","306009.80000019073","893.3000001907349","88","1","arctic","","","","",""
"dual-task","null","null","null","","swim","arctic","543.1999998092651","","b","null","88","88","1","arctic-dual-task","","b","lowercase","316000","0","5","5f6fef703fc43e99a2f09b8233f71aa8ab1dc4de4dca4405c1d79fc609197b01","315999.80000019073","543.1999998092651","88","1","arctic","","","","",""
"dual-task","null","null","null","","swim","arctic","561.1000001430511","","d","null","88","88","1","arctic-dual-task","","d","lowercase","328000","0","5","5f6fef703fc43e99a2f09b8233f71aa8ab1dc4de4dca4405c1d79fc609197b01","328009.80000019073","561.1000001430511","88","1","arctic","","","","",""
"dual-task","null","null","null","","swim","arctic","1409.5","","E","null","77","77","1","arctic-dual-task","","E","uppercase","342000","0","5","5f6fef703fc43e99a2f09b8233f71aa8ab1dc4de4dca4405c1d79fc609197b01","341999.90000009537","1409.5","77","1","arctic","","","","",""
"dual-task","null","null","null","","swim","arctic","632.5","","t","null","88","88","1","arctic-dual-task","","t","lowercase","354000","0","5","5f6fef703fc43e99a2f09b8233f71aa8ab1dc4de4dca4405c1d79fc609197b01","354009.90000009537","632.5","88","1","arctic","","","","",""
"dual-task","null","null","null","","swim","arctic","666","","R","null","77","77","1","arctic-dual-task","","R","uppercase","364000","0","5","5f6fef703fc43e99a2f09b8233f71aa8ab1dc4de4dca4405c1d79fc609197b01","364000","666","77","1","arctic","","","","",""
"dual-task","null","null","null","","swim","arctic","714.7000000476837","","h","null","88","88","1","arctic-dual-task","","h","lowercase","372000","0","5","5f6fef703fc43e99a2f09b8233f71aa8ab1dc4de4dca4405c1d79fc609197b01","372010","714.7000000476837","88","1","arctic","","","","",""
"dual-task","null","null","null","","swim","arctic","611.6000001430511","","N","null","77","77","1","arctic-dual-task","","N","uppercase","378000","0","5","5f6fef703fc43e99a2f09b8233f71aa8ab1dc4de4dca4405c1d79fc609197b01","378009.90000009537","611.6000001430511","77","1","arctic","","","","",""
"dual-task","null","null","null","","swim","arctic","692.4000000953674","","B","null","77","77","1","arctic-dual-task","","B","uppercase","388000","0","5","5f6fef703fc43e99a2f09b8233f71aa8ab1dc4de4dca4405c1d79fc609197b01","388009.90000009537","692.4000000953674","77","1","arctic","","","","",""
"dual-task","null","null","null","","swim","arctic","650.7000000476837","","q","null","88","88","1","arctic-dual-task","","q","lowercase","394000","0","5","5f6fef703fc43e99a2f09b8233f71aa8ab1dc4de4dca4405c1d79fc609197b01","394010","650.7000000476837","88","1","arctic","","","","",""
"dual-task","null","null","null","","swim","arctic","609.2999999523163","","F","null","77","77","1","arctic-dual-task","","F","uppercase","406000","0","5","5f6fef703fc43e99a2f09b8233f71aa8ab1dc4de4dca4405c1d79fc609197b01","406009.40000009537","609.2999999523163","77","1","arctic","","","","",""
"dual-task","null","null","null","","swim","arctic","660.9000000953674","","N","null","77","77","1","arctic-dual-task","","N","uppercase","412000","0","5","5f6fef703fc43e99a2f09b8233f71aa8ab1dc4de4dca4405c1d79fc609197b01","412010","660.9000000953674","77","1","arctic","","","","",""
"dual-task","null","null","null","","swim","arctic","653.5999999046326","","Q","null","77","77","1","arctic-dual-task","","Q","uppercase","426000","0","5","5f6fef703fc43e99a2f09b8233f71aa8ab1dc4de4dca4405c1d79fc609197b01","426020","653.5999999046326","77","1","arctic","","","","",""
"dual-task","null","null","null","","swim","arctic","689.7999999523163","","q","null","88","88","1","arctic-dual-task","","q","lowercase","438000","0","5","5f6fef703fc43e99a2f09b8233f71aa8ab1dc4de4dca4405c1d79fc609197b01","438010","689.7999999523163","88","1","arctic","","","","",""
"dual-task","null","null","null","","swim","arctic","564.2999999523163","","b","null","88","88","1","arctic-dual-task","","b","lowercase","450000","0","5","5f6fef703fc43e99a2f09b8233f71aa8ab1dc4de4dca4405c1d79fc609197b01","450019.90000009537","564.2999999523163","88","1","arctic","","","","",""
"dual-task","null","null","null","","swim","arctic","672","","n","null","88","88","1","arctic-dual-task","","n","lowercase","462000","0","5","5f6fef703fc43e99a2f09b8233f71aa8ab1dc4de4dca4405c1d79fc609197b01","462009.80000019073","672","88","1","arctic","","","","",""
"dual-task","null","null","null","","swim","arctic","468.2000000476837","","d","null","88","88","1","arctic-dual-task","","d","lowercase","474000","0","5","5f6fef703fc43e99a2f09b8233f71aa8ab1dc4de4dca4405c1d79fc609197b01","474010","468.2000000476837","88","1","arctic","","","","",""
"dual-task","null","null","null","","swim","arctic","550.7999999523163","","a","null","88","88","1","arctic-dual-task","","a","lowercase","482000","0","5","5f6fef703fc43e99a2f09b8233f71aa8ab1dc4de4dca4405c1d79fc609197b01","482010","550.7999999523163","88","1","arctic","","","","",""
"dual-task","null","null","null","","swim","arctic","612.2999999523163","","B","null","77","77","1","arctic-dual-task","","B","uppercase","488000","0","5","5f6fef703fc43e99a2f09b8233f71aa8ab1dc4de4dca4405c1d79fc609197b01","488020.10000014305","612.2999999523163","77","1","arctic","","","","",""
"dual-task","null","null","null","","swim","arctic","1442","","t","null","88","88","1","arctic-dual-task","","t","lowercase","494000","0","5","5f6fef703fc43e99a2f09b8233f71aa8ab1dc4de4dca4405c1d79fc609197b01","494010.10000014305","1442","88","1","arctic","","","","",""
"dual-task","null","null","null","","swim","arctic","685.6000001430511","","g","null","88","88","1","arctic-dual-task","","g","lowercase","500000","0","5","5f6fef703fc43e99a2f09b8233f71aa8ab1dc4de4dca4405c1d79fc609197b01","500006.40000009537","685.6000001430511","88","1","arctic","","","","",""
"dual-task","null","null","null","","swim","arctic","676.9000000953674","","B","null","77","77","1","arctic-dual-task","","B","uppercase","508000","0","5","5f6fef703fc43e99a2f09b8233f71aa8ab1dc4de4dca4405c1d79fc609197b01","508007.60000014305","676.9000000953674","77","1","arctic","","","","",""
"dual-task","null","null","null","","swim","arctic","672.6000001430511","","r","null","88","88","1","arctic-dual-task","","r","lowercase","522000","0","5","5f6fef703fc43e99a2f09b8233f71aa8ab1dc4de4dca4405c1d79fc609197b01","522010.2000000477","672.6000001430511","88","1","arctic","","","","",""
"dual-task","null","null","null","","swim","arctic","727","","T","null","77","77","1","arctic-dual-task","","T","uppercase","534000","0","5","5f6fef703fc43e99a2f09b8233f71aa8ab1dc4de4dca4405c1d79fc609197b01","534001.3000001907","727","77","1","arctic","","","","",""
"dual-task","null","null","null","","swim","arctic","543.5999999046326","","q","null","88","88","1","arctic-dual-task","","q","lowercase","546000","0","5","5f6fef703fc43e99a2f09b8233f71aa8ab1dc4de4dca4405c1d79fc609197b01","546010.100000143","543.5999999046326","88","1","arctic","","","","",""
"dual-task","null","null","null","","swim","arctic","877.2999999523163","","Q","null","77","77","1","arctic-dual-task","","Q","uppercase","560000","0","5","5f6fef703fc43e99a2f09b8233f71aa8ab1dc4de4dca4405c1d79fc609197b01","560000.100000143","877.2999999523163","77","1","arctic","","","","",""
"dual-task","null","null","null","","swim","arctic","822.3000001907349","","t","null","88","88","1","arctic-dual-task","","t","lowercase","574000","0","5","5f6fef703fc43e99a2f09b8233f71aa8ab1dc4de4dca4405c1d79fc609197b01","574006.4000000954","822.3000001907349","88","1","arctic","","","","",""
"dual-task","null","null","null","","swim","arctic","637.5","","r","null","88","88","1","arctic-dual-task","","r","lowercase","588000","0","5","5f6fef703fc43e99a2f09b8233f71aa8ab1dc4de4dca4405c1d79fc609197b01","588000.2000000477","637.5","88","1","arctic","","","","",""
"dual-task","null","null","null","","swim","arctic","605.9000000953674","","a","null","88","88","1","arctic-dual-task","","a","lowercase","602000","0","5","5f6fef703fc43e99a2f09b8233f71aa8ab1dc4de4dca4405c1d79fc609197b01","602010","605.9000000953674","88","1","arctic","","","","",""
"dual-task","null","null","null","","swim","arctic","1193.5","","q","null","88","88","1","arctic-dual-task","","q","lowercase","610000","0","5","5f6fef703fc43e99a2f09b8233f71aa8ab1dc4de4dca4405c1d79fc609197b01","610001","1193.5","88","1","arctic","","","","",""
"dual-task","null","null","null","","swim","arctic","633.9000000953674","","e","null","88","88","1","arctic-dual-task","","e","lowercase","620000","0","5","5f6fef703fc43e99a2f09b8233f71aa8ab1dc4de4dca4405c1d79fc609197b01","620006","633.9000000953674","88","1","arctic","","","","",""
"dual-task","null","null","null","","swim","arctic","708.7999999523163","","n","null","88","88","1","arctic-dual-task","","n","lowercase","634000","0","5","5f6fef703fc43e99a2f09b8233f71aa8ab1dc4de4dca4405c1d79fc609197b01","634002","708.7999999523163","88","1","arctic","","","","",""
"dual-task","null","null","null","","swim","arctic","704.5","","r","null","88","88","1","arctic-dual-task","","r","lowercase","648000","0","5","5f6fef703fc43e99a2f09b8233f71aa8ab1dc4de4dca4405c1d79fc609197b01","648010.3000001907","704.5","88","1","arctic","","","","",""
"dual-task","null","null","null","","swim","arctic","590.8000001907349","","T","null","88","77","0","arctic-dual-task","","T","uppercase","656000","0","5","5f6fef703fc43e99a2f09b8233f71aa8ab1dc4de4dca4405c1d79fc609197b01","656010.3000001907","590.8000001907349","88","0","arctic","","","","",""
"dual-task","null","null","null","","swim","arctic","1203.3000001907349","","G","null","77","77","1","arctic-dual-task","","G","uppercase","668000","0","5","5f6fef703fc43e99a2f09b8233f71aa8ab1dc4de4dca4405c1d79fc609197b01","668020.3000001907","1203.3000001907349","77","1","arctic","","","","",""
"dual-task","null","null","null","","swim","arctic","1204.6000001430511","","E","null","77","77","1","arctic-dual-task","","E","uppercase","676000","0","5","5f6fef703fc43e99a2f09b8233f71aa8ab1dc4de4dca4405c1d79fc609197b01","676000.3000001907","1204.6000001430511","77","1","arctic","","","","",""
"dual-task","null","null","null","","swim","arctic","652.3000001907349","","Q","null","77","77","1","arctic-dual-task","","Q","uppercase","690000","0","5","5f6fef703fc43e99a2f09b8233f71aa8ab1dc4de4dca4405c1d79fc609197b01","690020.4000000954","652.3000001907349","77","1","arctic","","","","",""
"dual-task","null","null","null","","swim","arctic","583.2999999523163","","H","null","77","77","1","arctic-dual-task","","H","uppercase","700000","0","5","5f6fef703fc43e99a2f09b8233f71aa8ab1dc4de4dca4405c1d79fc609197b01","700010.2000000477","583.2999999523163","77","1","arctic","","","","",""
"dual-task","null","null","null","","swim","arctic","751.4000000953674","","f","null","88","88","1","arctic-dual-task","","f","lowercase","708000","0","5","5f6fef703fc43e99a2f09b8233f71aa8ab1dc4de4dca4405c1d79fc609197b01","708010.3000001907","751.4000000953674","88","1","arctic","","","","",""
"dual-task","null","null","null","","swim","arctic","643.7000000476837","","R","null","77","77","1","arctic-dual-task","","R","uppercase","720000","0","5","5f6fef703fc43e99a2f09b8233f71aa8ab1dc4de4dca4405c1d79fc609197b01","720010.4000000954","643.7000000476837","77","1","arctic","","","","",""
"dual-task","null","null","null","","swim","arctic","736.6999998092651","","R","null","77","77","1","arctic-dual-task","","R","uppercase","726000","0","5","5f6fef703fc43e99a2f09b8233f71aa8ab1dc4de4dca4405c1d79fc609197b01","726010.5","736.6999998092651","77","1","arctic","","","","",""
"dual-task","null","null","null","","swim","arctic","600.9000000953674","","N","null","77","77","1","arctic-dual-task","","N","uppercase","736000","0","5","5f6fef703fc43e99a2f09b8233f71aa8ab1dc4de4dca4405c1d79fc609197b01","736010.3000001907","600.9000000953674","77","1","arctic","","","","",""
"dual-task","null","null","null","","swim","arctic","706.9000000953674","","r","null","88","88","1","arctic-dual-task","","r","lowercase","746000","0","5","5f6fef703fc43e99a2f09b8233f71aa8ab1dc4de4dca4405c1d79fc609197b01","746010.3000001907","706.9000000953674","88","1","arctic","","","","",""
"dual-task","null","null","null","","swim","arctic","690","","G","null","77","77","1","arctic-dual-task","","G","uppercase","758000","0","5","5f6fef703fc43e99a2f09b8233f71aa8ab1dc4de4dca4405c1d79fc609197b01","758000.3000001907","690","77","1","arctic","","","","",""
"dual-task","null","null","null","","swim","arctic","1146.4000000953674","","h","null","88","88","1","arctic-dual-task","","h","lowercase","764000","0","5","5f6fef703fc43e99a2f09b8233f71aa8ab1dc4de4dca4405c1d79fc609197b01","764020.100000143","1146.4000000953674","88","1","arctic","","","","",""
"dual-task","null","null","null","","swim","arctic","640.5999999046326","","D","null","77","77","1","arctic-dual-task","","D","uppercase","774000","0","5","5f6fef703fc43e99a2f09b8233f71aa8ab1dc4de4dca4405c1d79fc609197b01","774020.5","640.5999999046326","77","1","arctic","","","","",""
"dual-task","null","null","null","","swim","arctic","758.0999999046326","","g","null","88","88","1","arctic-dual-task","","g","lowercase","786000","0","5","5f6fef703fc43e99a2f09b8233f71aa8ab1dc4de4dca4405c1d79fc609197b01","786000.3000001907","758.0999999046326","88","1","arctic","","","","",""
"audio-keyboard-response","62","2180262","0.0-7.0-2.0-1.0","5f6fef703fc43e99a2f09b8233f71aa8ab1dc4de4dca4405c1d79fc609197b01","swim","arctic","null","","audio/story_arctic_scrambled.mp3","","null","","","","","","","","","","","","","","","","","","","",""
"html-button-response","63","2208003","0.0-7.0-2.0-2.0","5f6fef703fc43e99a2f09b8233f71aa8ab1dc4de4dca4405c1d79fc609197b01","swim","arctic","27740","","<p>This concludes the story. Thank you for listening.</p><p>You will now answer some questions about the content of the story.</p>","0","","","","","","","","","","","","","","","","","","","","",""
"survey-multi-choice","64","2215012","0.0-7.0-2.0-3.0-0.0","5f6fef703fc43e99a2f09b8233f71aa8ab1dc4de4dca4405c1d79fc609197b01","swim","arctic","7004","","<b>How many sponsorships did the narrator receive to support her expedition?</b>","","","","1","arctic-comprehension","","","","","","","","","","","","","{""Q0"":""None""}","","","",""
"survey-multi-choice","65","2242743","0.0-7.0-2.0-3.0-0.1","5f6fef703fc43e99a2f09b8233f71aa8ab1dc4de4dca4405c1d79fc609197b01","swim","arctic","27473","","<b>How did the narrator prepare for her expedition?</b>","","","","0","arctic-comprehension","","","","","","","","","","","","","{""Q0"":""Practiced meditation""}","","","",""
"survey-multi-choice","66","2252326","0.0-7.0-2.0-3.0-0.2","5f6fef703fc43e99a2f09b8233f71aa8ab1dc4de4dca4405c1d79fc609197b01","swim","arctic","9327","","<b>How did the narrator&#39;s neighbour respond when she told him about her expedition?</b>","","","","1","arctic-comprehension","","","","","","","","","","","","","{""Q0"":""He said she was going to fail.""}","","","",""
"survey-multi-choice","67","2267770","0.0-7.0-2.0-3.0-0.3","5f6fef703fc43e99a2f09b8233f71aa8ab1dc4de4dca4405c1d79fc609197b01","swim","arctic","15181","","<b>What were the weather conditions in the Arctic like the winter of the narrator&#39;s expedition?</b>","","","","0","arctic-comprehension","","","","","","","","","","","","","{""Q0"":""It was the coldest winter in recorded history.""}","","","",""
"survey-multi-choice","68","2269690","0.0-7.0-2.0-3.0-0.4","5f6fef703fc43e99a2f09b8233f71aa8ab1dc4de4dca4405c1d79fc609197b01","swim","arctic","1656","","<b>What did the narrator do for leisure while in her tent?</b>","","","","0","arctic-comprehension","","","","","","","","","","","","","{""Q0"":""""}","","","",""
"survey-multi-choice","69","2285029","0.0-7.0-2.0-3.0-0.5","5f6fef703fc43e99a2f09b8233f71aa8ab1dc4de4dca4405c1d79fc609197b01","swim","arctic","15082","","<b>How did the narrator&#39;s encounter with the polar bears end?</b>","","","","1","arctic-comprehension","","","","","","","","","","","","","{""Q0"":""The bears walked back to their den.""}","","","",""
"survey-multi-choice","70","2293478","0.0-7.0-2.0-3.0-0.6","5f6fef703fc43e99a2f09b8233f71aa8ab1dc4de4dca4405c1d79fc609197b01","swim","arctic","8189","","<b>What is the name of the narrator&#39;s neighbour?</b>","","","","1","arctic-comprehension","","","","","","","","","","","","","{""Q0"":""Dave""}","","","",""
"survey-multi-choice","71","2299910","0.0-7.0-2.0-3.0-0.7","5f6fef703fc43e99a2f09b8233f71aa8ab1dc4de4dca4405c1d79fc609197b01","swim","arctic","6174","","<b>How did the dogs respond when they saw the bears?</b>","","","","1","arctic-comprehension","","","","","","","","","","","","","{""Q0"":""Approached them""}","","","",""
"survey-multi-choice","72","2310387","0.0-7.0-2.0-3.0-0.8","5f6fef703fc43e99a2f09b8233f71aa8ab1dc4de4dca4405c1d79fc609197b01","swim","arctic","10216","","<b>Which dog on the narrator&#39;s dog team never followed instructions?</b>","","","","1","arctic-comprehension","","","","","","","","","","","","","{""Q0"":""Robert""}","","","",""
"survey-multi-choice","73","2318175","0.0-7.0-2.0-3.0-0.9","5f6fef703fc43e99a2f09b8233f71aa8ab1dc4de4dca4405c1d79fc609197b01","swim","arctic","7531","","<b>What was the objective of the narrator&#39;s expedition?</b>","","","","1","arctic-comprehension","","","","","","","","","","","","","{""Q0"":""Dogsled across Arctic America""}","","","",""
"html-button-response","74","2335652","0.0-7.0-2.0-4.0","5f6fef703fc43e99a2f09b8233f71aa8ab1dc4de4dca4405c1d79fc609197b01","swim","arctic","17224","","<p>Thank you for your responses.</p><p>You will now answer some questions about your impressions of the story.</p>","0","","","","","","","","","","","","","","","","","","","","",""
"html-button-response","75","2339916","0.0-7.0-2.0-5.0-0.0","5f6fef703fc43e99a2f09b8233f71aa8ab1dc4de4dca4405c1d79fc609197b01","swim","arctic","4262","","EE4","0","","","","arctic-engagement","","","","","","","","","","","","","","1","emo-engage","",""
"html-button-response","76","2343673","0.0-7.0-2.0-5.0-0.1","5f6fef703fc43e99a2f09b8233f71aa8ab1dc4de4dca4405c1d79fc609197b01","swim","arctic","3497","","A1","0","","","","arctic-engagement","","","","","","","","","","","","","","1","absorption","",""
"html-button-response","77","2349268","0.0-7.0-2.0-5.0-0.2","5f6fef703fc43e99a2f09b8233f71aa8ab1dc4de4dca4405c1d79fc609197b01","swim","arctic","5332","","A2","6","","","","arctic-engagement","","","","","","","","","","","","","","7","absorption","",""
"html-button-response","78","2352110","0.0-7.0-2.0-5.0-0.3","5f6fef703fc43e99a2f09b8233f71aa8ab1dc4de4dca4405c1d79fc609197b01","swim","arctic","2583","","E6","0","","","","arctic-engagement","","","","","","","","","","","","","","1","enjoyment","",""
"html-button-response","79","2355736","0.0-7.0-2.0-5.0-0.4","5f6fef703fc43e99a2f09b8233f71aa8ab1dc4de4dca4405c1d79fc609197b01","swim","arctic","3368","","A3","1","","","","arctic-engagement","","","","","","","","","","","","","","2","absorption","",""
"html-button-response","80","2358656","0.0-7.0-2.0-5.0-0.5","5f6fef703fc43e99a2f09b8233f71aa8ab1dc4de4dca4405c1d79fc609197b01","swim","arctic","2662","","EE5","4","","","","arctic-engagement","","","","","","","","","","","","","","5","emo-engage","",""
"html-button-response","81","2361365","0.0-7.0-2.0-5.0-0.6","5f6fef703fc43e99a2f09b8233f71aa8ab1dc4de4dca4405c1d79fc609197b01","swim","arctic","2449","","E8","1","","","","arctic-engagement","","","","","","","","","","","","","","2","enjoyment","",""
"html-button-response","82","2363600","0.0-7.0-2.0-5.0-0.7","5f6fef703fc43e99a2f09b8233f71aa8ab1dc4de4dca4405c1d79fc609197b01","swim","arctic","1981","","EE3","0","","","","arctic-engagement","","","","","","","","","","","","","","1","emo-engage","",""
"html-button-response","83","2367677","0.0-7.0-2.0-5.0-0.8","5f6fef703fc43e99a2f09b8233f71aa8ab1dc4de4dca4405c1d79fc609197b01","swim","arctic","3820","","MS3","3","","","","arctic-engagement","","","","","","","","","","","","","","4","mental-sim","",""
"html-button-response","84","2374913","0.0-7.0-2.0-5.0-0.9","5f6fef703fc43e99a2f09b8233f71aa8ab1dc4de4dca4405c1d79fc609197b01","swim","arctic","6984","","EE1","2","","","","arctic-engagement","","","","","","","","","","","","","","3","emo-engage","",""
"html-button-response","85","2379628","0.0-7.0-2.0-5.0-0.10","5f6fef703fc43e99a2f09b8233f71aa8ab1dc4de4dca4405c1d79fc609197b01","swim","arctic","4461","","MS2","1","","","","arctic-engagement","","","","","","","","","","","","","","2","mental-sim","",""
"html-button-response","86","2383160","0.0-7.0-2.0-5.0-0.11","5f6fef703fc43e99a2f09b8233f71aa8ab1dc4de4dca4405c1d79fc609197b01","swim","arctic","3271","","E7","6","","","","arctic-engagement","","","","","","","","","","","","","","7","enjoyment","",""
"html-button-response","87","2385697","0.0-7.0-2.0-5.0-0.12","5f6fef703fc43e99a2f09b8233f71aa8ab1dc4de4dca4405c1d79fc609197b01","swim","arctic","2282","","E10","0","","","","arctic-engagement","","","","","","","","","","","","","","1","enjoyment","",""
"html-button-response","88","2388732","0.0-7.0-2.0-5.0-0.13","5f6fef703fc43e99a2f09b8233f71aa8ab1dc4de4dca4405c1d79fc609197b01","swim","arctic","2781","","E1","1","","","","arctic-engagement","","","","","","","","","","","","","","2","enjoyment","",""
"html-button-response","89","2391461","0.0-7.0-2.0-5.0-0.14","5f6fef703fc43e99a2f09b8233f71aa8ab1dc4de4dca4405c1d79fc609197b01","swim","arctic","2474","","EE2","4","","","","arctic-engagement","","","","","","","","","","","","","","5","emo-engage","",""
"html-button-response","90","2396130","0.0-7.0-2.0-5.0-0.15","5f6fef703fc43e99a2f09b8233f71aa8ab1dc4de4dca4405c1d79fc609197b01","swim","arctic","4414","","A5","2","","","","arctic-engagement","","","","","","","","","","","","","","3","absorption","",""
"html-button-response","91","2400954","0.0-7.0-2.0-5.0-0.16","5f6fef703fc43e99a2f09b8233f71aa8ab1dc4de4dca4405c1d79fc609197b01","swim","arctic","4562","","A4","2","","","","arctic-engagement","","","","","","","","","","","","","","3","absorption","",""
"html-button-response","92","2404796","0.0-7.0-2.0-5.0-0.17","5f6fef703fc43e99a2f09b8233f71aa8ab1dc4de4dca4405c1d79fc609197b01","swim","arctic","3586","","MS1","5","","","","arctic-engagement","","","","","","","","","","","","","","6","mental-sim","",""
"html-button-response","93","2407709","0.0-8.0","5f6fef703fc43e99a2f09b8233f71aa8ab1dc4de4dca4405c1d79fc609197b01","swim","arctic","2656","","<p>Thank you for your responses.</p><p>You will now answer some demographic, hearing, and general health questions.</p>","0","","","","","","","","","","","","","","","","","","","","",""
"survey-multi-choice","94","2413426","0.0-9.0-0.0","5f6fef703fc43e99a2f09b8233f71aa8ab1dc4de4dca4405c1d79fc609197b01","swim","arctic","5711","","","","","","","survey","","","","","","","","","","","","","{""Q0"":""Chrome""}","","","browser",""
"survey-text","95","2418060","0.0-9.0-1.0","5f6fef703fc43e99a2f09b8233f71aa8ab1dc4de4dca4405c1d79fc609197b01","swim","arctic","4371.400000095367","","","","","","","survey","","","","","","","","","","","","","{""AGE"":""35""}","","","age","35"
"survey-multi-choice","96","2422362","0.0-9.0-2.0","5f6fef703fc43e99a2f09b8233f71aa8ab1dc4de4dca4405c1d79fc609197b01","swim","arctic","4044","","","","","","","survey","","","","","","","","","","","","","{""Q0"":""Female""}","","","gender","Female"
"survey-multi-choice","97","2426916","0.0-9.0-4.0","5f6fef703fc43e99a2f09b8233f71aa8ab1dc4de4dca4405c1d79fc609197b01","swim","arctic","4300","","","","","","","survey","","","","","","","","","","","","","{""Q0"":""Right""}","","","handedness","Right"
"survey-multi-choice","98","2431359","0.0-9.0-5.0","5f6fef703fc43e99a2f09b8233f71aa8ab1dc4de4dca4405c1d79fc609197b01","swim","arctic","4187","","","","","","","survey","","","","","","","","","","","","","{""Q0"":""Bachelor's Degree""}","","","education","Bachelor's Degree"
"survey-text","99","2438196","0.0-10.0-0.0","5f6fef703fc43e99a2f09b8233f71aa8ab1dc4de4dca4405c1d79fc609197b01","swim","arctic","6572.900000095367","","","","","","","survey","","","","","","","","","","","","","{""L1"":""english""}","","","first-language","english"
"survey-text","100","2452288","0.0-10.0-1.0","5f6fef703fc43e99a2f09b8233f71aa8ab1dc4de4dca4405c1d79fc609197b01","swim","arctic","13816.199999809265","","","","","","","survey","","","","","","","","","","","","","{""L2name"":""assyrian"",""L2fluency"":""4"",""L3name"":"""",""L3fluency"":"""",""L4name"":"""",""L4fluency"":""""}","","","additional-languages","{""L2name"":""assyrian"",""L2fluency"":""4"",""L3name"":"""",""L3fluency"":"""",""L4name"":"""",""L4fluency"":""""}"
"survey-multi-choice","101","2457658","0.0-10.0-2.0","5f6fef703fc43e99a2f09b8233f71aa8ab1dc4de4dca4405c1d79fc609197b01","swim","arctic","5103","","","","","","","survey","","","","","","","","","","","","","{""Q0"":""No""}","","","hearing-aid","No"
"survey-multi-choice","102","2462148","0.0-10.0-3.0","5f6fef703fc43e99a2f09b8233f71aa8ab1dc4de4dca4405c1d79fc609197b01","swim","arctic","4227","","","","","","","survey","","","","","","","","","","","","","{""Q0"":""Never""}","","","ringing-ears","Never"
"survey-multi-choice","103","2470021","0.0-10.0-5.0","5f6fef703fc43e99a2f09b8233f71aa8ab1dc4de4dca4405c1d79fc609197b01","swim","arctic","7604","","","","","","","survey","","","","","","","","","","","","","{""Q0"":""No""}","","","neuro-disease","No"
"survey-multi-choice","104","2475271","0.0-10.0-7.0","5f6fef703fc43e99a2f09b8233f71aa8ab1dc4de4dca4405c1d79fc609197b01","swim","arctic","4994","","","","","","","survey","","","","","","","","","","","","","{""Q0"":""No""}","","","take-meds","No"
"survey-text","105","2487577","0.0-10.0-9.0","5f6fef703fc43e99a2f09b8233f71aa8ab1dc4de4dca4405c1d79fc609197b01","swim","arctic","12020.099999904633","","","","","","","survey","","","","","","","","","","","","","{""HC"":""no health problems""}","","","health-concerns","no health problems"
"html-button-response","106","2494411","0.0-11.0-0.0","5f6fef703fc43e99a2f09b8233f71aa8ab1dc4de4dca4405c1d79fc609197b01","swim","arctic","6572","","<p>How would you describe your musical skills/experiences?</p>","3","","","","survey","","","","","","","","","","","","","","","","music-skill","4"
"survey-multi-choice","107","2510582","0.0-11.0-1.0","5f6fef703fc43e99a2f09b8233f71aa8ab1dc4de4dca4405c1d79fc609197b01","swim","arctic","15908","","","","","","","survey","","","","","","","","","","","","","{""Q0"":""No""}","","","music-instrument","No"
"html-button-response","108","2519527","0.0-12.0-0.0","5f6fef703fc43e99a2f09b8233f71aa8ab1dc4de4dca4405c1d79fc609197b01","swim","arctic","8687","","<p>How would you describe your general hearing abilities?</p>","3","","","","survey","","","","","","","","","","","","","","","","ssq-01","4"
"html-button-response","109","2528890","0.0-12.0-1.0","5f6fef703fc43e99a2f09b8233f71aa8ab1dc4de4dca4405c1d79fc609197b01","swim","arctic","9103","","<p>When you talk with someone at a place that strongly reverberates/echoes (e.g., in a church or train station),</br>can you understand what the person says?</p>","8","","","","survey","","","","","","","","","","","","","","","","ssq-02","8"
"html-button-response","110","2533058","0.0-12.0-2.0","5f6fef703fc43e99a2f09b8233f71aa8ab1dc4de4dca4405c1d79fc609197b01","swim","arctic","3911","","<p>When you are with a group (~5 people) in a lively restaurant, can you follow the group's conversation?</p>","10","","","","survey","","","","","","","","","","","","","","","","ssq-03","10"
"html-button-response","111","2541284","0.0-12.0-3.0","5f6fef703fc43e99a2f09b8233f71aa8ab1dc4de4dca4405c1d79fc609197b01","swim","arctic","7963","","<p>Based on the sound of a bus or truck, can you tell whether it is moving towards or away from you?</p>","5","","","","survey","","","","","","","","","","","","","","","","ssq-04","5"
"html-button-response","112","2547976","0.0-12.0-4.0","5f6fef703fc43e99a2f09b8233f71aa8ab1dc4de4dca4405c1d79fc609197b01","swim","arctic","6433","","<p>When you are in an unknown environment, can you tell from which direction a brief sound originates?</p>","8","","","","survey","","","","","","","","","","","","","","","","ssq-05","8"
"html-button-response","113","2553252","0.0-12.0-5.0","5f6fef703fc43e99a2f09b8233f71aa8ab1dc4de4dca4405c1d79fc609197b01","swim","arctic","5013","","<p>Are you able to ignore distracting sounds when you concentrate on a specific aspect of your acoustic surrounding?</p>","7","","","","survey","","","","","","","","","","","","","","","","ssq-06","7"
"fullscreen","114","2554513","0.0-13.0","5f6fef703fc43e99a2f09b8233f71aa8ab1dc4de4dca4405c1d79fc609197b01","swim","arctic","","","","","","","","","true","","","","","","","","","","","","","","","",""
