"trial_type","trial_index","time_elapsed","internal_node_id","ParticipantID","firstStory","scramStory","rt","url","stimulus","button_pressed","key_press","correctRESP","correct","designation","success","letterStim","letterType","ONSET","TIMEOUT","CONDITION","Participant","ONSET_ACTUAL","RT","RESP","ACC","STORY","responses","response","type","surveyQuestion","QRESP"
"pavlovia","0","30","0.0-0.0","a40770080031f58eea6699af8955881a50abb171f6b4b550797844809d2024e0","swim","swim","","","","","","","","","","","","","","","","","","","","","","","","",""
"external-html","1","7727","0.0-1.0","a40770080031f58eea6699af8955881a50abb171f6b4b550797844809d2024e0","swim","swim","6336","consent/consent_updated.html","","","","","","","","","","","","","","","","","","","","","","",""
"html-button-response","2","41508","0.0-2.0-0.0","a40770080031f58eea6699af8955881a50abb171f6b4b550797844809d2024e0","swim","swim","33780","","<p>Before we begin the main task, you will complete a short volume calibration and headphone check.</p><p>Please make sure you are in a quiet listening environment, that you are wearing headphones, and that your computer's volume is turned on.<p></p>","0","","","","","","","","","","","","","","","","","","","","",""
"html-button-response","3","50839","0.0-2.0-1.0","a40770080031f58eea6699af8955881a50abb171f6b4b550797844809d2024e0","swim","swim","9072","","<p>The volume calibration will be first.</p><p>You will hear a thirty-second noise. Please adjust your computer's volume so that this noise is being presented at a comfortable level.<p></p>","0","","","","","","","","","","","","","","","","","","","","",""
"audio-button-response","4","56372","0.0-2.0-2.0","a40770080031f58eea6699af8955881a50abb171f6b4b550797844809d2024e0","swim","swim","5240","","audio/volumetest.mp3","0","","","","","","","","","","","","","","","","","","","","",""
"html-keyboard-response","5","58394","0.0-3.0-0.0","a40770080031f58eea6699af8955881a50abb171f6b4b550797844809d2024e0","swim","swim","2019","","<p>You will now complete a short headphone check.</p><p>On each trial, you will hear three tones. One of these tones will be quieter than the others. Your task is to identify whether the quiet tone occurred first, second, or third.</p><p>There are six trials in total.<p></p><p></p>(Press SPACEBAR to begin)","","32","","","","","","","","","","","","","","","","","","","",""
"html-keyboard-response","6","59163","0.0-3.0-1.0-0.0","a40770080031f58eea6699af8955881a50abb171f6b4b550797844809d2024e0","swim","swim","null","","<div style=""font-size:60px;"">+</div>","","null","","","","","","","","","","","","","","","","","","","",""
"audio-button-response","7","88427","0.0-3.0-1.0-1.0","a40770080031f58eea6699af8955881a50abb171f6b4b550797844809d2024e0","swim","swim","29261","","audio/t3_2.mp3","1","","2","0","headphone-test","","","","","","","","","","","","","","","","",""
"html-keyboard-response","8","88935","0.0-3.0-1.0-2.0","a40770080031f58eea6699af8955881a50abb171f6b4b550797844809d2024e0","swim","swim","null","","<p>Incorrect</p>","","null","","","","","","","","","","","","","","","","","","","",""
"html-keyboard-response","9","89444","0.0-3.0-1.0-0.1","a40770080031f58eea6699af8955881a50abb171f6b4b550797844809d2024e0","swim","swim","null","","<div style=""font-size:60px;"">+</div>","","null","","","","","","","","","","","","","","","","","","","",""
"audio-button-response","10","95727","0.0-3.0-1.0-1.1","a40770080031f58eea6699af8955881a50abb171f6b4b550797844809d2024e0","swim","swim","6281","","audio/t2_2.mp3","0","","1","0","headphone-test","","","","","","","","","","","","","","","","",""
"html-keyboard-response","11","96234","0.0-3.0-1.0-2.1","a40770080031f58eea6699af8955881a50abb171f6b4b550797844809d2024e0","swim","swim","null","","<p>Incorrect</p>","","null","","","","","","","","","","","","","","","","","","","",""
"html-keyboard-response","12","96744","0.0-3.0-1.0-0.2","a40770080031f58eea6699af8955881a50abb171f6b4b550797844809d2024e0","swim","swim","null","","<div style=""font-size:60px;"">+</div>","","null","","","","","","","","","","","","","","","","","","","",""
"audio-button-response","13","101075","0.0-3.0-1.0-1.2","a40770080031f58eea6699af8955881a50abb171f6b4b550797844809d2024e0","swim","swim","4329","","audio/t1_1.mp3","1","","0","0","headphone-test","","","","","","","","","","","","","","","","",""
"html-keyboard-response","14","101588","0.0-3.0-1.0-2.2","a40770080031f58eea6699af8955881a50abb171f6b4b550797844809d2024e0","swim","swim","null","","<p>Incorrect</p>","","null","","","","","","","","","","","","","","","","","","","",""
"html-keyboard-response","15","102094","0.0-3.0-1.0-0.3","a40770080031f58eea6699af8955881a50abb171f6b4b550797844809d2024e0","swim","swim","null","","<div style=""font-size:60px;"">+</div>","","null","","","","","","","","","","","","","","","","","","","",""
"audio-button-response","16","107193","0.0-3.0-1.0-1.3","a40770080031f58eea6699af8955881a50abb171f6b4b550797844809d2024e0","swim","swim","5096","","audio/t3_1.mp3","2","","2","1","headphone-test","","","","","","","","","","","","","","","","",""
"html-keyboard-response","17","107701","0.0-3.0-1.0-2.3","a40770080031f58eea6699af8955881a50abb171f6b4b550797844809d2024e0","swim","swim","null","","<p>Correct</p>","","null","","","","","","","","","","","","","","","","","","","",""
"html-keyboard-response","18","108204","0.0-3.0-1.0-0.4","a40770080031f58eea6699af8955881a50abb171f6b4b550797844809d2024e0","swim","swim","null","","<div style=""font-size:60px;"">+</div>","","null","","","","","","","","","","","","","","","","","","","",""
"audio-button-response","19","112407","0.0-3.0-1.0-1.4","a40770080031f58eea6699af8955881a50abb171f6b4b550797844809d2024e0","swim","swim","4201","","audio/t1_2.mp3","2","","0","0","headphone-test","","","","","","","","","","","","","","","","",""
"html-keyboard-response","20","112914","0.0-3.0-1.0-2.4","a40770080031f58eea6699af8955881a50abb171f6b4b550797844809d2024e0","swim","swim","null","","<p>Incorrect</p>","","null","","","","","","","","","","","","","","","","","","","",""
"html-keyboard-response","21","113423","0.0-3.0-1.0-0.5","a40770080031f58eea6699af8955881a50abb171f6b4b550797844809d2024e0","swim","swim","null","","<div style=""font-size:60px;"">+</div>","","null","","","","","","","","","","","","","","","","","","","",""
"audio-button-response","22","117721","0.0-3.0-1.0-1.5","a40770080031f58eea6699af8955881a50abb171f6b4b550797844809d2024e0","swim","swim","4295","","audio/t2_1.mp3","1","","1","1","headphone-test","","","","","","","","","","","","","","","","",""
"html-keyboard-response","23","118225","0.0-3.0-1.0-2.5","a40770080031f58eea6699af8955881a50abb171f6b4b550797844809d2024e0","swim","swim","null","","<p>Correct</p>","","null","","","","","","","","","","","","","","","","","","","",""
"fullscreen","24","123124","0.0-4.0","a40770080031f58eea6699af8955881a50abb171f6b4b550797844809d2024e0","swim","swim","","","","","","","","","true","","","","","","","","","","","","","","","",""
"html-button-response","25","142599","0.0-5.0-0.0","a40770080031f58eea6699af8955881a50abb171f6b4b550797844809d2024e0","swim","swim","19475","","<p>There are two blocks to this experiment.</p><p>In each block, you will hear a ~13.5 minute story. One of the stories will be scrambled. Please listen carefully to both stories and understand them as best you can.</p><p>After each story, you will be asked some questions to assess your comprehension.</p>","0","","","","","","","","","","","","","","","","","","","","",""
"html-button-response","26","159187","0.0-5.0-1.0","a40770080031f58eea6699af8955881a50abb171f6b4b550797844809d2024e0","swim","swim","16588","","<p>During each story, there will be an additional task.</p><p>A letter will occasionally appear on the screen.</br>Your job is to - as quickly as you can - decide whether the letter is lowercase or uppercase and press one of two keys on the keyboard:</p><p>If the letter is <b>lowercase</b>, press key &lt;<b>x</b>&gt;.</p><p>If the letter is <b>uppercase</b>, press key &lt;<b>m</b>&gt;.</p>","0","","","","","","","","","","","","","","","","","","","","",""
"html-keyboard-response","27","172729","0.0-5.0-2.0","a40770080031f58eea6699af8955881a50abb171f6b4b550797844809d2024e0","swim","swim","13541","","<p>Because we want your responses to be as quick as possible, please keep your index fingers over the keys while listening.</p><p>Each block lasts about 20 minutes.</p><p><b>Press &lt;x&gt; or &lt;m&gt; to start the first block!</b></p>","","88","","","","","","","","","","","","","","","","","","","",""
"html-keyboard-response","28","173239","0.0-7.0-0.0-0.0","a40770080031f58eea6699af8955881a50abb171f6b4b550797844809d2024e0","swim","swim","null","","<div style=""font-size:60px;"" tabindex=""0"">+</div>","","null","","","","","","","","","","","","","","","","","","","",""
"dual-task","null","null","null","","swim","swim","NA","","F","null","NA","77","0","swim-dual-task","","F","uppercase","16000","1","4","a40770080031f58eea6699af8955881a50abb171f6b4b550797844809d2024e0","16014.29999999702","NA","NA","0","swim","","","","",""
"dual-task","null","null","null","","swim","swim","NA","","h","null","NA","88","0","swim-dual-task","","h","lowercase","22000","1","4","a40770080031f58eea6699af8955881a50abb171f6b4b550797844809d2024e0","22013.20000000298","NA","NA","0","swim","","","","",""
"dual-task","null","null","null","","swim","swim","NA","","d","null","NA","88","0","swim-dual-task","","d","lowercase","36000","1","4","a40770080031f58eea6699af8955881a50abb171f6b4b550797844809d2024e0","36003.40000000596","NA","NA","0","swim","","","","",""
"dual-task","null","null","null","","swim","swim","NA","","n","null","NA","88","0","swim-dual-task","","n","lowercase","46000","1","4","a40770080031f58eea6699af8955881a50abb171f6b4b550797844809d2024e0","46012.5","NA","NA","0","swim","","","","",""
"dual-task","null","null","null","","swim","swim","NA","","A","null","NA","77","0","swim-dual-task","","A","uppercase","52000","1","4","a40770080031f58eea6699af8955881a50abb171f6b4b550797844809d2024e0","52002.5","NA","NA","0","swim","","","","",""
"dual-task","null","null","null","","swim","swim","916","","g","null","88","88","1","swim-dual-task","","g","lowercase","60000","0","4","a40770080031f58eea6699af8955881a50abb171f6b4b550797844809d2024e0","60002.59999999404","916","88","1","swim","","","","",""
"dual-task","null","null","null","","swim","swim","NA","","R","null","NA","77","0","swim-dual-task","","R","uppercase","70000","1","4","a40770080031f58eea6699af8955881a50abb171f6b4b550797844809d2024e0","70002.90000000596","NA","NA","0","swim","","","","",""
"dual-task","null","null","null","","swim","swim","556","","E","null","88","77","0","swim-dual-task","","E","uppercase","84000","0","4","a40770080031f58eea6699af8955881a50abb171f6b4b550797844809d2024e0","84002.5","556","88","0","swim","","","","",""
"dual-task","null","null","null","","swim","swim","NA","","b","null","NA","88","0","swim-dual-task","","b","lowercase","90000","1","4","a40770080031f58eea6699af8955881a50abb171f6b4b550797844809d2024e0","90002.40000000596","NA","NA","0","swim","","","","",""
"dual-task","null","null","null","","swim","swim","NA","","q","null","NA","88","0","swim-dual-task","","q","lowercase","102000","1","4","a40770080031f58eea6699af8955881a50abb171f6b4b550797844809d2024e0","102002.5","NA","NA","0","swim","","","","",""
"dual-task","null","null","null","","swim","swim","608","","d","null","88","88","1","swim-dual-task","","d","lowercase","114000","0","4","a40770080031f58eea6699af8955881a50abb171f6b4b550797844809d2024e0","114002.5","608","88","1","swim","","","","",""
"dual-task","null","null","null","","swim","swim","NA","","G","null","NA","77","0","swim-dual-task","","G","uppercase","122000","1","4","a40770080031f58eea6699af8955881a50abb171f6b4b550797844809d2024e0","122002.70000000298","NA","NA","0","swim","","","","",""
"dual-task","null","null","null","","swim","swim","NA","","N","null","NA","77","0","swim-dual-task","","N","uppercase","130000","1","4","a40770080031f58eea6699af8955881a50abb171f6b4b550797844809d2024e0","130002.90000000596","NA","NA","0","swim","","","","",""
"dual-task","null","null","null","","swim","swim","NA","","N","null","NA","77","0","swim-dual-task","","N","uppercase","142000","1","4","a40770080031f58eea6699af8955881a50abb171f6b4b550797844809d2024e0","142005","NA","NA","0","swim","","","","",""
"dual-task","null","null","null","","swim","swim","1575.4000000059605","","d","null","88","88","1","swim-dual-task","","d","lowercase","148000","0","4","a40770080031f58eea6699af8955881a50abb171f6b4b550797844809d2024e0","148002.5","1575.4000000059605","88","1","swim","","","","",""
"dual-task","null","null","null","","swim","swim","1597.3999999910593","","b","null","88","88","1","swim-dual-task","","b","lowercase","158000","0","4","a40770080031f58eea6699af8955881a50abb171f6b4b550797844809d2024e0","158002.5","1597.3999999910593","88","1","swim","","","","",""
"dual-task","null","null","null","","swim","swim","969.5999999940395","","n","null","88","88","1","swim-dual-task","","n","lowercase","166000","0","4","a40770080031f58eea6699af8955881a50abb171f6b4b550797844809d2024e0","166012.29999999702","969.5999999940395","88","1","swim","","","","",""
"dual-task","null","null","null","","swim","swim","723.2999999970198","","R","null","77","77","1","swim-dual-task","","R","uppercase","180000","0","4","a40770080031f58eea6699af8955881a50abb171f6b4b550797844809d2024e0","180002.70000000298","723.2999999970198","77","1","swim","","","","",""
"dual-task","null","null","null","","swim","swim","688.6000000089407","","e","null","88","88","1","swim-dual-task","","e","lowercase","192000","0","4","a40770080031f58eea6699af8955881a50abb171f6b4b550797844809d2024e0","192002.70000000298","688.6000000089407","88","1","swim","","","","",""
"dual-task","null","null","null","","swim","swim","988.5","","r","null","88","88","1","swim-dual-task","","r","lowercase","200000","0","4","a40770080031f58eea6699af8955881a50abb171f6b4b550797844809d2024e0","200002.59999999404","988.5","88","1","swim","","","","",""
"dual-task","null","null","null","","swim","swim","687","","N","null","77","77","1","swim-dual-task","","N","uppercase","206000","0","4","a40770080031f58eea6699af8955881a50abb171f6b4b550797844809d2024e0","206012.5","687","77","1","swim","","","","",""
"dual-task","null","null","null","","swim","swim","747.3000000119209","","q","null","88","88","1","swim-dual-task","","q","lowercase","216000","0","4","a40770080031f58eea6699af8955881a50abb171f6b4b550797844809d2024e0","216002.5","747.3000000119209","88","1","swim","","","","",""
"dual-task","null","null","null","","swim","swim","675.6999999880791","","T","null","77","77","1","swim-dual-task","","T","uppercase","222000","0","4","a40770080031f58eea6699af8955881a50abb171f6b4b550797844809d2024e0","222001.70000000298","675.6999999880791","77","1","swim","","","","",""
"dual-task","null","null","null","","swim","swim","603.5","","a","null","88","88","1","swim-dual-task","","a","lowercase","232000","0","4","a40770080031f58eea6699af8955881a50abb171f6b4b550797844809d2024e0","232002.40000000596","603.5","88","1","swim","","","","",""
"dual-task","null","null","null","","swim","swim","1303.2999999970198","","Q","null","77","77","1","swim-dual-task","","Q","uppercase","244000","0","4","a40770080031f58eea6699af8955881a50abb171f6b4b550797844809d2024e0","244002.79999999702","1303.2999999970198","77","1","swim","","","","",""
"dual-task","null","null","null","","swim","swim","755","","g","null","88","88","1","swim-dual-task","","g","lowercase","250000","0","4","a40770080031f58eea6699af8955881a50abb171f6b4b550797844809d2024e0","250003","755","88","1","swim","","","","",""
"dual-task","null","null","null","","swim","swim","1048.7999999970198","","h","null","88","88","1","swim-dual-task","","h","lowercase","262000","0","4","a40770080031f58eea6699af8955881a50abb171f6b4b550797844809d2024e0","262003.90000000596","1048.7999999970198","88","1","swim","","","","",""
"dual-task","null","null","null","","swim","swim","749","","f","null","88","88","1","swim-dual-task","","f","lowercase","272000","0","4","a40770080031f58eea6699af8955881a50abb171f6b4b550797844809d2024e0","272002.799999997","749","88","1","swim","","","","",""
"dual-task","null","null","null","","swim","swim","1557.7999999970198","","r","null","88","88","1","swim-dual-task","","r","lowercase","278000","0","4","a40770080031f58eea6699af8955881a50abb171f6b4b550797844809d2024e0","278002.09999999404","1557.7999999970198","88","1","swim","","","","",""
"dual-task","null","null","null","","swim","swim","759.8999999910593","","d","null","88","88","1","swim-dual-task","","d","lowercase","292000","0","4","a40770080031f58eea6699af8955881a50abb171f6b4b550797844809d2024e0","292014.200000003","759.8999999910593","88","1","swim","","","","",""
"dual-task","null","null","null","","swim","swim","815.9000000059605","","F","null","77","77","1","swim-dual-task","","F","uppercase","304000","0","4","a40770080031f58eea6699af8955881a50abb171f6b4b550797844809d2024e0","304003.90000000596","815.9000000059605","77","1","swim","","","","",""
"dual-task","null","null","null","","swim","swim","841.4000000059605","","A","null","77","77","1","swim-dual-task","","A","uppercase","316000","0","4","a40770080031f58eea6699af8955881a50abb171f6b4b550797844809d2024e0","316002.799999997","841.4000000059605","77","1","swim","","","","",""
"dual-task","null","null","null","","swim","swim","1111.800000011921","","E","null","77","77","1","swim-dual-task","","E","uppercase","324000","0","4","a40770080031f58eea6699af8955881a50abb171f6b4b550797844809d2024e0","324004","1111.800000011921","77","1","swim","","","","",""
"dual-task","null","null","null","","swim","swim","838","","B","null","77","77","1","swim-dual-task","","B","uppercase","336000","0","4","a40770080031f58eea6699af8955881a50abb171f6b4b550797844809d2024e0","336002.09999999404","838","77","1","swim","","","","",""
"dual-task","null","null","null","","swim","swim","764.9000000059605","","E","null","77","77","1","swim-dual-task","","E","uppercase","346000","0","4","a40770080031f58eea6699af8955881a50abb171f6b4b550797844809d2024e0","346000.90000000596","764.9000000059605","77","1","swim","","","","",""
"dual-task","null","null","null","","swim","swim","679.1000000089407","","e","null","88","88","1","swim-dual-task","","e","lowercase","360000","0","4","a40770080031f58eea6699af8955881a50abb171f6b4b550797844809d2024e0","360001.799999997","679.1000000089407","88","1","swim","","","","",""
"dual-task","null","null","null","","swim","swim","890.2000000029802","","H","null","88","77","0","swim-dual-task","","H","uppercase","368000","0","4","a40770080031f58eea6699af8955881a50abb171f6b4b550797844809d2024e0","368001.799999997","890.2000000029802","88","0","swim","","","","",""
"dual-task","null","null","null","","swim","swim","768.6999999880791","","F","null","77","77","1","swim-dual-task","","F","uppercase","378000","0","4","a40770080031f58eea6699af8955881a50abb171f6b4b550797844809d2024e0","378002.09999999404","768.6999999880791","77","1","swim","","","","",""
"dual-task","null","null","null","","swim","swim","645.5","","D","null","77","77","1","swim-dual-task","","D","uppercase","386000","0","4","a40770080031f58eea6699af8955881a50abb171f6b4b550797844809d2024e0","386001.799999997","645.5","77","1","swim","","","","",""
"dual-task","null","null","null","","swim","swim","794.5","","G","null","77","77","1","swim-dual-task","","G","uppercase","398000","0","4","a40770080031f58eea6699af8955881a50abb171f6b4b550797844809d2024e0","398012","794.5","77","1","swim","","","","",""
"dual-task","null","null","null","","swim","swim","NA","","D","null","NA","77","0","swim-dual-task","","D","uppercase","408000","1","4","a40770080031f58eea6699af8955881a50abb171f6b4b550797844809d2024e0","408001.799999997","NA","NA","0","swim","","","","",""
"dual-task","null","null","null","","swim","swim","765.2999999970198","","q","null","88","88","1","swim-dual-task","","q","lowercase","418000","0","4","a40770080031f58eea6699af8955881a50abb171f6b4b550797844809d2024e0","418002.799999997","765.2999999970198","88","1","swim","","","","",""
"dual-task","null","null","null","","swim","swim","NA","","Q","null","NA","77","0","swim-dual-task","","Q","uppercase","426000","1","4","a40770080031f58eea6699af8955881a50abb171f6b4b550797844809d2024e0","426001.799999997","NA","NA","0","swim","","","","",""
"dual-task","null","null","null","","swim","swim","651.5999999940395","","A","null","88","77","0","swim-dual-task","","A","uppercase","432000","0","4","a40770080031f58eea6699af8955881a50abb171f6b4b550797844809d2024e0","432002.799999997","651.5999999940395","88","0","swim","","","","",""
"dual-task","null","null","null","","swim","swim","880.5","","n","null","88","88","1","swim-dual-task","","n","lowercase","440000","0","4","a40770080031f58eea6699af8955881a50abb171f6b4b550797844809d2024e0","440001.799999997","880.5","88","1","swim","","","","",""
"dual-task","null","null","null","","swim","swim","867.6000000089407","","f","null","88","88","1","swim-dual-task","","f","lowercase","448000","0","4","a40770080031f58eea6699af8955881a50abb171f6b4b550797844809d2024e0","448001.90000000596","867.6000000089407","88","1","swim","","","","",""
"dual-task","null","null","null","","swim","swim","675.5999999940395","","T","null","77","77","1","swim-dual-task","","T","uppercase","458000","0","4","a40770080031f58eea6699af8955881a50abb171f6b4b550797844809d2024e0","458003","675.5999999940395","77","1","swim","","","","",""
"dual-task","null","null","null","","swim","swim","1009.2999999970198","","t","null","88","88","1","swim-dual-task","","t","lowercase","472000","0","4","a40770080031f58eea6699af8955881a50abb171f6b4b550797844809d2024e0","472003.09999999404","1009.2999999970198","88","1","swim","","","","",""
"dual-task","null","null","null","","swim","swim","799.0999999940395","","e","null","88","88","1","swim-dual-task","","e","lowercase","484000","0","4","a40770080031f58eea6699af8955881a50abb171f6b4b550797844809d2024e0","484003.90000000596","799.0999999940395","88","1","swim","","","","",""
"dual-task","null","null","null","","swim","swim","690.7999999970198","","t","null","88","88","1","swim-dual-task","","t","lowercase","492000","0","4","a40770080031f58eea6699af8955881a50abb171f6b4b550797844809d2024e0","492002.200000003","690.7999999970198","88","1","swim","","","","",""
"dual-task","null","null","null","","swim","swim","673.3999999910593","","H","null","77","77","1","swim-dual-task","","H","uppercase","502000","0","4","a40770080031f58eea6699af8955881a50abb171f6b4b550797844809d2024e0","502001.59999999404","673.3999999910593","77","1","swim","","","","",""
"dual-task","null","null","null","","swim","swim","662.5","","G","null","77","77","1","swim-dual-task","","G","uppercase","514000","0","4","a40770080031f58eea6699af8955881a50abb171f6b4b550797844809d2024e0","514002.200000003","662.5","77","1","swim","","","","",""
"dual-task","null","null","null","","swim","swim","660.5999999940395","","N","null","77","77","1","swim-dual-task","","N","uppercase","526000","0","4","a40770080031f58eea6699af8955881a50abb171f6b4b550797844809d2024e0","526002.200000003","660.5999999940395","77","1","swim","","","","",""
"dual-task","null","null","null","","swim","swim","870.2000000029802","","t","null","88","88","1","swim-dual-task","","t","lowercase","538000","0","4","a40770080031f58eea6699af8955881a50abb171f6b4b550797844809d2024e0","538012.599999994","870.2000000029802","88","1","swim","","","","",""
"dual-task","null","null","null","","swim","swim","1124.2000000029802","","Q","null","77","77","1","swim-dual-task","","Q","uppercase","548000","0","4","a40770080031f58eea6699af8955881a50abb171f6b4b550797844809d2024e0","548005.900000006","1124.2000000029802","77","1","swim","","","","",""
"dual-task","null","null","null","","swim","swim","781.7000000029802","","B","null","77","77","1","swim-dual-task","","B","uppercase","560000","0","4","a40770080031f58eea6699af8955881a50abb171f6b4b550797844809d2024e0","560001.900000006","781.7000000029802","77","1","swim","","","","",""
"dual-task","null","null","null","","swim","swim","662.5999999940395","","a","null","88","88","1","swim-dual-task","","a","lowercase","570000","0","4","a40770080031f58eea6699af8955881a50abb171f6b4b550797844809d2024e0","570011.400000006","662.5999999940395","88","1","swim","","","","",""
"dual-task","null","null","null","","swim","swim","821.7999999970198","","R","null","77","77","1","swim-dual-task","","R","uppercase","576000","0","4","a40770080031f58eea6699af8955881a50abb171f6b4b550797844809d2024e0","576002.599999994","821.7999999970198","77","1","swim","","","","",""
"dual-task","null","null","null","","swim","swim","956","","r","null","88","88","1","swim-dual-task","","r","lowercase","584000","0","4","a40770080031f58eea6699af8955881a50abb171f6b4b550797844809d2024e0","584002","956","88","1","swim","","","","",""
"dual-task","null","null","null","","swim","swim","990.6000000089407","","R","null","77","77","1","swim-dual-task","","R","uppercase","596000","0","4","a40770080031f58eea6699af8955881a50abb171f6b4b550797844809d2024e0","596001.700000003","990.6000000089407","77","1","swim","","","","",""
"dual-task","null","null","null","","swim","swim","627.5","","g","null","88","88","1","swim-dual-task","","g","lowercase","608000","0","4","a40770080031f58eea6699af8955881a50abb171f6b4b550797844809d2024e0","608002.200000003","627.5","88","1","swim","","","","",""
"dual-task","null","null","null","","swim","swim","943.2999999970198","","D","null","77","77","1","swim-dual-task","","D","uppercase","618000","0","4","a40770080031f58eea6699af8955881a50abb171f6b4b550797844809d2024e0","618002.900000006","943.2999999970198","77","1","swim","","","","",""
"dual-task","null","null","null","","swim","swim","NA","","E","null","NA","77","0","swim-dual-task","","E","uppercase","626000","1","4","a40770080031f58eea6699af8955881a50abb171f6b4b550797844809d2024e0","626001.299999997","NA","NA","0","swim","","","","",""
"dual-task","null","null","null","","swim","swim","572.5","","h","null","88","88","1","swim-dual-task","","h","lowercase","638000","0","4","a40770080031f58eea6699af8955881a50abb171f6b4b550797844809d2024e0","638003.599999994","572.5","88","1","swim","","","","",""
"dual-task","null","null","null","","swim","swim","NA","","e","null","NA","88","0","swim-dual-task","","e","lowercase","644000","1","4","a40770080031f58eea6699af8955881a50abb171f6b4b550797844809d2024e0","644001.400000006","NA","NA","0","swim","","","","",""
"dual-task","null","null","null","","swim","swim","NA","","a","null","NA","88","0","swim-dual-task","","a","lowercase","658000","1","4","a40770080031f58eea6699af8955881a50abb171f6b4b550797844809d2024e0","658001.200000003","NA","NA","0","swim","","","","",""
"dual-task","null","null","null","","swim","swim","743.2000000029802","","G","null","77","77","1","swim-dual-task","","G","uppercase","668000","0","4","a40770080031f58eea6699af8955881a50abb171f6b4b550797844809d2024e0","668001.799999997","743.2000000029802","77","1","swim","","","","",""
"dual-task","null","null","null","","swim","swim","810.5","","H","null","77","77","1","swim-dual-task","","H","uppercase","678000","0","4","a40770080031f58eea6699af8955881a50abb171f6b4b550797844809d2024e0","678003.700000003","810.5","77","1","swim","","","","",""
"dual-task","null","null","null","","swim","swim","655.0999999940395","","D","null","77","77","1","swim-dual-task","","D","uppercase","686000","0","4","a40770080031f58eea6699af8955881a50abb171f6b4b550797844809d2024e0","686003.799999997","655.0999999940395","77","1","swim","","","","",""
"dual-task","null","null","null","","swim","swim","1101.9000000059605","","A","null","77","77","1","swim-dual-task","","A","uppercase","698000","0","4","a40770080031f58eea6699af8955881a50abb171f6b4b550797844809d2024e0","698001.700000003","1101.9000000059605","77","1","swim","","","","",""
"dual-task","null","null","null","","swim","swim","606.6000000089407","","T","null","77","77","1","swim-dual-task","","T","uppercase","706000","0","4","a40770080031f58eea6699af8955881a50abb171f6b4b550797844809d2024e0","706002.200000003","606.6000000089407","77","1","swim","","","","",""
"dual-task","null","null","null","","swim","swim","714.1999999880791","","b","null","88","88","1","swim-dual-task","","b","lowercase","714000","0","4","a40770080031f58eea6699af8955881a50abb171f6b4b550797844809d2024e0","714001.799999997","714.1999999880791","88","1","swim","","","","",""
"dual-task","null","null","null","","swim","swim","1102.4000000059605","","Q","null","88","77","0","swim-dual-task","","Q","uppercase","728000","0","4","a40770080031f58eea6699af8955881a50abb171f6b4b550797844809d2024e0","728001.099999994","1102.4000000059605","88","0","swim","","","","",""
"dual-task","null","null","null","","swim","swim","869.2999999970198","","B","null","77","77","1","swim-dual-task","","B","uppercase","738000","0","4","a40770080031f58eea6699af8955881a50abb171f6b4b550797844809d2024e0","738001.400000006","869.2999999970198","77","1","swim","","","","",""
"dual-task","null","null","null","","swim","swim","1050.2000000029802","","T","null","77","77","1","swim-dual-task","","T","uppercase","750000","0","4","a40770080031f58eea6699af8955881a50abb171f6b4b550797844809d2024e0","750002.099999994","1050.2000000029802","77","1","swim","","","","",""
"dual-task","null","null","null","","swim","swim","638.2999999970198","","H","null","77","77","1","swim-dual-task","","H","uppercase","758000","0","4","a40770080031f58eea6699af8955881a50abb171f6b4b550797844809d2024e0","758012","638.2999999970198","77","1","swim","","","","",""
"dual-task","null","null","null","","swim","swim","1340.199999988079","","h","null","88","88","1","swim-dual-task","","h","lowercase","764000","0","4","a40770080031f58eea6699af8955881a50abb171f6b4b550797844809d2024e0","764007.700000003","1340.199999988079","88","1","swim","","","","",""
"dual-task","null","null","null","","swim","swim","587.2999999970198","","f","null","88","88","1","swim-dual-task","","f","lowercase","774000","0","4","a40770080031f58eea6699af8955881a50abb171f6b4b550797844809d2024e0","774002.099999994","587.2999999970198","88","1","swim","","","","",""
"dual-task","null","null","null","","swim","swim","1064.2999999970198","","a","null","88","88","1","swim-dual-task","","a","lowercase","780000","0","4","a40770080031f58eea6699af8955881a50abb171f6b4b550797844809d2024e0","780001.900000006","1064.2999999970198","88","1","swim","","","","",""
"dual-task","null","null","null","","swim","swim","701.4000000059605","","f","null","88","88","1","swim-dual-task","","f","lowercase","786000","0","4","a40770080031f58eea6699af8955881a50abb171f6b4b550797844809d2024e0","786001.599999994","701.4000000059605","88","1","swim","","","","",""
"dual-task","null","null","null","","swim","swim","1046.0999999940395","","b","null","88","88","1","swim-dual-task","","b","lowercase","796000","0","4","a40770080031f58eea6699af8955881a50abb171f6b4b550797844809d2024e0","796001.400000006","1046.0999999940395","88","1","swim","","","","",""
"audio-keyboard-response","29","983966","0.0-7.0-0.0-1.0","a40770080031f58eea6699af8955881a50abb171f6b4b550797844809d2024e0","swim","swim","null","","audio/story_swim_scrambled.mp3","","null","","","","","","","","","","","","","","","","","","","",""
"html-button-response","30","1849009","0.0-7.0-0.0-2.0","a40770080031f58eea6699af8955881a50abb171f6b4b550797844809d2024e0","swim","swim","865040","","<p>This concludes the story. Thank you for listening.</p><p>You will now answer some questions about the content of the story.</p>","0","","","","","","","","","","","","","","","","","","","","",""
"survey-multi-choice","31","1946471","0.0-7.0-0.0-3.0-0.0","a40770080031f58eea6699af8955881a50abb171f6b4b550797844809d2024e0","swim","swim","97460","","<b>How many times did the astronaut candidates have to complete the final exercise to pass?</b>","","","","0","swim-comprehension","","","","","","","","","","","","","{""Q0"":""One""}","","","",""
"survey-multi-choice","32","1969539","0.0-7.0-0.0-3.0-0.1","a40770080031f58eea6699af8955881a50abb171f6b4b550797844809d2024e0","swim","swim","22806","","<b>How often does the narrator swim, now that he is a good swimmer?</b>","","","","0","swim-comprehension","","","","","","","","","","","","","{""Q0"":""Every weekend with his kids""}","","","",""
"survey-multi-choice","33","1984597","0.0-7.0-0.0-3.0-0.2","a40770080031f58eea6699af8955881a50abb171f6b4b550797844809d2024e0","swim","swim","14789","","<b>What were the astronaut candidates trained to do at the naval air station?</b>","","","","1","swim-comprehension","","","","","","","","","","","","","{""Q0"":""Eject out of aircraft and survive in water long enough to be rescued""}","","","",""
"survey-multi-choice","34","2085035","0.0-7.0-0.0-3.0-0.3","a40770080031f58eea6699af8955881a50abb171f6b4b550797844809d2024e0","swim","swim","100182","","<b>What is the narrator afraid of, aside from the water?</b>","","","","1","swim-comprehension","","","","","","","","","","","","","{""Q0"":""Heights""}","","","",""
"survey-multi-choice","35","2145181","0.0-7.0-0.0-3.0-0.4","a40770080031f58eea6699af8955881a50abb171f6b4b550797844809d2024e0","swim","swim","59884","","<b>Where is the home of naval aviation?</b>","","","","0","swim-comprehension","","","","","","","","","","","","","{""Q0"":""Dallas""}","","","",""
"survey-multi-choice","36","2149928","0.0-7.0-0.0-3.0-0.5","a40770080031f58eea6699af8955881a50abb171f6b4b550797844809d2024e0","swim","swim","4486","","<b>How did the narrator train for his swim test?</b>","","","","0","swim-comprehension","","","","","","","","","","","","","{""Q0"":""Signed up for a swim class""}","","","",""
"survey-multi-choice","37","2158801","0.0-7.0-0.0-3.0-0.6","a40770080031f58eea6699af8955881a50abb171f6b4b550797844809d2024e0","swim","swim","8594","","<b>How many astronaut candidates passed the first swim test?</b>","","","","1","swim-comprehension","","","","","","","","","","","","","{""Q0"":""All of them""}","","","",""
"survey-multi-choice","38","2170076","0.0-7.0-0.0-3.0-0.7","a40770080031f58eea6699af8955881a50abb171f6b4b550797844809d2024e0","swim","swim","11019","","<b>What was the final step of the first swim test in the pool?</b>","","","","0","swim-comprehension","","","","","","","","","","","","","{""Q0"":""Perform a water rescue""}","","","",""
"survey-multi-choice","39","2189710","0.0-7.0-0.0-3.0-0.8","a40770080031f58eea6699af8955881a50abb171f6b4b550797844809d2024e0","swim","swim","19374","","<b>What gave the narrator his greatest feeling of accomplishment?</b>","","","","1","swim-comprehension","","","","","","","","","","","","","{""Q0"":""Passing the water survival course""}","","","",""
"survey-multi-choice","40","2201670","0.0-7.0-0.0-3.0-0.9","a40770080031f58eea6699af8955881a50abb171f6b4b550797844809d2024e0","swim","swim","11698","","<b>How many astronaut candidates reported for duty at the Johnson Space Center?</b>","","","","1","swim-comprehension","","","","","","","","","","","","","{""Q0"":""Forty-four""}","","","",""
"html-button-response","41","2203454","0.0-7.0-0.0-4.0","a40770080031f58eea6699af8955881a50abb171f6b4b550797844809d2024e0","swim","swim","1531","","<p>Thank you for your responses.</p><p>You will now answer some questions about your impressions of the story.</p>","0","","","","","","","","","","","","","","","","","","","","",""
"html-button-response","42","2212159","0.0-7.0-0.0-5.0-0.0","a40770080031f58eea6699af8955881a50abb171f6b4b550797844809d2024e0","swim","swim","8703","","E1","6","","","","swim-engagement","","","","","","","","","","","","","","7","enjoyment","",""
"html-button-response","43","2215919","0.0-7.0-0.0-5.0-0.1","a40770080031f58eea6699af8955881a50abb171f6b4b550797844809d2024e0","swim","swim","3507","","EE5","6","","","","swim-engagement","","","","","","","","","","","","","","7","emo-engage","",""
"html-button-response","44","2220376","0.0-7.0-0.0-5.0-0.2","a40770080031f58eea6699af8955881a50abb171f6b4b550797844809d2024e0","swim","swim","4205","","MS3","6","","","","swim-engagement","","","","","","","","","","","","","","7","mental-sim","",""
"html-button-response","45","2239754","0.0-7.0-0.0-5.0-0.3","a40770080031f58eea6699af8955881a50abb171f6b4b550797844809d2024e0","swim","swim","19125","","MS2","6","","","","swim-engagement","","","","","","","","","","","","","","7","mental-sim","",""
"html-button-response","46","2242012","0.0-7.0-0.0-5.0-0.4","a40770080031f58eea6699af8955881a50abb171f6b4b550797844809d2024e0","swim","swim","2004","","E7","6","","","","swim-engagement","","","","","","","","","","","","","","7","enjoyment","",""
"html-button-response","47","2244522","0.0-7.0-0.0-5.0-0.5","a40770080031f58eea6699af8955881a50abb171f6b4b550797844809d2024e0","swim","swim","2256","","EE3","6","","","","swim-engagement","","","","","","","","","","","","","","7","emo-engage","",""
"html-button-response","48","2251540","0.0-7.0-0.0-5.0-0.6","a40770080031f58eea6699af8955881a50abb171f6b4b550797844809d2024e0","swim","swim","6766","","A1","6","","","","swim-engagement","","","","","","","","","","","","","","7","absorption","",""
"html-button-response","49","2254342","0.0-7.0-0.0-5.0-0.7","a40770080031f58eea6699af8955881a50abb171f6b4b550797844809d2024e0","swim","swim","2548","","EE4","6","","","","swim-engagement","","","","","","","","","","","","","","7","emo-engage","",""
"html-button-response","50","2256604","0.0-7.0-0.0-5.0-0.8","a40770080031f58eea6699af8955881a50abb171f6b4b550797844809d2024e0","swim","swim","2009","","A4","6","","","","swim-engagement","","","","","","","","","","","","","","7","absorption","",""
"html-button-response","51","2259776","0.0-7.0-0.0-5.0-0.9","a40770080031f58eea6699af8955881a50abb171f6b4b550797844809d2024e0","swim","swim","2918","","A5","6","","","","swim-engagement","","","","","","","","","","","","","","7","absorption","",""
"html-button-response","52","2262844","0.0-7.0-0.0-5.0-0.10","a40770080031f58eea6699af8955881a50abb171f6b4b550797844809d2024e0","swim","swim","2813","","A3","5","","","","swim-engagement","","","","","","","","","","","","","","6","absorption","",""
"html-button-response","53","2264733","0.0-7.0-0.0-5.0-0.11","a40770080031f58eea6699af8955881a50abb171f6b4b550797844809d2024e0","swim","swim","1636","","E6","6","","","","swim-engagement","","","","","","","","","","","","","","7","enjoyment","",""
"html-button-response","54","2268498","0.0-7.0-0.0-5.0-0.12","a40770080031f58eea6699af8955881a50abb171f6b4b550797844809d2024e0","swim","swim","3512","","A2","6","","","","swim-engagement","","","","","","","","","","","","","","7","absorption","",""
"html-button-response","55","2270757","0.0-7.0-0.0-5.0-0.13","a40770080031f58eea6699af8955881a50abb171f6b4b550797844809d2024e0","swim","swim","2006","","EE1","6","","","","swim-engagement","","","","","","","","","","","","","","7","emo-engage","",""
"html-button-response","56","2272342","0.0-7.0-0.0-5.0-0.14","a40770080031f58eea6699af8955881a50abb171f6b4b550797844809d2024e0","swim","swim","1332","","E8","5","","","","swim-engagement","","","","","","","","","","","","","","6","enjoyment","",""
"html-button-response","57","2274530","0.0-7.0-0.0-5.0-0.15","a40770080031f58eea6699af8955881a50abb171f6b4b550797844809d2024e0","swim","swim","1935","","E10","6","","","","swim-engagement","","","","","","","","","","","","","","7","enjoyment","",""
"html-button-response","58","2276164","0.0-7.0-0.0-5.0-0.16","a40770080031f58eea6699af8955881a50abb171f6b4b550797844809d2024e0","swim","swim","1380","","EE2","5","","","","swim-engagement","","","","","","","","","","","","","","6","emo-engage","",""
"html-button-response","59","2278126","0.0-7.0-0.0-5.0-0.17","a40770080031f58eea6699af8955881a50abb171f6b4b550797844809d2024e0","swim","swim","1708","","MS1","5","","","","swim-engagement","","","","","","","","","","","","","","6","mental-sim","",""
"html-keyboard-response","60","2287050","0.0-7.0-1.0","a40770080031f58eea6699af8955881a50abb171f6b4b550797844809d2024e0","swim","swim","8671","","<p>Thank you for your responses. You will now listen to the second story.</p><p>Remember, as you listen to the story you will see letters appear on the screen.</br>As quickly as possible, press <b>&lt;x&gt;</b> if the letter is lowercase and <b>&lt;m&gt;</b> if the letter is uppercase.</p><p>Press <b>&lt;x&gt;</b> or <b>&lt;m&gt;</b> to begin listening!</p>","","88","","","","","","","","","","","","","","","","","","","",""
"html-keyboard-response","61","2287553","0.0-7.0-2.0-0.0","a40770080031f58eea6699af8955881a50abb171f6b4b550797844809d2024e0","swim","swim","null","","<div style=""font-size:60px;"" tabindex=""0"">+</div>","","null","","","","","","","","","","","","","","","","","","","",""
"dual-task","null","null","null","","swim","swim","1221.2000000029802","","H","null","77","77","1","arctic-dual-task","","H","uppercase","16000","0","4","a40770080031f58eea6699af8955881a50abb171f6b4b550797844809d2024e0","16002.59999999404","1221.2000000029802","77","1","arctic","","","","",""
"dual-task","null","null","null","","swim","swim","813","","b","null","88","88","1","arctic-dual-task","","b","lowercase","22000","0","4","a40770080031f58eea6699af8955881a50abb171f6b4b550797844809d2024e0","21999.29999999702","813","88","1","arctic","","","","",""
"dual-task","null","null","null","","swim","swim","851.6000000089407","","R","null","77","77","1","arctic-dual-task","","R","uppercase","30000","0","4","a40770080031f58eea6699af8955881a50abb171f6b4b550797844809d2024e0","29999.09999999404","851.6000000089407","77","1","arctic","","","","",""
"dual-task","null","null","null","","swim","swim","570.2999999970198","","h","null","88","88","1","arctic-dual-task","","h","lowercase","40000","0","4","a40770080031f58eea6699af8955881a50abb171f6b4b550797844809d2024e0","39999.39999999106","570.2999999970198","88","1","arctic","","","","",""
"dual-task","null","null","null","","swim","swim","637.7999999970198","","e","null","88","88","1","arctic-dual-task","","e","lowercase","52000","0","4","a40770080031f58eea6699af8955881a50abb171f6b4b550797844809d2024e0","51999.5","637.7999999970198","88","1","arctic","","","","",""
"dual-task","null","null","null","","swim","swim","690.7999999970198","","D","null","77","77","1","arctic-dual-task","","D","uppercase","60000","0","4","a40770080031f58eea6699af8955881a50abb171f6b4b550797844809d2024e0","59999.39999999106","690.7999999970198","77","1","arctic","","","","",""
"dual-task","null","null","null","","swim","swim","1259.8999999910593","","b","null","88","88","1","arctic-dual-task","","b","lowercase","66000","0","4","a40770080031f58eea6699af8955881a50abb171f6b4b550797844809d2024e0","65999.29999999702","1259.8999999910593","88","1","arctic","","","","",""
"dual-task","null","null","null","","swim","swim","592.6000000089407","","n","null","88","88","1","arctic-dual-task","","n","lowercase","74000","0","4","a40770080031f58eea6699af8955881a50abb171f6b4b550797844809d2024e0","73999.59999999404","592.6000000089407","88","1","arctic","","","","",""
"dual-task","null","null","null","","swim","swim","702.1000000089407","","D","null","77","77","1","arctic-dual-task","","D","uppercase","80000","0","4","a40770080031f58eea6699af8955881a50abb171f6b4b550797844809d2024e0","79999.29999999702","702.1000000089407","77","1","arctic","","","","",""
"dual-task","null","null","null","","swim","swim","1190.199999988079","","g","null","77","88","0","arctic-dual-task","","g","lowercase","94000","0","4","a40770080031f58eea6699af8955881a50abb171f6b4b550797844809d2024e0","94001","1190.199999988079","77","0","arctic","","","","",""
"dual-task","null","null","null","","swim","swim","679.7000000029802","","d","null","88","88","1","arctic-dual-task","","d","lowercase","106000","0","4","a40770080031f58eea6699af8955881a50abb171f6b4b550797844809d2024e0","106008.59999999404","679.7000000029802","88","1","arctic","","","","",""
"dual-task","null","null","null","","swim","swim","706.4000000059605","","f","null","88","88","1","arctic-dual-task","","f","lowercase","118000","0","4","a40770080031f58eea6699af8955881a50abb171f6b4b550797844809d2024e0","118008.70000000298","706.4000000059605","88","1","arctic","","","","",""
"dual-task","null","null","null","","swim","swim","821.7000000029802","","e","null","88","88","1","arctic-dual-task","","e","lowercase","130000","0","4","a40770080031f58eea6699af8955881a50abb171f6b4b550797844809d2024e0","130008.79999999702","821.7000000029802","88","1","arctic","","","","",""
"dual-task","null","null","null","","swim","swim","605.2999999970198","","B","null","77","77","1","arctic-dual-task","","B","uppercase","142000","0","4","a40770080031f58eea6699af8955881a50abb171f6b4b550797844809d2024e0","142009.29999999702","605.2999999970198","77","1","arctic","","","","",""
"dual-task","null","null","null","","swim","swim","718.8000000119209","","e","null","88","88","1","arctic-dual-task","","e","lowercase","156000","0","4","a40770080031f58eea6699af8955881a50abb171f6b4b550797844809d2024e0","156008.79999999702","718.8000000119209","88","1","arctic","","","","",""
"dual-task","null","null","null","","swim","swim","693.5","","F","null","77","77","1","arctic-dual-task","","F","uppercase","162000","0","4","a40770080031f58eea6699af8955881a50abb171f6b4b550797844809d2024e0","162010.39999999106","693.5","77","1","arctic","","","","",""
"dual-task","null","null","null","","swim","swim","732.4000000059605","","f","null","88","88","1","arctic-dual-task","","f","lowercase","176000","0","4","a40770080031f58eea6699af8955881a50abb171f6b4b550797844809d2024e0","176009.29999999702","732.4000000059605","88","1","arctic","","","","",""
"dual-task","null","null","null","","swim","swim","961.2999999970198","","Q","null","77","77","1","arctic-dual-task","","Q","uppercase","184000","0","4","a40770080031f58eea6699af8955881a50abb171f6b4b550797844809d2024e0","184009","961.2999999970198","77","1","arctic","","","","",""
"dual-task","null","null","null","","swim","swim","931.7000000029802","","G","null","77","77","1","arctic-dual-task","","G","uppercase","192000","0","4","a40770080031f58eea6699af8955881a50abb171f6b4b550797844809d2024e0","192008.70000000298","931.7000000029802","77","1","arctic","","","","",""
"dual-task","null","null","null","","swim","swim","598.2999999970198","","Q","null","77","77","1","arctic-dual-task","","Q","uppercase","206000","0","4","a40770080031f58eea6699af8955881a50abb171f6b4b550797844809d2024e0","206008.89999999106","598.2999999970198","77","1","arctic","","","","",""
"dual-task","null","null","null","","swim","swim","1017.7000000029802","","b","null","88","88","1","arctic-dual-task","","b","lowercase","216000","0","4","a40770080031f58eea6699af8955881a50abb171f6b4b550797844809d2024e0","216009.5","1017.7000000029802","88","1","arctic","","","","",""
"dual-task","null","null","null","","swim","swim","592.5999999940395","","T","null","77","77","1","arctic-dual-task","","T","uppercase","226000","0","4","a40770080031f58eea6699af8955881a50abb171f6b4b550797844809d2024e0","226007.79999999702","592.5999999940395","77","1","arctic","","","","",""
"dual-task","null","null","null","","swim","swim","738.1000000089407","","g","null","88","88","1","arctic-dual-task","","g","lowercase","238000","0","4","a40770080031f58eea6699af8955881a50abb171f6b4b550797844809d2024e0","238008.70000000298","738.1000000089407","88","1","arctic","","","","",""
"dual-task","null","null","null","","swim","swim","860.4000000059605","","h","null","88","88","1","arctic-dual-task","","h","lowercase","252000","0","4","a40770080031f58eea6699af8955881a50abb171f6b4b550797844809d2024e0","252008.59999999404","860.4000000059605","88","1","arctic","","","","",""
"dual-task","null","null","null","","swim","swim","771.7000000029802","","f","null","88","88","1","arctic-dual-task","","f","lowercase","262000","0","4","a40770080031f58eea6699af8955881a50abb171f6b4b550797844809d2024e0","262009.20000000298","771.7000000029802","88","1","arctic","","","","",""
"dual-task","null","null","null","","swim","swim","1180","","F","null","77","77","1","arctic-dual-task","","F","uppercase","272000","0","4","a40770080031f58eea6699af8955881a50abb171f6b4b550797844809d2024e0","272009.200000003","1180","77","1","arctic","","","","",""
"dual-task","null","null","null","","swim","swim","1362.4000000059605","","r","null","88","88","1","arctic-dual-task","","r","lowercase","280000","0","4","a40770080031f58eea6699af8955881a50abb171f6b4b550797844809d2024e0","280008.700000003","1362.4000000059605","88","1","arctic","","","","",""
"dual-task","null","null","null","","swim","swim","714","","t","null","88","88","1","arctic-dual-task","","t","lowercase","288000","0","4","a40770080031f58eea6699af8955881a50abb171f6b4b550797844809d2024e0","288008.799999997","714","88","1","arctic","","","","",""
"dual-task","null","null","null","","swim","swim","892.5","","b","null","88","88","1","arctic-dual-task","","b","lowercase","294000","0","4","a40770080031f58eea6699af8955881a50abb171f6b4b550797844809d2024e0","294008.299999997","892.5","88","1","arctic","","","","",""
"dual-task","null","null","null","","swim","swim","692.5999999940395","","T","null","77","77","1","arctic-dual-task","","T","uppercase","302000","0","4","a40770080031f58eea6699af8955881a50abb171f6b4b550797844809d2024e0","302010.799999997","692.5999999940395","77","1","arctic","","","","",""
"dual-task","null","null","null","","swim","swim","650.4000000059605","","N","null","77","77","1","arctic-dual-task","","N","uppercase","308000","0","4","a40770080031f58eea6699af8955881a50abb171f6b4b550797844809d2024e0","308006.89999999106","650.4000000059605","77","1","arctic","","","","",""
"dual-task","null","null","null","","swim","swim","684.8000000119209","","q","null","88","88","1","arctic-dual-task","","q","lowercase","318000","0","4","a40770080031f58eea6699af8955881a50abb171f6b4b550797844809d2024e0","318008.39999999106","684.8000000119209","88","1","arctic","","","","",""
"dual-task","null","null","null","","swim","swim","542.7999999970198","","N","null","77","77","1","arctic-dual-task","","N","uppercase","324000","0","4","a40770080031f58eea6699af8955881a50abb171f6b4b550797844809d2024e0","324009.5","542.7999999970198","77","1","arctic","","","","",""
"dual-task","null","null","null","","swim","swim","622.2000000029802","","e","null","88","88","1","arctic-dual-task","","e","lowercase","330000","0","4","a40770080031f58eea6699af8955881a50abb171f6b4b550797844809d2024e0","330008.09999999404","622.2000000029802","88","1","arctic","","","","",""
"dual-task","null","null","null","","swim","swim","783.0999999940395","","R","null","77","77","1","arctic-dual-task","","R","uppercase","338000","0","4","a40770080031f58eea6699af8955881a50abb171f6b4b550797844809d2024e0","338009","783.0999999940395","77","1","arctic","","","","",""
"dual-task","null","null","null","","swim","swim","962.3999999910593","","E","null","77","77","1","arctic-dual-task","","E","uppercase","348000","0","4","a40770080031f58eea6699af8955881a50abb171f6b4b550797844809d2024e0","348009.89999999106","962.3999999910593","77","1","arctic","","","","",""
"dual-task","null","null","null","","swim","swim","690.9000000059605","","B","null","77","77","1","arctic-dual-task","","B","uppercase","362000","0","4","a40770080031f58eea6699af8955881a50abb171f6b4b550797844809d2024e0","362008.89999999106","690.9000000059605","77","1","arctic","","","","",""
"dual-task","null","null","null","","swim","swim","770.3999999910593","","a","null","88","88","1","arctic-dual-task","","a","lowercase","374000","0","4","a40770080031f58eea6699af8955881a50abb171f6b4b550797844809d2024e0","374000.200000003","770.3999999910593","88","1","arctic","","","","",""
"dual-task","null","null","null","","swim","swim","552.1999999880791","","a","null","88","88","1","arctic-dual-task","","a","lowercase","384000","0","4","a40770080031f58eea6699af8955881a50abb171f6b4b550797844809d2024e0","384009.09999999404","552.1999999880791","88","1","arctic","","","","",""
"dual-task","null","null","null","","swim","swim","919.4000000059605","","A","null","77","77","1","arctic-dual-task","","A","uppercase","390000","0","4","a40770080031f58eea6699af8955881a50abb171f6b4b550797844809d2024e0","390008.89999999106","919.4000000059605","77","1","arctic","","","","",""
"dual-task","null","null","null","","swim","swim","641.1000000089407","","r","null","88","88","1","arctic-dual-task","","r","lowercase","402000","0","4","a40770080031f58eea6699af8955881a50abb171f6b4b550797844809d2024e0","402008.5","641.1000000089407","88","1","arctic","","","","",""
"dual-task","null","null","null","","swim","swim","724.3000000119209","","t","null","88","88","1","arctic-dual-task","","t","lowercase","410000","0","4","a40770080031f58eea6699af8955881a50abb171f6b4b550797844809d2024e0","410007.700000003","724.3000000119209","88","1","arctic","","","","",""
"dual-task","null","null","null","","swim","swim","1219.7999999970198","","g","null","88","88","1","arctic-dual-task","","g","lowercase","416000","0","4","a40770080031f58eea6699af8955881a50abb171f6b4b550797844809d2024e0","416008.59999999404","1219.7999999970198","88","1","arctic","","","","",""
"dual-task","null","null","null","","swim","swim","785.2000000029802","","G","null","77","77","1","arctic-dual-task","","G","uppercase","426000","0","4","a40770080031f58eea6699af8955881a50abb171f6b4b550797844809d2024e0","426005.59999999404","785.2000000029802","77","1","arctic","","","","",""
"dual-task","null","null","null","","swim","swim","628.8999999910593","","n","null","88","88","1","arctic-dual-task","","n","lowercase","434000","0","4","a40770080031f58eea6699af8955881a50abb171f6b4b550797844809d2024e0","434010.09999999404","628.8999999910593","88","1","arctic","","","","",""
"dual-task","null","null","null","","swim","swim","1269","","f","null","88","88","1","arctic-dual-task","","f","lowercase","444000","0","4","a40770080031f58eea6699af8955881a50abb171f6b4b550797844809d2024e0","444008.39999999106","1269","88","1","arctic","","","","",""
"dual-task","null","null","null","","swim","swim","480.69999998807907","","B","null","77","77","1","arctic-dual-task","","B","uppercase","458000","0","4","a40770080031f58eea6699af8955881a50abb171f6b4b550797844809d2024e0","458008.799999997","480.69999998807907","77","1","arctic","","","","",""
"dual-task","null","null","null","","swim","swim","1139.2999999970198","","G","null","77","77","1","arctic-dual-task","","G","uppercase","466000","0","4","a40770080031f58eea6699af8955881a50abb171f6b4b550797844809d2024e0","466010.09999999404","1139.2999999970198","77","1","arctic","","","","",""
"dual-task","null","null","null","","swim","swim","670.5","","g","null","88","88","1","arctic-dual-task","","g","lowercase","478000","0","4","a40770080031f58eea6699af8955881a50abb171f6b4b550797844809d2024e0","478007.700000003","670.5","88","1","arctic","","","","",""
"dual-task","null","null","null","","swim","swim","NA","","E","null","NA","77","0","arctic-dual-task","","E","uppercase","492000","1","4","a40770080031f58eea6699af8955881a50abb171f6b4b550797844809d2024e0","492008.09999999404","NA","NA","0","arctic","","","","",""
"dual-task","null","null","null","","swim","swim","762.3000000119209","","q","null","88","88","1","arctic-dual-task","","q","lowercase","506000","0","4","a40770080031f58eea6699af8955881a50abb171f6b4b550797844809d2024e0","506006.700000003","762.3000000119209","88","1","arctic","","","","",""
"dual-task","null","null","null","","swim","swim","576.5","","n","null","88","88","1","arctic-dual-task","","n","lowercase","520000","0","4","a40770080031f58eea6699af8955881a50abb171f6b4b550797844809d2024e0","520008.09999999404","576.5","88","1","arctic","","","","",""
"dual-task","null","null","null","","swim","swim","NA","","A","null","NA","77","0","arctic-dual-task","","A","uppercase","532000","1","4","a40770080031f58eea6699af8955881a50abb171f6b4b550797844809d2024e0","532008.700000003","NA","NA","0","arctic","","","","",""
"dual-task","null","null","null","","swim","swim","NA","","r","null","NA","88","0","arctic-dual-task","","r","lowercase","544000","1","4","a40770080031f58eea6699af8955881a50abb171f6b4b550797844809d2024e0","544007","NA","NA","0","arctic","","","","",""
"dual-task","null","null","null","","swim","swim","NA","","a","null","NA","88","0","arctic-dual-task","","a","lowercase","550000","1","4","a40770080031f58eea6699af8955881a50abb171f6b4b550797844809d2024e0","550004.099999994","NA","NA","0","arctic","","","","",""
"dual-task","null","null","null","","swim","swim","1503.2000000029802","","q","null","88","88","1","arctic-dual-task","","q","lowercase","558000","0","4","a40770080031f58eea6699af8955881a50abb171f6b4b550797844809d2024e0","558006.700000003","1503.2000000029802","88","1","arctic","","","","",""
"dual-task","null","null","null","","swim","swim","689.4000000059605","","d","null","88","88","1","arctic-dual-task","","d","lowercase","566000","0","4","a40770080031f58eea6699af8955881a50abb171f6b4b550797844809d2024e0","566007.299999997","689.4000000059605","88","1","arctic","","","","",""
"dual-task","null","null","null","","swim","swim","732.4000000059605","","t","null","88","88","1","arctic-dual-task","","t","lowercase","580000","0","4","a40770080031f58eea6699af8955881a50abb171f6b4b550797844809d2024e0","580006.700000003","732.4000000059605","88","1","arctic","","","","",""
"dual-task","null","null","null","","swim","swim","697.4000000059605","","n","null","88","88","1","arctic-dual-task","","n","lowercase","588000","0","4","a40770080031f58eea6699af8955881a50abb171f6b4b550797844809d2024e0","588006.599999994","697.4000000059605","88","1","arctic","","","","",""
"dual-task","null","null","null","","swim","swim","852.8999999910593","","T","null","77","77","1","arctic-dual-task","","T","uppercase","598000","0","4","a40770080031f58eea6699af8955881a50abb171f6b4b550797844809d2024e0","598006.5","852.8999999910593","77","1","arctic","","","","",""
"dual-task","null","null","null","","swim","swim","787.9000000059605","","a","null","88","88","1","arctic-dual-task","","a","lowercase","606000","0","4","a40770080031f58eea6699af8955881a50abb171f6b4b550797844809d2024e0","606006.8999999911","787.9000000059605","88","1","arctic","","","","",""
"dual-task","null","null","null","","swim","swim","800.2999999970198","","Q","null","77","77","1","arctic-dual-task","","Q","uppercase","616000","0","4","a40770080031f58eea6699af8955881a50abb171f6b4b550797844809d2024e0","616007.099999994","800.2999999970198","77","1","arctic","","","","",""
"dual-task","null","null","null","","swim","swim","NA","","t","null","NA","88","0","arctic-dual-task","","t","lowercase","630000","1","4","a40770080031f58eea6699af8955881a50abb171f6b4b550797844809d2024e0","630006.5","NA","NA","0","arctic","","","","",""
"dual-task","null","null","null","","swim","swim","NA","","N","null","NA","77","0","arctic-dual-task","","N","uppercase","640000","1","4","a40770080031f58eea6699af8955881a50abb171f6b4b550797844809d2024e0","640002.799999997","NA","NA","0","arctic","","","","",""
"dual-task","null","null","null","","swim","swim","NA","","A","null","NA","77","0","arctic-dual-task","","A","uppercase","652000","1","4","a40770080031f58eea6699af8955881a50abb171f6b4b550797844809d2024e0","652007.299999997","NA","NA","0","arctic","","","","",""
"dual-task","null","null","null","","swim","swim","1150.5999999940395","","T","null","77","77","1","arctic-dual-task","","T","uppercase","666000","0","4","a40770080031f58eea6699af8955881a50abb171f6b4b550797844809d2024e0","666008.799999997","1150.5999999940395","77","1","arctic","","","","",""
"dual-task","null","null","null","","swim","swim","1639.2000000029802","","E","null","88","77","0","arctic-dual-task","","E","uppercase","676000","0","4","a40770080031f58eea6699af8955881a50abb171f6b4b550797844809d2024e0","676006.700000003","1639.2000000029802","88","0","arctic","","","","",""
"dual-task","null","null","null","","swim","swim","NA","","h","null","NA","88","0","arctic-dual-task","","h","lowercase","684000","1","4","a40770080031f58eea6699af8955881a50abb171f6b4b550797844809d2024e0","684002","NA","NA","0","arctic","","","","",""
"dual-task","null","null","null","","swim","swim","NA","","D","null","NA","77","0","arctic-dual-task","","D","uppercase","694000","1","4","a40770080031f58eea6699af8955881a50abb171f6b4b550797844809d2024e0","694008.200000003","NA","NA","0","arctic","","","","",""
"dual-task","null","null","null","","swim","swim","NA","","F","null","NA","77","0","arctic-dual-task","","F","uppercase","706000","1","4","a40770080031f58eea6699af8955881a50abb171f6b4b550797844809d2024e0","706006.3999999911","NA","NA","0","arctic","","","","",""
"dual-task","null","null","null","","swim","swim","NA","","H","null","NA","77","0","arctic-dual-task","","H","uppercase","714000","1","4","a40770080031f58eea6699af8955881a50abb171f6b4b550797844809d2024e0","714006.5","NA","NA","0","arctic","","","","",""
"dual-task","null","null","null","","swim","swim","904.2000000029802","","R","null","77","77","1","arctic-dual-task","","R","uppercase","728000","0","4","a40770080031f58eea6699af8955881a50abb171f6b4b550797844809d2024e0","728006.599999994","904.2000000029802","77","1","arctic","","","","",""
"dual-task","null","null","null","","swim","swim","727.2000000029802","","B","null","77","77","1","arctic-dual-task","","B","uppercase","742000","0","4","a40770080031f58eea6699af8955881a50abb171f6b4b550797844809d2024e0","742006.299999997","727.2000000029802","77","1","arctic","","","","",""
"dual-task","null","null","null","","swim","swim","NA","","Q","null","NA","77","0","arctic-dual-task","","Q","uppercase","756000","1","4","a40770080031f58eea6699af8955881a50abb171f6b4b550797844809d2024e0","756006.099999994","NA","NA","0","arctic","","","","",""
"dual-task","null","null","null","","swim","swim","NA","","E","null","NA","77","0","arctic-dual-task","","E","uppercase","762000","1","4","a40770080031f58eea6699af8955881a50abb171f6b4b550797844809d2024e0","762003.099999994","NA","NA","0","arctic","","","","",""
"dual-task","null","null","null","","swim","swim","796.2999999970198","","d","null","88","88","1","arctic-dual-task","","d","lowercase","770000","0","4","a40770080031f58eea6699af8955881a50abb171f6b4b550797844809d2024e0","770006.099999994","796.2999999970198","88","1","arctic","","","","",""
"dual-task","null","null","null","","swim","swim","571","","q","null","88","88","1","arctic-dual-task","","q","lowercase","776000","0","4","a40770080031f58eea6699af8955881a50abb171f6b4b550797844809d2024e0","776006.700000003","571","88","1","arctic","","","","",""
"dual-task","null","null","null","","swim","swim","791.1999999880791","","r","null","88","88","1","arctic-dual-task","","r","lowercase","784000","0","4","a40770080031f58eea6699af8955881a50abb171f6b4b550797844809d2024e0","784007.599999994","791.1999999880791","88","1","arctic","","","","",""
"audio-keyboard-response","62","3086267","0.0-7.0-2.0-1.0","a40770080031f58eea6699af8955881a50abb171f6b4b550797844809d2024e0","swim","swim","null","","audio/story_arctic.mp3","","null","","","","","","","","","","","","","","","","","","","",""
"html-button-response","63","3151516","0.0-7.0-2.0-2.0","a40770080031f58eea6699af8955881a50abb171f6b4b550797844809d2024e0","swim","swim","65247","","<p>This concludes the story. Thank you for listening.</p><p>You will now answer some questions about the content of the story.</p>","0","","","","","","","","","","","","","","","","","","","","",""
"survey-multi-choice","64","3167772","0.0-7.0-2.0-3.0-0.0","a40770080031f58eea6699af8955881a50abb171f6b4b550797844809d2024e0","swim","swim","16253","","<b>How did the narrator&#39;s neighbour respond when she told him about her expedition?</b>","","","","1","arctic-comprehension","","","","","","","","","","","","","{""Q0"":""He said she was going to fail.""}","","","",""
"survey-multi-choice","65","3175334","0.0-7.0-2.0-3.0-0.1","a40770080031f58eea6699af8955881a50abb171f6b4b550797844809d2024e0","swim","swim","7300","","<b>What is the name of the narrator&#39;s neighbour?</b>","","","","1","arctic-comprehension","","","","","","","","","","","","","{""Q0"":""Dave""}","","","",""
"survey-multi-choice","66","3196762","0.0-7.0-2.0-3.0-0.2","a40770080031f58eea6699af8955881a50abb171f6b4b550797844809d2024e0","swim","swim","21164","","<b>What were the weather conditions in the Arctic like the winter of the narrator&#39;s expedition?</b>","","","","0","arctic-comprehension","","","","","","","","","","","","","{""Q0"":""It was the coldest winter in recorded history.""}","","","",""
"survey-multi-choice","67","3227582","0.0-7.0-2.0-3.0-0.3","a40770080031f58eea6699af8955881a50abb171f6b4b550797844809d2024e0","swim","swim","30553","","<b>How did the narrator&#39;s encounter with the polar bears end?</b>","","","","1","arctic-comprehension","","","","","","","","","","","","","{""Q0"":""The bears walked back to their den.""}","","","",""
"survey-multi-choice","68","3243216","0.0-7.0-2.0-3.0-0.4","a40770080031f58eea6699af8955881a50abb171f6b4b550797844809d2024e0","swim","swim","15374","","<b>What did the narrator do for leisure while in her tent?</b>","","","","0","arctic-comprehension","","","","","","","","","","","","","{""Q0"":""Take photos""}","","","",""
"survey-multi-choice","69","3251352","0.0-7.0-2.0-3.0-0.5","a40770080031f58eea6699af8955881a50abb171f6b4b550797844809d2024e0","swim","swim","7874","","<b>What was the objective of the narrator&#39;s expedition?</b>","","","","1","arctic-comprehension","","","","","","","","","","","","","{""Q0"":""Dogsled across Arctic America""}","","","",""
"survey-multi-choice","70","3259804","0.0-7.0-2.0-3.0-0.6","a40770080031f58eea6699af8955881a50abb171f6b4b550797844809d2024e0","swim","swim","8189","","<b>How many sponsorships did the narrator receive to support her expedition?</b>","","","","1","arctic-comprehension","","","","","","","","","","","","","{""Q0"":""None""}","","","",""
"survey-multi-choice","71","3266168","0.0-7.0-2.0-3.0-0.7","a40770080031f58eea6699af8955881a50abb171f6b4b550797844809d2024e0","swim","swim","6099","","<b>How did the narrator prepare for her expedition?</b>","","","","1","arctic-comprehension","","","","","","","","","","","","","{""Q0"":""Trained in Alaska learning how to dogsled""}","","","",""
"survey-multi-choice","72","3271650","0.0-7.0-2.0-3.0-0.8","a40770080031f58eea6699af8955881a50abb171f6b4b550797844809d2024e0","swim","swim","5217","","<b>How did the dogs respond when they saw the bears?</b>","","","","1","arctic-comprehension","","","","","","","","","","","","","{""Q0"":""Approached them""}","","","",""
"survey-multi-choice","73","3277392","0.0-7.0-2.0-3.0-0.9","a40770080031f58eea6699af8955881a50abb171f6b4b550797844809d2024e0","swim","swim","5474","","<b>Which dog on the narrator&#39;s dog team never followed instructions?</b>","","","","1","arctic-comprehension","","","","","","","","","","","","","{""Q0"":""Robert""}","","","",""
"html-button-response","74","3278520","0.0-7.0-2.0-4.0","a40770080031f58eea6699af8955881a50abb171f6b4b550797844809d2024e0","swim","swim","875","","<p>Thank you for your responses.</p><p>You will now answer some questions about your impressions of the story.</p>","0","","","","","","","","","","","","","","","","","","","","",""
"html-button-response","75","3279714","0.0-7.0-2.0-5.0-0.0","a40770080031f58eea6699af8955881a50abb171f6b4b550797844809d2024e0","swim","swim","1194","","A4","6","","","","arctic-engagement","","","","","","","","","","","","","","7","absorption","",""
"html-button-response","76","3280646","0.0-7.0-2.0-5.0-0.1","a40770080031f58eea6699af8955881a50abb171f6b4b550797844809d2024e0","swim","swim","680","","E10","4","","","","arctic-engagement","","","","","","","","","","","","","","5","enjoyment","",""
"html-button-response","77","3281408","0.0-7.0-2.0-5.0-0.2","a40770080031f58eea6699af8955881a50abb171f6b4b550797844809d2024e0","swim","swim","510","","EE1","6","","","","arctic-engagement","","","","","","","","","","","","","","7","emo-engage","",""
"html-button-response","78","3282517","0.0-7.0-2.0-5.0-0.3","a40770080031f58eea6699af8955881a50abb171f6b4b550797844809d2024e0","swim","swim","856","","MS2","6","","","","arctic-engagement","","","","","","","","","","","","","","7","mental-sim","",""
"html-button-response","79","3283250","0.0-7.0-2.0-5.0-0.4","a40770080031f58eea6699af8955881a50abb171f6b4b550797844809d2024e0","swim","swim","480","","MS1","4","","","","arctic-engagement","","","","","","","","","","","","","","5","mental-sim","",""
"html-button-response","80","3284068","0.0-7.0-2.0-5.0-0.5","a40770080031f58eea6699af8955881a50abb171f6b4b550797844809d2024e0","swim","swim","566","","A2","5","","","","arctic-engagement","","","","","","","","","","","","","","6","absorption","",""
"html-button-response","81","3284790","0.0-7.0-2.0-5.0-0.6","a40770080031f58eea6699af8955881a50abb171f6b4b550797844809d2024e0","swim","swim","469","","EE4","6","","","","arctic-engagement","","","","","","","","","","","","","","7","emo-engage","",""
"html-button-response","82","3285712","0.0-7.0-2.0-5.0-0.7","a40770080031f58eea6699af8955881a50abb171f6b4b550797844809d2024e0","swim","swim","668","","MS3","4","","","","arctic-engagement","","","","","","","","","","","","","","5","mental-sim","",""
"html-button-response","83","3286474","0.0-7.0-2.0-5.0-0.8","a40770080031f58eea6699af8955881a50abb171f6b4b550797844809d2024e0","swim","swim","510","","EE5","5","","","","arctic-engagement","","","","","","","","","","","","","","6","emo-engage","",""
"html-button-response","84","3287080","0.0-7.0-2.0-5.0-0.9","a40770080031f58eea6699af8955881a50abb171f6b4b550797844809d2024e0","swim","swim","353","","E1","6","","","","arctic-engagement","","","","","","","","","","","","","","7","enjoyment","",""
"html-button-response","85","3287916","0.0-7.0-2.0-5.0-0.10","a40770080031f58eea6699af8955881a50abb171f6b4b550797844809d2024e0","swim","swim","583","","A5","5","","","","arctic-engagement","","","","","","","","","","","","","","6","absorption","",""
"html-button-response","86","3288546","0.0-7.0-2.0-5.0-0.11","a40770080031f58eea6699af8955881a50abb171f6b4b550797844809d2024e0","swim","swim","377","","E7","6","","","","arctic-engagement","","","","","","","","","","","","","","7","enjoyment","",""
"html-button-response","87","3289244","0.0-7.0-2.0-5.0-0.12","a40770080031f58eea6699af8955881a50abb171f6b4b550797844809d2024e0","swim","swim","447","","E8","6","","","","arctic-engagement","","","","","","","","","","","","","","7","enjoyment","",""
"html-button-response","88","3290412","0.0-7.0-2.0-5.0-0.13","a40770080031f58eea6699af8955881a50abb171f6b4b550797844809d2024e0","swim","swim","915","","EE3","6","","","","arctic-engagement","","","","","","","","","","","","","","7","emo-engage","",""
"html-button-response","89","3291149","0.0-7.0-2.0-5.0-0.14","a40770080031f58eea6699af8955881a50abb171f6b4b550797844809d2024e0","swim","swim","484","","A1","5","","","","arctic-engagement","","","","","","","","","","","","","","6","absorption","",""
"html-button-response","90","3291874","0.0-7.0-2.0-5.0-0.15","a40770080031f58eea6699af8955881a50abb171f6b4b550797844809d2024e0","swim","swim","473","","EE2","4","","","","arctic-engagement","","","","","","","","","","","","","","5","emo-engage","",""
"html-button-response","91","3292496","0.0-7.0-2.0-5.0-0.16","a40770080031f58eea6699af8955881a50abb171f6b4b550797844809d2024e0","swim","swim","369","","E6","5","","","","arctic-engagement","","","","","","","","","","","","","","6","enjoyment","",""
"html-button-response","92","3293110","0.0-7.0-2.0-5.0-0.17","a40770080031f58eea6699af8955881a50abb171f6b4b550797844809d2024e0","swim","swim","360","","A3","6","","","","arctic-engagement","","","","","","","","","","","","","","7","absorption","",""
"html-button-response","93","3339194","0.0-8.0","a40770080031f58eea6699af8955881a50abb171f6b4b550797844809d2024e0","swim","swim","45833","","<p>Thank you for your responses.</p><p>You will now answer some demographic, hearing, and general health questions.</p>","0","","","","","","","","","","","","","","","","","","","","",""
"survey-multi-choice","94","3341587","0.0-9.0-0.0","a40770080031f58eea6699af8955881a50abb171f6b4b550797844809d2024e0","swim","swim","2388","","","","","","","survey","","","","","","","","","","","","","{""Q0"":""Chrome""}","","","browser",""
"survey-text","95","3351789","0.0-9.0-1.0","a40770080031f58eea6699af8955881a50abb171f6b4b550797844809d2024e0","swim","swim","9942.20000000298","","","","","","","survey","","","","","","","","","","","","","{""AGE"":""26""}","","","age","26"
"survey-multi-choice","96","3353832","0.0-9.0-2.0","a40770080031f58eea6699af8955881a50abb171f6b4b550797844809d2024e0","swim","swim","1782","","","","","","","survey","","","","","","","","","","","","","{""Q0"":""Male""}","","","gender","Male"
"survey-multi-choice","97","3355794","0.0-9.0-4.0","a40770080031f58eea6699af8955881a50abb171f6b4b550797844809d2024e0","swim","swim","1705","","","","","","","survey","","","","","","","","","","","","","{""Q0"":""Right""}","","","handedness","Right"
"survey-multi-choice","98","3358424","0.0-9.0-5.0","a40770080031f58eea6699af8955881a50abb171f6b4b550797844809d2024e0","swim","swim","2358","","","","","","","survey","","","","","","","","","","","","","{""Q0"":""Bachelor's Degree""}","","","education","Bachelor's Degree"
"survey-text","99","3363796","0.0-10.0-0.0","a40770080031f58eea6699af8955881a50abb171f6b4b550797844809d2024e0","swim","swim","5116.9000000059605","","","","","","","survey","","","","","","","","","","","","","{""L1"":""English""}","","","first-language","English"
"survey-text","100","3403346","0.0-10.0-1.0","a40770080031f58eea6699af8955881a50abb171f6b4b550797844809d2024e0","swim","swim","39285.59999999404","","","","","","","survey","","","","","","","","","","","","","{""L2name"":""English"",""L2fluency"":""6"",""L3name"":""None"",""L3fluency"":""None"",""L4name"":""None"",""L4fluency"":""None""}","","","additional-languages","{""L2name"":""English"",""L2fluency"":""6"",""L3name"":""None"",""L3fluency"":""None"",""L4name"":""None"",""L4fluency"":""None""}"
"survey-multi-choice","101","3408484","0.0-10.0-2.0","a40770080031f58eea6699af8955881a50abb171f6b4b550797844809d2024e0","swim","swim","4882","","","","","","","survey","","","","","","","","","","","","","{""Q0"":""Both Ears""}","","","hearing-aid","Both Ears"
"survey-multi-choice","102","3418324","0.0-10.0-3.0","a40770080031f58eea6699af8955881a50abb171f6b4b550797844809d2024e0","swim","swim","9587","","","","","","","survey","","","","","","","","","","","","","{""Q0"":""Never""}","","","ringing-ears","Never"
"survey-multi-choice","103","3423600","0.0-10.0-5.0","a40770080031f58eea6699af8955881a50abb171f6b4b550797844809d2024e0","swim","swim","5020","","","","","","","survey","","","","","","","","","","","","","{""Q0"":""No""}","","","neuro-disease","No"
"survey-multi-choice","104","3432562","0.0-10.0-7.0","a40770080031f58eea6699af8955881a50abb171f6b4b550797844809d2024e0","swim","swim","8705","","","","","","","survey","","","","","","","","","","","","","{""Q0"":""No""}","","","take-meds","No"
"survey-text","105","3442486","0.0-10.0-9.0","a40770080031f58eea6699af8955881a50abb171f6b4b550797844809d2024e0","swim","swim","9548.79999999702","","","","","","","survey","","","","","","","","","","","","","{""HC"":""None""}","","","health-concerns","None"
"html-button-response","106","3449438","0.0-11.0-0.0","a40770080031f58eea6699af8955881a50abb171f6b4b550797844809d2024e0","swim","swim","6698","","<p>How would you describe your musical skills/experiences?</p>","5","","","","survey","","","","","","","","","","","","","","","","music-skill","6"
"survey-multi-choice","107","3456490","0.0-11.0-1.0","a40770080031f58eea6699af8955881a50abb171f6b4b550797844809d2024e0","swim","swim","6794","","","","","","","survey","","","","","","","","","","","","","{""Q0"":""Yes""}","","","music-instrument","Yes"
"survey-text","108","3461314","0.0-11.0-2.0-0.0","a40770080031f58eea6699af8955881a50abb171f6b4b550797844809d2024e0","swim","swim","4569.399999991059","","","","","","","survey","","","","","","","","","","","","","{""MEXP"":""2""}","","","music-training-yrs","2"
"html-button-response","109","3464538","0.0-12.0-0.0","a40770080031f58eea6699af8955881a50abb171f6b4b550797844809d2024e0","swim","swim","2971","","<p>How would you describe your general hearing abilities?</p>","5","","","","survey","","","","","","","","","","","","","","","","ssq-01","6"
"html-button-response","110","3466078","0.0-12.0-1.0","a40770080031f58eea6699af8955881a50abb171f6b4b550797844809d2024e0","swim","swim","1288","","<p>When you talk with someone at a place that strongly reverberates/echoes (e.g., in a church or train station),</br>can you understand what the person says?</p>","10","","","","survey","","","","","","","","","","","","","","","","ssq-02","10"
"html-button-response","111","3467118","0.0-12.0-2.0","a40770080031f58eea6699af8955881a50abb171f6b4b550797844809d2024e0","swim","swim","788","","<p>When you are with a group (~5 people) in a lively restaurant, can you follow the group's conversation?</p>","10","","","","survey","","","","","","","","","","","","","","","","ssq-03","10"
"html-button-response","112","3467904","0.0-12.0-3.0","a40770080031f58eea6699af8955881a50abb171f6b4b550797844809d2024e0","swim","swim","535","","<p>Based on the sound of a bus or truck, can you tell whether it is moving towards or away from you?</p>","10","","","","survey","","","","","","","","","","","","","","","","ssq-04","10"
"html-button-response","113","3468683","0.0-12.0-4.0","a40770080031f58eea6699af8955881a50abb171f6b4b550797844809d2024e0","swim","swim","526","","<p>When you are in an unknown environment, can you tell from which direction a brief sound originates?</p>","10","","","","survey","","","","","","","","","","","","","","","","ssq-05","10"
"html-button-response","114","3469464","0.0-12.0-5.0","a40770080031f58eea6699af8955881a50abb171f6b4b550797844809d2024e0","swim","swim","529","","<p>Are you able to ignore distracting sounds when you concentrate on a specific aspect of your acoustic surrounding?</p>","10","","","","survey","","","","","","","","","","","","","","","","ssq-06","10"
"fullscreen","115","3470717","0.0-13.0","a40770080031f58eea6699af8955881a50abb171f6b4b550797844809d2024e0","swim","swim","","","","","","","","","true","","","","","","","","","","","","","","","",""
