"trial_type","trial_index","time_elapsed","internal_node_id","ParticipantID","firstStory","scramStory","rt","url","stimulus","button_pressed","key_press","correctRESP","correct","designation","success","letterStim","letterType","ONSET","TIMEOUT","CONDITION","Participant","ONSET_ACTUAL","RT","RESP","ACC","STORY","responses","response","type","surveyQuestion","QRESP"
"pavlovia","0","3","0.0-0.0","01d92d17ed0ea9d99d2bac6381808c7ee69318be66dd3daf29c6bf4568786f8d","arctic","arctic","","","","","","","","","","","","","","","","","","","","","","","","",""
"external-html","1","238989","0.0-1.0","01d92d17ed0ea9d99d2bac6381808c7ee69318be66dd3daf29c6bf4568786f8d","arctic","arctic","238545","consent/consent_updated.html","","","","","","","","","","","","","","","","","","","","","","",""
"html-button-response","2","252192","0.0-2.0-0.0","01d92d17ed0ea9d99d2bac6381808c7ee69318be66dd3daf29c6bf4568786f8d","arctic","arctic","13202","","<p>Before we begin the main task, you will complete a short volume calibration and headphone check.</p><p>Please make sure you are in a quiet listening environment, that you are wearing headphones, and that your computer's volume is turned on.<p></p>","0","","","","","","","","","","","","","","","","","","","","",""
"html-button-response","3","255775","0.0-2.0-1.0","01d92d17ed0ea9d99d2bac6381808c7ee69318be66dd3daf29c6bf4568786f8d","arctic","arctic","3332","","<p>The volume calibration will be first.</p><p>You will hear a thirty-second noise. Please adjust your computer's volume so that this noise is being presented at a comfortable level.<p></p>","0","","","","","","","","","","","","","","","","","","","","",""
"audio-button-response","4","260919","0.0-2.0-2.0","01d92d17ed0ea9d99d2bac6381808c7ee69318be66dd3daf29c6bf4568786f8d","arctic","arctic","4877","","audio/volumetest.mp3","0","","","","","","","","","","","","","","","","","","","","",""
"html-keyboard-response","5","270333","0.0-3.0-0.0","01d92d17ed0ea9d99d2bac6381808c7ee69318be66dd3daf29c6bf4568786f8d","arctic","arctic","9413","","<p>You will now complete a short headphone check.</p><p>On each trial, you will hear three tones. One of these tones will be quieter than the others. Your task is to identify whether the quiet tone occurred first, second, or third.</p><p>There are six trials in total.<p></p><p></p>(Press SPACEBAR to begin)","","32","","","","","","","","","","","","","","","","","","","",""
"html-keyboard-response","6","271095","0.0-3.0-1.0-0.0","01d92d17ed0ea9d99d2bac6381808c7ee69318be66dd3daf29c6bf4568786f8d","arctic","arctic","null","","<div style=""font-size:60px;"">+</div>","","null","","","","","","","","","","","","","","","","","","","",""
"audio-button-response","7","275391","0.0-3.0-1.0-1.0","01d92d17ed0ea9d99d2bac6381808c7ee69318be66dd3daf29c6bf4568786f8d","arctic","arctic","4294","","audio/t1_2.mp3","0","","0","1","headphone-test","","","","","","","","","","","","","","","","",""
"html-keyboard-response","8","275892","0.0-3.0-1.0-2.0","01d92d17ed0ea9d99d2bac6381808c7ee69318be66dd3daf29c6bf4568786f8d","arctic","arctic","null","","<p>Correct</p>","","null","","","","","","","","","","","","","","","","","","","",""
"html-keyboard-response","9","276396","0.0-3.0-1.0-0.1","01d92d17ed0ea9d99d2bac6381808c7ee69318be66dd3daf29c6bf4568786f8d","arctic","arctic","null","","<div style=""font-size:60px;"">+</div>","","null","","","","","","","","","","","","","","","","","","","",""
"audio-button-response","10","280654","0.0-3.0-1.0-1.1","01d92d17ed0ea9d99d2bac6381808c7ee69318be66dd3daf29c6bf4568786f8d","arctic","arctic","4257","","audio/t1_1.mp3","0","","0","1","headphone-test","","","","","","","","","","","","","","","","",""
"html-keyboard-response","11","281159","0.0-3.0-1.0-2.1","01d92d17ed0ea9d99d2bac6381808c7ee69318be66dd3daf29c6bf4568786f8d","arctic","arctic","null","","<p>Correct</p>","","null","","","","","","","","","","","","","","","","","","","",""
"html-keyboard-response","12","281668","0.0-3.0-1.0-0.2","01d92d17ed0ea9d99d2bac6381808c7ee69318be66dd3daf29c6bf4568786f8d","arctic","arctic","null","","<div style=""font-size:60px;"">+</div>","","null","","","","","","","","","","","","","","","","","","","",""
"audio-button-response","13","285982","0.0-3.0-1.0-1.2","01d92d17ed0ea9d99d2bac6381808c7ee69318be66dd3daf29c6bf4568786f8d","arctic","arctic","4313","","audio/t2_2.mp3","1","","1","1","headphone-test","","","","","","","","","","","","","","","","",""
"html-keyboard-response","14","286486","0.0-3.0-1.0-2.2","01d92d17ed0ea9d99d2bac6381808c7ee69318be66dd3daf29c6bf4568786f8d","arctic","arctic","null","","<p>Correct</p>","","null","","","","","","","","","","","","","","","","","","","",""
"html-keyboard-response","15","286993","0.0-3.0-1.0-0.3","01d92d17ed0ea9d99d2bac6381808c7ee69318be66dd3daf29c6bf4568786f8d","arctic","arctic","null","","<div style=""font-size:60px;"">+</div>","","null","","","","","","","","","","","","","","","","","","","",""
"audio-button-response","16","291343","0.0-3.0-1.0-1.3","01d92d17ed0ea9d99d2bac6381808c7ee69318be66dd3daf29c6bf4568786f8d","arctic","arctic","4348","","audio/t3_2.mp3","2","","2","1","headphone-test","","","","","","","","","","","","","","","","",""
"html-keyboard-response","17","291844","0.0-3.0-1.0-2.3","01d92d17ed0ea9d99d2bac6381808c7ee69318be66dd3daf29c6bf4568786f8d","arctic","arctic","null","","<p>Correct</p>","","null","","","","","","","","","","","","","","","","","","","",""
"html-keyboard-response","18","292345","0.0-3.0-1.0-0.4","01d92d17ed0ea9d99d2bac6381808c7ee69318be66dd3daf29c6bf4568786f8d","arctic","arctic","null","","<div style=""font-size:60px;"">+</div>","","null","","","","","","","","","","","","","","","","","","","",""
"audio-button-response","19","296662","0.0-3.0-1.0-1.4","01d92d17ed0ea9d99d2bac6381808c7ee69318be66dd3daf29c6bf4568786f8d","arctic","arctic","4316","","audio/t2_1.mp3","1","","1","1","headphone-test","","","","","","","","","","","","","","","","",""
"html-keyboard-response","20","297171","0.0-3.0-1.0-2.4","01d92d17ed0ea9d99d2bac6381808c7ee69318be66dd3daf29c6bf4568786f8d","arctic","arctic","null","","<p>Correct</p>","","null","","","","","","","","","","","","","","","","","","","",""
"html-keyboard-response","21","297672","0.0-3.0-1.0-0.5","01d92d17ed0ea9d99d2bac6381808c7ee69318be66dd3daf29c6bf4568786f8d","arctic","arctic","null","","<div style=""font-size:60px;"">+</div>","","null","","","","","","","","","","","","","","","","","","","",""
"audio-button-response","22","302038","0.0-3.0-1.0-1.5","01d92d17ed0ea9d99d2bac6381808c7ee69318be66dd3daf29c6bf4568786f8d","arctic","arctic","4365","","audio/t3_1.mp3","2","","2","1","headphone-test","","","","","","","","","","","","","","","","",""
"html-keyboard-response","23","302544","0.0-3.0-1.0-2.5","01d92d17ed0ea9d99d2bac6381808c7ee69318be66dd3daf29c6bf4568786f8d","arctic","arctic","null","","<p>Correct</p>","","null","","","","","","","","","","","","","","","","","","","",""
"fullscreen","24","307220","0.0-4.0","01d92d17ed0ea9d99d2bac6381808c7ee69318be66dd3daf29c6bf4568786f8d","arctic","arctic","","","","","","","","","true","","","","","","","","","","","","","","","",""
"html-button-response","25","315696","0.0-5.0-0.0","01d92d17ed0ea9d99d2bac6381808c7ee69318be66dd3daf29c6bf4568786f8d","arctic","arctic","8474","","<p>There are two blocks to this experiment.</p><p>In each block, you will hear a ~13.5 minute story. One of the stories will be scrambled. Please listen carefully to both stories and understand them as best you can.</p><p>After each story, you will be asked some questions to assess your comprehension.</p>","0","","","","","","","","","","","","","","","","","","","","",""
"html-button-response","26","334177","0.0-5.0-1.0","01d92d17ed0ea9d99d2bac6381808c7ee69318be66dd3daf29c6bf4568786f8d","arctic","arctic","18481","","<p>During each story, there will be an additional task.</p><p>A letter will occasionally appear on the screen.</br>Your job is to - as quickly as you can - decide whether the letter is lowercase or uppercase and press one of two keys on the keyboard:</p><p>If the letter is <b>lowercase</b>, press key &lt;<b>x</b>&gt;.</p><p>If the letter is <b>uppercase</b>, press key &lt;<b>m</b>&gt;.</p>","0","","","","","","","","","","","","","","","","","","","","",""
"html-keyboard-response","27","339726","0.0-5.0-2.0","01d92d17ed0ea9d99d2bac6381808c7ee69318be66dd3daf29c6bf4568786f8d","arctic","arctic","5548","","<p>Because we want your responses to be as quick as possible, please keep your index fingers over the keys while listening.</p><p>Each block lasts about 20 minutes.</p><p><b>Press &lt;x&gt; or &lt;m&gt; to start the first block!</b></p>","","88","","","","","","","","","","","","","","","","","","","",""
"html-keyboard-response","28","340229","0.0-6.0-0.0-0.0","01d92d17ed0ea9d99d2bac6381808c7ee69318be66dd3daf29c6bf4568786f8d","arctic","arctic","null","","<div style=""font-size:60px;"" tabindex=""0"">+</div>","","null","","","","","","","","","","","","","","","","","","","",""
"dual-task","null","null","null","","arctic","arctic","894.5","","t","null","88","88","1","arctic-dual-task","","t","lowercase","12000","0","6","01d92d17ed0ea9d99d2bac6381808c7ee69318be66dd3daf29c6bf4568786f8d","12008.800000000745","894.5","88","1","arctic","","","","",""
"dual-task","null","null","null","","arctic","arctic","781.5","","q","null","88","88","1","arctic-dual-task","","q","lowercase","24000","0","6","01d92d17ed0ea9d99d2bac6381808c7ee69318be66dd3daf29c6bf4568786f8d","24002.400000002235","781.5","88","1","arctic","","","","",""
"dual-task","null","null","null","","arctic","arctic","615.3999999985099","","A","null","77","77","1","arctic-dual-task","","A","uppercase","36000","0","6","01d92d17ed0ea9d99d2bac6381808c7ee69318be66dd3daf29c6bf4568786f8d","36000.20000000298","615.3999999985099","77","1","arctic","","","","",""
"dual-task","null","null","null","","arctic","arctic","907.5999999977648","","e","null","88","88","1","arctic-dual-task","","e","lowercase","46000","0","6","01d92d17ed0ea9d99d2bac6381808c7ee69318be66dd3daf29c6bf4568786f8d","46004.10000000149","907.5999999977648","88","1","arctic","","","","",""
"dual-task","null","null","null","","arctic","arctic","632.4000000022352","","E","null","77","77","1","arctic-dual-task","","E","uppercase","60000","0","6","01d92d17ed0ea9d99d2bac6381808c7ee69318be66dd3daf29c6bf4568786f8d","59998.900000002235","632.4000000022352","77","1","arctic","","","","",""
"dual-task","null","null","null","","arctic","arctic","709.6000000014901","","a","null","88","88","1","arctic-dual-task","","a","lowercase","70000","0","6","01d92d17ed0ea9d99d2bac6381808c7ee69318be66dd3daf29c6bf4568786f8d","70001.70000000298","709.6000000014901","88","1","arctic","","","","",""
"dual-task","null","null","null","","arctic","arctic","631.7999999970198","","H","null","77","77","1","arctic-dual-task","","H","uppercase","82000","0","6","01d92d17ed0ea9d99d2bac6381808c7ee69318be66dd3daf29c6bf4568786f8d","82007.60000000149","631.7999999970198","77","1","arctic","","","","",""
"dual-task","null","null","null","","arctic","arctic","613.8000000007451","","b","null","88","88","1","arctic-dual-task","","b","lowercase","92000","0","6","01d92d17ed0ea9d99d2bac6381808c7ee69318be66dd3daf29c6bf4568786f8d","92000.5","613.8000000007451","88","1","arctic","","","","",""
"dual-task","null","null","null","","arctic","arctic","571.3000000007451","","B","null","77","77","1","arctic-dual-task","","B","uppercase","104000","0","6","01d92d17ed0ea9d99d2bac6381808c7ee69318be66dd3daf29c6bf4568786f8d","104002.40000000224","571.3000000007451","77","1","arctic","","","","",""
"dual-task","null","null","null","","arctic","arctic","664.9000000022352","","g","null","88","88","1","arctic-dual-task","","g","lowercase","112000","0","6","01d92d17ed0ea9d99d2bac6381808c7ee69318be66dd3daf29c6bf4568786f8d","112005.20000000298","664.9000000022352","88","1","arctic","","","","",""
"dual-task","null","null","null","","arctic","arctic","694.7000000029802","","a","null","88","88","1","arctic-dual-task","","a","lowercase","120000","0","6","01d92d17ed0ea9d99d2bac6381808c7ee69318be66dd3daf29c6bf4568786f8d","119999.30000000075","694.7000000029802","88","1","arctic","","","","",""
"dual-task","null","null","null","","arctic","arctic","639.8000000007451","","G","null","77","77","1","arctic-dual-task","","G","uppercase","130000","0","6","01d92d17ed0ea9d99d2bac6381808c7ee69318be66dd3daf29c6bf4568786f8d","130005.20000000298","639.8000000007451","77","1","arctic","","","","",""
"dual-task","null","null","null","","arctic","arctic","667.8999999985099","","Q","null","77","77","1","arctic-dual-task","","Q","uppercase","136000","0","6","01d92d17ed0ea9d99d2bac6381808c7ee69318be66dd3daf29c6bf4568786f8d","136010.5","667.8999999985099","77","1","arctic","","","","",""
"dual-task","null","null","null","","arctic","arctic","634","","E","null","77","77","1","arctic-dual-task","","E","uppercase","144000","0","6","01d92d17ed0ea9d99d2bac6381808c7ee69318be66dd3daf29c6bf4568786f8d","144002.90000000224","634","77","1","arctic","","","","",""
"dual-task","null","null","null","","arctic","arctic","566.3000000007451","","b","null","88","88","1","arctic-dual-task","","b","lowercase","158000","0","6","01d92d17ed0ea9d99d2bac6381808c7ee69318be66dd3daf29c6bf4568786f8d","157999.80000000075","566.3000000007451","88","1","arctic","","","","",""
"dual-task","null","null","null","","arctic","arctic","625.6000000014901","","n","null","88","88","1","arctic-dual-task","","n","lowercase","168000","0","6","01d92d17ed0ea9d99d2bac6381808c7ee69318be66dd3daf29c6bf4568786f8d","168004.5","625.6000000014901","88","1","arctic","","","","",""
"dual-task","null","null","null","","arctic","arctic","588.4000000022352","","A","null","77","77","1","arctic-dual-task","","A","uppercase","178000","0","6","01d92d17ed0ea9d99d2bac6381808c7ee69318be66dd3daf29c6bf4568786f8d","178008.40000000224","588.4000000022352","77","1","arctic","","","","",""
"dual-task","null","null","null","","arctic","arctic","721.5","","N","null","77","77","1","arctic-dual-task","","N","uppercase","188000","0","6","01d92d17ed0ea9d99d2bac6381808c7ee69318be66dd3daf29c6bf4568786f8d","188004.20000000298","721.5","77","1","arctic","","","","",""
"dual-task","null","null","null","","arctic","arctic","615.6999999992549","","g","null","88","88","1","arctic-dual-task","","g","lowercase","202000","0","6","01d92d17ed0ea9d99d2bac6381808c7ee69318be66dd3daf29c6bf4568786f8d","202008","615.6999999992549","88","1","arctic","","","","",""
"dual-task","null","null","null","","arctic","arctic","579.4000000022352","","E","null","77","77","1","arctic-dual-task","","E","uppercase","214000","0","6","01d92d17ed0ea9d99d2bac6381808c7ee69318be66dd3daf29c6bf4568786f8d","214001.90000000224","579.4000000022352","77","1","arctic","","","","",""
"dual-task","null","null","null","","arctic","arctic","588.8000000007451","","R","null","77","77","1","arctic-dual-task","","R","uppercase","220000","0","6","01d92d17ed0ea9d99d2bac6381808c7ee69318be66dd3daf29c6bf4568786f8d","219999.80000000075","588.8000000007451","77","1","arctic","","","","",""
"dual-task","null","null","null","","arctic","arctic","579.3000000007451","","G","null","77","77","1","arctic-dual-task","","G","uppercase","232000","0","6","01d92d17ed0ea9d99d2bac6381808c7ee69318be66dd3daf29c6bf4568786f8d","232001.70000000298","579.3000000007451","77","1","arctic","","","","",""
"dual-task","null","null","null","","arctic","arctic","580.5","","N","null","77","77","1","arctic-dual-task","","N","uppercase","240000","0","6","01d92d17ed0ea9d99d2bac6381808c7ee69318be66dd3daf29c6bf4568786f8d","240007.5","580.5","77","1","arctic","","","","",""
"dual-task","null","null","null","","arctic","arctic","719.8000000007451","","A","null","77","77","1","arctic-dual-task","","A","uppercase","248000","0","6","01d92d17ed0ea9d99d2bac6381808c7ee69318be66dd3daf29c6bf4568786f8d","247999.6000000015","719.8000000007451","77","1","arctic","","","","",""
"dual-task","null","null","null","","arctic","arctic","656.7000000029802","","R","null","77","77","1","arctic-dual-task","","R","uppercase","258000","0","6","01d92d17ed0ea9d99d2bac6381808c7ee69318be66dd3daf29c6bf4568786f8d","258011.40000000224","656.7000000029802","77","1","arctic","","","","",""
"dual-task","null","null","null","","arctic","arctic","663.4000000022352","","q","null","88","88","1","arctic-dual-task","","q","lowercase","270000","0","6","01d92d17ed0ea9d99d2bac6381808c7ee69318be66dd3daf29c6bf4568786f8d","270004.200000003","663.4000000022352","88","1","arctic","","","","",""
"dual-task","null","null","null","","arctic","arctic","589.3000000007451","","F","null","77","77","1","arctic-dual-task","","F","uppercase","282000","0","6","01d92d17ed0ea9d99d2bac6381808c7ee69318be66dd3daf29c6bf4568786f8d","282007","589.3000000007451","77","1","arctic","","","","",""
"dual-task","null","null","null","","arctic","arctic","505.4000000022352","","D","null","77","77","1","arctic-dual-task","","D","uppercase","292000","0","6","01d92d17ed0ea9d99d2bac6381808c7ee69318be66dd3daf29c6bf4568786f8d","292008.90000000224","505.4000000022352","77","1","arctic","","","","",""
"dual-task","null","null","null","","arctic","arctic","737.3000000007451","","g","null","88","88","1","arctic-dual-task","","g","lowercase","300000","0","6","01d92d17ed0ea9d99d2bac6381808c7ee69318be66dd3daf29c6bf4568786f8d","300002.80000000075","737.3000000007451","88","1","arctic","","","","",""
"dual-task","null","null","null","","arctic","arctic","634.5999999977648","","g","null","88","88","1","arctic-dual-task","","g","lowercase","306000","0","6","01d92d17ed0ea9d99d2bac6381808c7ee69318be66dd3daf29c6bf4568786f8d","306008.700000003","634.5999999977648","88","1","arctic","","","","",""
"dual-task","null","null","null","","arctic","arctic","576.6999999992549","","a","null","88","88","1","arctic-dual-task","","a","lowercase","312000","0","6","01d92d17ed0ea9d99d2bac6381808c7ee69318be66dd3daf29c6bf4568786f8d","312003.200000003","576.6999999992549","88","1","arctic","","","","",""
"dual-task","null","null","null","","arctic","arctic","1094.2999999970198","","e","null","88","88","1","arctic-dual-task","","e","lowercase","318000","0","6","01d92d17ed0ea9d99d2bac6381808c7ee69318be66dd3daf29c6bf4568786f8d","318004.700000003","1094.2999999970198","88","1","arctic","","","","",""
"dual-task","null","null","null","","arctic","arctic","460.0999999977648","","T","null","77","77","1","arctic-dual-task","","T","uppercase","332000","0","6","01d92d17ed0ea9d99d2bac6381808c7ee69318be66dd3daf29c6bf4568786f8d","332006.700000003","460.0999999977648","77","1","arctic","","","","",""
"dual-task","null","null","null","","arctic","arctic","651.2999999970198","","F","null","77","77","1","arctic-dual-task","","F","uppercase","344000","0","6","01d92d17ed0ea9d99d2bac6381808c7ee69318be66dd3daf29c6bf4568786f8d","344007.30000000075","651.2999999970198","77","1","arctic","","","","",""
"dual-task","null","null","null","","arctic","arctic","553.1999999992549","","G","null","77","77","1","arctic-dual-task","","G","uppercase","350000","0","6","01d92d17ed0ea9d99d2bac6381808c7ee69318be66dd3daf29c6bf4568786f8d","350009.200000003","553.1999999992549","77","1","arctic","","","","",""
"dual-task","null","null","null","","arctic","arctic","575.6000000014901","","f","null","88","88","1","arctic-dual-task","","f","lowercase","356000","0","6","01d92d17ed0ea9d99d2bac6381808c7ee69318be66dd3daf29c6bf4568786f8d","356003","575.6000000014901","88","1","arctic","","","","",""
"dual-task","null","null","null","","arctic","arctic","561.5","","t","null","88","88","1","arctic-dual-task","","t","lowercase","368000","0","6","01d92d17ed0ea9d99d2bac6381808c7ee69318be66dd3daf29c6bf4568786f8d","368002","561.5","88","1","arctic","","","","",""
"dual-task","null","null","null","","arctic","arctic","557.3000000007451","","H","null","77","77","1","arctic-dual-task","","H","uppercase","378000","0","6","01d92d17ed0ea9d99d2bac6381808c7ee69318be66dd3daf29c6bf4568786f8d","378004.80000000075","557.3000000007451","77","1","arctic","","","","",""
"dual-task","null","null","null","","arctic","arctic","623.0999999977648","","b","null","88","88","1","arctic-dual-task","","b","lowercase","390000","0","6","01d92d17ed0ea9d99d2bac6381808c7ee69318be66dd3daf29c6bf4568786f8d","390013.80000000075","623.0999999977648","88","1","arctic","","","","",""
"dual-task","null","null","null","","arctic","arctic","523.3999999985099","","T","null","77","77","1","arctic-dual-task","","T","uppercase","402000","0","6","01d92d17ed0ea9d99d2bac6381808c7ee69318be66dd3daf29c6bf4568786f8d","402008.5","523.3999999985099","77","1","arctic","","","","",""
"dual-task","null","null","null","","arctic","arctic","660.5","","b","null","88","88","1","arctic-dual-task","","b","lowercase","408000","0","6","01d92d17ed0ea9d99d2bac6381808c7ee69318be66dd3daf29c6bf4568786f8d","408005.1000000015","660.5","88","1","arctic","","","","",""
"dual-task","null","null","null","","arctic","arctic","593.1999999992549","","N","null","77","77","1","arctic-dual-task","","N","uppercase","414000","0","6","01d92d17ed0ea9d99d2bac6381808c7ee69318be66dd3daf29c6bf4568786f8d","414000.40000000224","593.1999999992549","77","1","arctic","","","","",""
"dual-task","null","null","null","","arctic","arctic","622","","D","null","77","77","1","arctic-dual-task","","D","uppercase","428000","0","6","01d92d17ed0ea9d99d2bac6381808c7ee69318be66dd3daf29c6bf4568786f8d","428003.30000000075","622","77","1","arctic","","","","",""
"dual-task","null","null","null","","arctic","arctic","591.5999999977648","","h","null","88","88","1","arctic-dual-task","","h","lowercase","442000","0","6","01d92d17ed0ea9d99d2bac6381808c7ee69318be66dd3daf29c6bf4568786f8d","442001.1000000015","591.5999999977648","88","1","arctic","","","","",""
"dual-task","null","null","null","","arctic","arctic","704.3000000007451","","n","null","88","88","1","arctic-dual-task","","n","lowercase","448000","0","6","01d92d17ed0ea9d99d2bac6381808c7ee69318be66dd3daf29c6bf4568786f8d","448000.1000000015","704.3000000007451","88","1","arctic","","","","",""
"dual-task","null","null","null","","arctic","arctic","527.9000000022352","","R","null","77","77","1","arctic-dual-task","","R","uppercase","458000","0","6","01d92d17ed0ea9d99d2bac6381808c7ee69318be66dd3daf29c6bf4568786f8d","458001.700000003","527.9000000022352","77","1","arctic","","","","",""
"dual-task","null","null","null","","arctic","arctic","833.6999999992549","","h","null","88","88","1","arctic-dual-task","","h","lowercase","468000","0","6","01d92d17ed0ea9d99d2bac6381808c7ee69318be66dd3daf29c6bf4568786f8d","468007.6000000015","833.6999999992549","88","1","arctic","","","","",""
"dual-task","null","null","null","","arctic","arctic","528.1000000014901","","D","null","77","77","1","arctic-dual-task","","D","uppercase","476000","0","6","01d92d17ed0ea9d99d2bac6381808c7ee69318be66dd3daf29c6bf4568786f8d","476000.6000000015","528.1000000014901","77","1","arctic","","","","",""
"dual-task","null","null","null","","arctic","arctic","750.1000000014901","","Q","null","77","77","1","arctic-dual-task","","Q","uppercase","486000","0","6","01d92d17ed0ea9d99d2bac6381808c7ee69318be66dd3daf29c6bf4568786f8d","486003.40000000224","750.1000000014901","77","1","arctic","","","","",""
"dual-task","null","null","null","","arctic","arctic","690.9000000022352","","H","null","77","77","1","arctic-dual-task","","H","uppercase","496000","0","6","01d92d17ed0ea9d99d2bac6381808c7ee69318be66dd3daf29c6bf4568786f8d","496005.30000000075","690.9000000022352","77","1","arctic","","","","",""
"dual-task","null","null","null","","arctic","arctic","625.2999999970198","","n","null","88","88","1","arctic-dual-task","","n","lowercase","506000","0","6","01d92d17ed0ea9d99d2bac6381808c7ee69318be66dd3daf29c6bf4568786f8d","506000.1000000015","625.2999999970198","88","1","arctic","","","","",""
"dual-task","null","null","null","","arctic","arctic","530.6999999992549","","r","null","88","88","1","arctic-dual-task","","r","lowercase","516000","0","6","01d92d17ed0ea9d99d2bac6381808c7ee69318be66dd3daf29c6bf4568786f8d","516004.1000000015","530.6999999992549","88","1","arctic","","","","",""
"dual-task","null","null","null","","arctic","arctic","528","","B","null","77","77","1","arctic-dual-task","","B","uppercase","524000","0","6","01d92d17ed0ea9d99d2bac6381808c7ee69318be66dd3daf29c6bf4568786f8d","524008.200000003","528","77","1","arctic","","","","",""
"dual-task","null","null","null","","arctic","arctic","638.8000000007451","","e","null","88","88","1","arctic-dual-task","","e","lowercase","532000","0","6","01d92d17ed0ea9d99d2bac6381808c7ee69318be66dd3daf29c6bf4568786f8d","532008.8000000007","638.8000000007451","88","1","arctic","","","","",""
"dual-task","null","null","null","","arctic","arctic","576.1000000014901","","f","null","88","88","1","arctic-dual-task","","f","lowercase","540000","0","6","01d92d17ed0ea9d99d2bac6381808c7ee69318be66dd3daf29c6bf4568786f8d","540008.700000003","576.1000000014901","88","1","arctic","","","","",""
"dual-task","null","null","null","","arctic","arctic","731.9000000022352","","t","null","88","88","1","arctic-dual-task","","t","lowercase","548000","0","6","01d92d17ed0ea9d99d2bac6381808c7ee69318be66dd3daf29c6bf4568786f8d","548003.6000000015","731.9000000022352","88","1","arctic","","","","",""
"dual-task","null","null","null","","arctic","arctic","549.9000000022352","","D","null","77","77","1","arctic-dual-task","","D","uppercase","558000","0","6","01d92d17ed0ea9d99d2bac6381808c7ee69318be66dd3daf29c6bf4568786f8d","558009.700000003","549.9000000022352","77","1","arctic","","","","",""
"dual-task","null","null","null","","arctic","arctic","541.6999999992549","","f","null","88","88","1","arctic-dual-task","","f","lowercase","566000","0","6","01d92d17ed0ea9d99d2bac6381808c7ee69318be66dd3daf29c6bf4568786f8d","566001.4000000022","541.6999999992549","88","1","arctic","","","","",""
"dual-task","null","null","null","","arctic","arctic","591.5999999977648","","H","null","77","77","1","arctic-dual-task","","H","uppercase","574000","0","6","01d92d17ed0ea9d99d2bac6381808c7ee69318be66dd3daf29c6bf4568786f8d","574008.3000000007","591.5999999977648","77","1","arctic","","","","",""
"dual-task","null","null","null","","arctic","arctic","671.8999999985099","","d","null","88","88","1","arctic-dual-task","","d","lowercase","582000","0","6","01d92d17ed0ea9d99d2bac6381808c7ee69318be66dd3daf29c6bf4568786f8d","582007.200000003","671.8999999985099","88","1","arctic","","","","",""
"dual-task","null","null","null","","arctic","arctic","570.7999999970198","","R","null","77","77","1","arctic-dual-task","","R","uppercase","588000","0","6","01d92d17ed0ea9d99d2bac6381808c7ee69318be66dd3daf29c6bf4568786f8d","588005.200000003","570.7999999970198","77","1","arctic","","","","",""
"dual-task","null","null","null","","arctic","arctic","752.8999999985099","","e","null","88","88","1","arctic-dual-task","","e","lowercase","596000","0","6","01d92d17ed0ea9d99d2bac6381808c7ee69318be66dd3daf29c6bf4568786f8d","596006","752.8999999985099","88","1","arctic","","","","",""
"dual-task","null","null","null","","arctic","arctic","741.5","","d","null","88","88","1","arctic-dual-task","","d","lowercase","606000","0","6","01d92d17ed0ea9d99d2bac6381808c7ee69318be66dd3daf29c6bf4568786f8d","606010","741.5","88","1","arctic","","","","",""
"dual-task","null","null","null","","arctic","arctic","567.5","","T","null","77","77","1","arctic-dual-task","","T","uppercase","616000","0","6","01d92d17ed0ea9d99d2bac6381808c7ee69318be66dd3daf29c6bf4568786f8d","616007.1000000015","567.5","77","1","arctic","","","","",""
"dual-task","null","null","null","","arctic","arctic","518.9000000022352","","F","null","77","77","1","arctic-dual-task","","F","uppercase","626000","0","6","01d92d17ed0ea9d99d2bac6381808c7ee69318be66dd3daf29c6bf4568786f8d","626008.5","518.9000000022352","77","1","arctic","","","","",""
"dual-task","null","null","null","","arctic","arctic","816","","q","null","88","88","1","arctic-dual-task","","q","lowercase","634000","0","6","01d92d17ed0ea9d99d2bac6381808c7ee69318be66dd3daf29c6bf4568786f8d","634006.5","816","88","1","arctic","","","","",""
"dual-task","null","null","null","","arctic","arctic","582.5","","q","null","88","88","1","arctic-dual-task","","q","lowercase","640000","0","6","01d92d17ed0ea9d99d2bac6381808c7ee69318be66dd3daf29c6bf4568786f8d","640000.5","582.5","88","1","arctic","","","","",""
"dual-task","null","null","null","","arctic","arctic","790.5999999977648","","r","null","88","88","1","arctic-dual-task","","r","lowercase","648000","0","6","01d92d17ed0ea9d99d2bac6381808c7ee69318be66dd3daf29c6bf4568786f8d","648007.4000000022","790.5999999977648","88","1","arctic","","","","",""
"dual-task","null","null","null","","arctic","arctic","627.9000000022352","","Q","null","77","77","1","arctic-dual-task","","Q","uppercase","660000","0","6","01d92d17ed0ea9d99d2bac6381808c7ee69318be66dd3daf29c6bf4568786f8d","660005.200000003","627.9000000022352","77","1","arctic","","","","",""
"dual-task","null","null","null","","arctic","arctic","730.6000000014901","","F","null","77","77","1","arctic-dual-task","","F","uppercase","668000","0","6","01d92d17ed0ea9d99d2bac6381808c7ee69318be66dd3daf29c6bf4568786f8d","668002.3000000007","730.6000000014901","77","1","arctic","","","","",""
"dual-task","null","null","null","","arctic","arctic","587.5","","E","null","77","77","1","arctic-dual-task","","E","uppercase","676000","0","6","01d92d17ed0ea9d99d2bac6381808c7ee69318be66dd3daf29c6bf4568786f8d","676003.1000000015","587.5","77","1","arctic","","","","",""
"dual-task","null","null","null","","arctic","arctic","563.6000000014901","","h","null","88","88","1","arctic-dual-task","","h","lowercase","686000","0","6","01d92d17ed0ea9d99d2bac6381808c7ee69318be66dd3daf29c6bf4568786f8d","686001.9000000022","563.6000000014901","88","1","arctic","","","","",""
"dual-task","null","null","null","","arctic","arctic","637.5","","Q","null","77","77","1","arctic-dual-task","","Q","uppercase","692000","0","6","01d92d17ed0ea9d99d2bac6381808c7ee69318be66dd3daf29c6bf4568786f8d","692009","637.5","77","1","arctic","","","","",""
"dual-task","null","null","null","","arctic","arctic","844.5","","G","null","77","77","1","arctic-dual-task","","G","uppercase","702000","0","6","01d92d17ed0ea9d99d2bac6381808c7ee69318be66dd3daf29c6bf4568786f8d","702009.700000003","844.5","77","1","arctic","","","","",""
"dual-task","null","null","null","","arctic","arctic","613.3999999985099","","N","null","77","77","1","arctic-dual-task","","N","uppercase","710000","0","6","01d92d17ed0ea9d99d2bac6381808c7ee69318be66dd3daf29c6bf4568786f8d","710007.6000000015","613.3999999985099","77","1","arctic","","","","",""
"dual-task","null","null","null","","arctic","arctic","719.8000000007451","","t","null","88","88","1","arctic-dual-task","","t","lowercase","716000","0","6","01d92d17ed0ea9d99d2bac6381808c7ee69318be66dd3daf29c6bf4568786f8d","716005.700000003","719.8000000007451","88","1","arctic","","","","",""
"dual-task","null","null","null","","arctic","arctic","673.3000000007451","","d","null","77","88","0","arctic-dual-task","","d","lowercase","724000","0","6","01d92d17ed0ea9d99d2bac6381808c7ee69318be66dd3daf29c6bf4568786f8d","724003.6000000015","673.3000000007451","77","0","arctic","","","","",""
"dual-task","null","null","null","","arctic","arctic","556.1999999992549","","d","null","88","88","1","arctic-dual-task","","d","lowercase","732000","0","6","01d92d17ed0ea9d99d2bac6381808c7ee69318be66dd3daf29c6bf4568786f8d","732009.3000000007","556.1999999992549","88","1","arctic","","","","",""
"dual-task","null","null","null","","arctic","arctic","568","","B","null","77","77","1","arctic-dual-task","","B","uppercase","740000","0","6","01d92d17ed0ea9d99d2bac6381808c7ee69318be66dd3daf29c6bf4568786f8d","740004.4000000022","568","77","1","arctic","","","","",""
"dual-task","null","null","null","","arctic","arctic","594.9000000022352","","B","null","77","77","1","arctic-dual-task","","B","uppercase","748000","0","6","01d92d17ed0ea9d99d2bac6381808c7ee69318be66dd3daf29c6bf4568786f8d","748010.3000000007","594.9000000022352","77","1","arctic","","","","",""
"dual-task","null","null","null","","arctic","arctic","645.1999999992549","","r","null","88","88","1","arctic-dual-task","","r","lowercase","760000","0","6","01d92d17ed0ea9d99d2bac6381808c7ee69318be66dd3daf29c6bf4568786f8d","760007.1000000015","645.1999999992549","88","1","arctic","","","","",""
"dual-task","null","null","null","","arctic","arctic","631.3999999985099","","n","null","88","88","1","arctic-dual-task","","n","lowercase","770000","0","6","01d92d17ed0ea9d99d2bac6381808c7ee69318be66dd3daf29c6bf4568786f8d","770004.9000000022","631.3999999985099","88","1","arctic","","","","",""
"dual-task","null","null","null","","arctic","arctic","971.5999999977648","","h","null","88","88","1","arctic-dual-task","","h","lowercase","776000","0","6","01d92d17ed0ea9d99d2bac6381808c7ee69318be66dd3daf29c6bf4568786f8d","776005.8000000007","971.5999999977648","88","1","arctic","","","","",""
"dual-task","null","null","null","","arctic","arctic","570.4000000022352","","T","null","77","77","1","arctic-dual-task","","T","uppercase","790000","0","6","01d92d17ed0ea9d99d2bac6381808c7ee69318be66dd3daf29c6bf4568786f8d","790001.8000000007","570.4000000022352","77","1","arctic","","","","",""
"audio-keyboard-response","29","1138307","0.0-6.0-0.0-1.0","01d92d17ed0ea9d99d2bac6381808c7ee69318be66dd3daf29c6bf4568786f8d","arctic","arctic","null","","audio/story_arctic_scrambled.mp3","","null","","","","","","","","","","","","","","","","","","","",""
"html-button-response","30","1141210","0.0-6.0-0.0-2.0","01d92d17ed0ea9d99d2bac6381808c7ee69318be66dd3daf29c6bf4568786f8d","arctic","arctic","2901","","<p>This concludes the story. Thank you for listening.</p><p>You will now answer some questions about the content of the story.</p>","0","","","","","","","","","","","","","","","","","","","","",""
"survey-multi-choice","31","1144043","0.0-6.0-0.0-3.0-0.0","01d92d17ed0ea9d99d2bac6381808c7ee69318be66dd3daf29c6bf4568786f8d","arctic","arctic","2828","","<b>What is the name of the narrator&#39;s neighbour?</b>","","","","1","arctic-comprehension","","","","","","","","","","","","","{""Q0"":""Dave""}","","","",""
"survey-multi-choice","32","1148394","0.0-6.0-0.0-3.0-0.1","01d92d17ed0ea9d99d2bac6381808c7ee69318be66dd3daf29c6bf4568786f8d","arctic","arctic","4098","","<b>What was the objective of the narrator&#39;s expedition?</b>","","","","1","arctic-comprehension","","","","","","","","","","","","","{""Q0"":""Dogsled across Arctic America""}","","","",""
"survey-multi-choice","33","1153250","0.0-6.0-0.0-3.0-0.2","01d92d17ed0ea9d99d2bac6381808c7ee69318be66dd3daf29c6bf4568786f8d","arctic","arctic","4601","","<b>Which dog on the narrator&#39;s dog team never followed instructions?</b>","","","","1","arctic-comprehension","","","","","","","","","","","","","{""Q0"":""Robert""}","","","",""
"survey-multi-choice","34","1158858","0.0-6.0-0.0-3.0-0.3","01d92d17ed0ea9d99d2bac6381808c7ee69318be66dd3daf29c6bf4568786f8d","arctic","arctic","5352","","<b>How did the narrator&#39;s neighbour respond when she told him about her expedition?</b>","","","","1","arctic-comprehension","","","","","","","","","","","","","{""Q0"":""He said she was going to fail.""}","","","",""
"survey-multi-choice","35","1165298","0.0-6.0-0.0-3.0-0.4","01d92d17ed0ea9d99d2bac6381808c7ee69318be66dd3daf29c6bf4568786f8d","arctic","arctic","6185","","<b>How did the narrator&#39;s encounter with the polar bears end?</b>","","","","0","arctic-comprehension","","","","","","","","","","","","","{""Q0"":""She shot the bear with her shotgun.""}","","","",""
"survey-multi-choice","36","1179707","0.0-6.0-0.0-3.0-0.5","01d92d17ed0ea9d99d2bac6381808c7ee69318be66dd3daf29c6bf4568786f8d","arctic","arctic","14151","","<b>What were the weather conditions in the Arctic like the winter of the narrator&#39;s expedition?</b>","","","","0","arctic-comprehension","","","","","","","","","","","","","{""Q0"":""It was the coldest winter in recorded history.""}","","","",""
"survey-multi-choice","37","1187904","0.0-6.0-0.0-3.0-0.6","01d92d17ed0ea9d99d2bac6381808c7ee69318be66dd3daf29c6bf4568786f8d","arctic","arctic","7942","","<b>How did the narrator prepare for her expedition?</b>","","","","1","arctic-comprehension","","","","","","","","","","","","","{""Q0"":""Trained in Alaska learning how to dogsled""}","","","",""
"survey-multi-choice","38","1192645","0.0-6.0-0.0-3.0-0.7","01d92d17ed0ea9d99d2bac6381808c7ee69318be66dd3daf29c6bf4568786f8d","arctic","arctic","4485","","<b>What did the narrator do for leisure while in her tent?</b>","","","","1","arctic-comprehension","","","","","","","","","","","","","{""Q0"":""Read""}","","","",""
"survey-multi-choice","39","1201301","0.0-6.0-0.0-3.0-0.8","01d92d17ed0ea9d99d2bac6381808c7ee69318be66dd3daf29c6bf4568786f8d","arctic","arctic","8399","","<b>How did the dogs respond when they saw the bears?</b>","","","","0","arctic-comprehension","","","","","","","","","","","","","{""Q0"":""Barked aggressively""}","","","",""
"survey-multi-choice","40","1206445","0.0-6.0-0.0-3.0-0.9","01d92d17ed0ea9d99d2bac6381808c7ee69318be66dd3daf29c6bf4568786f8d","arctic","arctic","4891","","<b>How many sponsorships did the narrator receive to support her expedition?</b>","","","","1","arctic-comprehension","","","","","","","","","","","","","{""Q0"":""None""}","","","",""
"html-button-response","41","1208981","0.0-6.0-0.0-4.0","01d92d17ed0ea9d99d2bac6381808c7ee69318be66dd3daf29c6bf4568786f8d","arctic","arctic","2284","","<p>Thank you for your responses.</p><p>You will now answer some questions about your impressions of the story.</p>","0","","","","","","","","","","","","","","","","","","","","",""
"html-button-response","42","1216094","0.0-6.0-0.0-5.0-0.0","01d92d17ed0ea9d99d2bac6381808c7ee69318be66dd3daf29c6bf4568786f8d","arctic","arctic","7111","","EE3","4","","","","arctic-engagement","","","","","","","","","","","","","","5","emo-engage","",""
"html-button-response","43","1218229","0.0-6.0-0.0-5.0-0.1","01d92d17ed0ea9d99d2bac6381808c7ee69318be66dd3daf29c6bf4568786f8d","arctic","arctic","1883","","E7","5","","","","arctic-engagement","","","","","","","","","","","","","","6","enjoyment","",""
"html-button-response","44","1220741","0.0-6.0-0.0-5.0-0.2","01d92d17ed0ea9d99d2bac6381808c7ee69318be66dd3daf29c6bf4568786f8d","arctic","arctic","2260","","A3","4","","","","arctic-engagement","","","","","","","","","","","","","","5","absorption","",""
"html-button-response","45","1222965","0.0-6.0-0.0-5.0-0.3","01d92d17ed0ea9d99d2bac6381808c7ee69318be66dd3daf29c6bf4568786f8d","arctic","arctic","1972","","E1","4","","","","arctic-engagement","","","","","","","","","","","","","","5","enjoyment","",""
"html-button-response","46","1226716","0.0-6.0-0.0-5.0-0.4","01d92d17ed0ea9d99d2bac6381808c7ee69318be66dd3daf29c6bf4568786f8d","arctic","arctic","3500","","EE4","1","","","","arctic-engagement","","","","","","","","","","","","","","2","emo-engage","",""
"html-button-response","47","1229300","0.0-6.0-0.0-5.0-0.5","01d92d17ed0ea9d99d2bac6381808c7ee69318be66dd3daf29c6bf4568786f8d","arctic","arctic","2331","","E6","4","","","","arctic-engagement","","","","","","","","","","","","","","5","enjoyment","",""
"html-button-response","48","1236564","0.0-6.0-0.0-5.0-0.6","01d92d17ed0ea9d99d2bac6381808c7ee69318be66dd3daf29c6bf4568786f8d","arctic","arctic","7013","","MS2","1","","","","arctic-engagement","","","","","","","","","","","","","","2","mental-sim","",""
"html-button-response","49","1239341","0.0-6.0-0.0-5.0-0.7","01d92d17ed0ea9d99d2bac6381808c7ee69318be66dd3daf29c6bf4568786f8d","arctic","arctic","2523","","E10","0","","","","arctic-engagement","","","","","","","","","","","","","","1","enjoyment","",""
"html-button-response","50","1245589","0.0-6.0-0.0-5.0-0.8","01d92d17ed0ea9d99d2bac6381808c7ee69318be66dd3daf29c6bf4568786f8d","arctic","arctic","5978","","MS3","2","","","","arctic-engagement","","","","","","","","","","","","","","3","mental-sim","",""
"html-button-response","51","1256208","0.0-6.0-0.0-5.0-0.9","01d92d17ed0ea9d99d2bac6381808c7ee69318be66dd3daf29c6bf4568786f8d","arctic","arctic","10368","","A5","4","","","","arctic-engagement","","","","","","","","","","","","","","5","absorption","",""
"html-button-response","52","1263280","0.0-6.0-0.0-5.0-0.10","01d92d17ed0ea9d99d2bac6381808c7ee69318be66dd3daf29c6bf4568786f8d","arctic","arctic","6819","","A4","4","","","","arctic-engagement","","","","","","","","","","","","","","5","absorption","",""
"html-button-response","53","1268605","0.0-6.0-0.0-5.0-0.11","01d92d17ed0ea9d99d2bac6381808c7ee69318be66dd3daf29c6bf4568786f8d","arctic","arctic","5074","","EE2","4","","","","arctic-engagement","","","","","","","","","","","","","","5","emo-engage","",""
"html-button-response","54","1274520","0.0-6.0-0.0-5.0-0.12","01d92d17ed0ea9d99d2bac6381808c7ee69318be66dd3daf29c6bf4568786f8d","arctic","arctic","5662","","EE1","2","","","","arctic-engagement","","","","","","","","","","","","","","3","emo-engage","",""
"html-button-response","55","1277384","0.0-6.0-0.0-5.0-0.13","01d92d17ed0ea9d99d2bac6381808c7ee69318be66dd3daf29c6bf4568786f8d","arctic","arctic","2612","","E8","3","","","","arctic-engagement","","","","","","","","","","","","","","4","enjoyment","",""
"html-button-response","56","1281880","0.0-6.0-0.0-5.0-0.14","01d92d17ed0ea9d99d2bac6381808c7ee69318be66dd3daf29c6bf4568786f8d","arctic","arctic","4244","","A2","5","","","","arctic-engagement","","","","","","","","","","","","","","6","absorption","",""
"html-button-response","57","1286072","0.0-6.0-0.0-5.0-0.15","01d92d17ed0ea9d99d2bac6381808c7ee69318be66dd3daf29c6bf4568786f8d","arctic","arctic","3940","","MS1","2","","","","arctic-engagement","","","","","","","","","","","","","","3","mental-sim","",""
"html-button-response","58","1291647","0.0-6.0-0.0-5.0-0.16","01d92d17ed0ea9d99d2bac6381808c7ee69318be66dd3daf29c6bf4568786f8d","arctic","arctic","5322","","EE5","4","","","","arctic-engagement","","","","","","","","","","","","","","5","emo-engage","",""
"html-button-response","59","1297088","0.0-6.0-0.0-5.0-0.17","01d92d17ed0ea9d99d2bac6381808c7ee69318be66dd3daf29c6bf4568786f8d","arctic","arctic","5188","","A1","2","","","","arctic-engagement","","","","","","","","","","","","","","3","absorption","",""
"html-keyboard-response","60","1371869","0.0-6.0-1.0","01d92d17ed0ea9d99d2bac6381808c7ee69318be66dd3daf29c6bf4568786f8d","arctic","arctic","74530","","<p>Thank you for your responses. You will now listen to the second story.</p><p>Remember, as you listen to the story you will see letters appear on the screen.</br>As quickly as possible, press <b>&lt;x&gt;</b> if the letter is lowercase and <b>&lt;m&gt;</b> if the letter is uppercase.</p><p>Press <b>&lt;x&gt;</b> or <b>&lt;m&gt;</b> to begin listening!</p>","","88","","","","","","","","","","","","","","","","","","","",""
"html-keyboard-response","61","1372370","0.0-6.0-2.0-0.0","01d92d17ed0ea9d99d2bac6381808c7ee69318be66dd3daf29c6bf4568786f8d","arctic","arctic","null","","<div style=""font-size:60px;"" tabindex=""0"">+</div>","","null","","","","","","","","","","","","","","","","","","","",""
"dual-task","null","null","null","","arctic","arctic","710.1000000014901","","T","null","77","77","1","swim-dual-task","","T","uppercase","18000","0","6","01d92d17ed0ea9d99d2bac6381808c7ee69318be66dd3daf29c6bf4568786f8d","18001.39999999851","710.1000000014901","77","1","swim","","","","",""
"dual-task","null","null","null","","arctic","arctic","603.8000000007451","","d","null","88","88","1","swim-dual-task","","d","lowercase","30000","0","6","01d92d17ed0ea9d99d2bac6381808c7ee69318be66dd3daf29c6bf4568786f8d","30003.89999999851","603.8000000007451","88","1","swim","","","","",""
"dual-task","null","null","null","","arctic","arctic","755.3000000007451","","r","null","88","88","1","swim-dual-task","","r","lowercase","40000","0","6","01d92d17ed0ea9d99d2bac6381808c7ee69318be66dd3daf29c6bf4568786f8d","40004.699999999255","755.3000000007451","88","1","swim","","","","",""
"dual-task","null","null","null","","arctic","arctic","559.9000000022352","","E","null","77","77","1","swim-dual-task","","E","uppercase","54000","0","6","01d92d17ed0ea9d99d2bac6381808c7ee69318be66dd3daf29c6bf4568786f8d","54006.699999999255","559.9000000022352","77","1","swim","","","","",""
"dual-task","null","null","null","","arctic","arctic","502.19999999925494","","b","null","88","88","1","swim-dual-task","","b","lowercase","62000","0","6","01d92d17ed0ea9d99d2bac6381808c7ee69318be66dd3daf29c6bf4568786f8d","62000.5","502.19999999925494","88","1","swim","","","","",""
"dual-task","null","null","null","","arctic","arctic","617","","H","null","77","77","1","swim-dual-task","","H","uppercase","76000","0","6","01d92d17ed0ea9d99d2bac6381808c7ee69318be66dd3daf29c6bf4568786f8d","76006.19999999925","617","77","1","swim","","","","",""
"dual-task","null","null","null","","arctic","arctic","621.7000000029802","","a","null","88","88","1","swim-dual-task","","a","lowercase","86000","0","6","01d92d17ed0ea9d99d2bac6381808c7ee69318be66dd3daf29c6bf4568786f8d","86008.30000000075","621.7000000029802","88","1","swim","","","","",""
"dual-task","null","null","null","","arctic","arctic","647.6999999992549","","t","null","88","88","1","swim-dual-task","","t","lowercase","100000","0","6","01d92d17ed0ea9d99d2bac6381808c7ee69318be66dd3daf29c6bf4568786f8d","100007.10000000149","647.6999999992549","88","1","swim","","","","",""
"dual-task","null","null","null","","arctic","arctic","613.1999999992549","","N","null","77","77","1","swim-dual-task","","N","uppercase","106000","0","6","01d92d17ed0ea9d99d2bac6381808c7ee69318be66dd3daf29c6bf4568786f8d","105999.89999999851","613.1999999992549","77","1","swim","","","","",""
"dual-task","null","null","null","","arctic","arctic","563.5","","n","null","88","88","1","swim-dual-task","","n","lowercase","114000","0","6","01d92d17ed0ea9d99d2bac6381808c7ee69318be66dd3daf29c6bf4568786f8d","114001.89999999851","563.5","88","1","swim","","","","",""
"dual-task","null","null","null","","arctic","arctic","587.1999999992549","","n","null","88","88","1","swim-dual-task","","n","lowercase","128000","0","6","01d92d17ed0ea9d99d2bac6381808c7ee69318be66dd3daf29c6bf4568786f8d","128002.60000000149","587.1999999992549","88","1","swim","","","","",""
"dual-task","null","null","null","","arctic","arctic","568.5","","t","null","88","88","1","swim-dual-task","","t","lowercase","140000","0","6","01d92d17ed0ea9d99d2bac6381808c7ee69318be66dd3daf29c6bf4568786f8d","140000.6000000015","568.5","88","1","swim","","","","",""
"dual-task","null","null","null","","arctic","arctic","574.8999999985099","","d","null","88","88","1","swim-dual-task","","d","lowercase","152000","0","6","01d92d17ed0ea9d99d2bac6381808c7ee69318be66dd3daf29c6bf4568786f8d","152007.30000000075","574.8999999985099","88","1","swim","","","","",""
"dual-task","null","null","null","","arctic","arctic","556.8000000007451","","E","null","77","77","1","swim-dual-task","","E","uppercase","164000","0","6","01d92d17ed0ea9d99d2bac6381808c7ee69318be66dd3daf29c6bf4568786f8d","164001.19999999925","556.8000000007451","77","1","swim","","","","",""
"dual-task","null","null","null","","arctic","arctic","509.80000000074506","","B","null","77","77","1","swim-dual-task","","B","uppercase","172000","0","6","01d92d17ed0ea9d99d2bac6381808c7ee69318be66dd3daf29c6bf4568786f8d","172007.1000000015","509.80000000074506","77","1","swim","","","","",""
"dual-task","null","null","null","","arctic","arctic","622.6999999992549","","N","null","77","77","1","swim-dual-task","","N","uppercase","184000","0","6","01d92d17ed0ea9d99d2bac6381808c7ee69318be66dd3daf29c6bf4568786f8d","184006.8999999985","622.6999999992549","77","1","swim","","","","",""
"dual-task","null","null","null","","arctic","arctic","621.7000000029802","","n","null","88","88","1","swim-dual-task","","n","lowercase","194000","0","6","01d92d17ed0ea9d99d2bac6381808c7ee69318be66dd3daf29c6bf4568786f8d","194006.8999999985","621.7000000029802","88","1","swim","","","","",""
"dual-task","null","null","null","","arctic","arctic","637.5","","e","null","88","88","1","swim-dual-task","","e","lowercase","206000","0","6","01d92d17ed0ea9d99d2bac6381808c7ee69318be66dd3daf29c6bf4568786f8d","206007.6000000015","637.5","88","1","swim","","","","",""
"dual-task","null","null","null","","arctic","arctic","607.6999999992549","","q","null","88","88","1","swim-dual-task","","q","lowercase","220000","0","6","01d92d17ed0ea9d99d2bac6381808c7ee69318be66dd3daf29c6bf4568786f8d","220005.3999999985","607.6999999992549","88","1","swim","","","","",""
"dual-task","null","null","null","","arctic","arctic","663.1999999992549","","G","null","77","77","1","swim-dual-task","","G","uppercase","232000","0","6","01d92d17ed0ea9d99d2bac6381808c7ee69318be66dd3daf29c6bf4568786f8d","232005.3999999985","663.1999999992549","77","1","swim","","","","",""
"dual-task","null","null","null","","arctic","arctic","585.5","","e","null","88","88","1","swim-dual-task","","e","lowercase","242000","0","6","01d92d17ed0ea9d99d2bac6381808c7ee69318be66dd3daf29c6bf4568786f8d","242002.19999999925","585.5","88","1","swim","","","","",""
"dual-task","null","null","null","","arctic","arctic","728.4000000022352","","g","null","88","88","1","swim-dual-task","","g","lowercase","256000","0","6","01d92d17ed0ea9d99d2bac6381808c7ee69318be66dd3daf29c6bf4568786f8d","256004.1000000015","728.4000000022352","88","1","swim","","","","",""
"dual-task","null","null","null","","arctic","arctic","614.8999999985099","","T","null","77","77","1","swim-dual-task","","T","uppercase","262000","0","6","01d92d17ed0ea9d99d2bac6381808c7ee69318be66dd3daf29c6bf4568786f8d","262005","614.8999999985099","77","1","swim","","","","",""
"dual-task","null","null","null","","arctic","arctic","626.4000000022352","","D","null","77","77","1","swim-dual-task","","D","uppercase","272000","0","6","01d92d17ed0ea9d99d2bac6381808c7ee69318be66dd3daf29c6bf4568786f8d","272001.80000000075","626.4000000022352","77","1","swim","","","","",""
"dual-task","null","null","null","","arctic","arctic","634.9000000022352","","Q","null","77","77","1","swim-dual-task","","Q","uppercase","280000","0","6","01d92d17ed0ea9d99d2bac6381808c7ee69318be66dd3daf29c6bf4568786f8d","280000.6000000015","634.9000000022352","77","1","swim","","","","",""
"dual-task","null","null","null","","arctic","arctic","611","","b","null","88","88","1","swim-dual-task","","b","lowercase","288000","0","6","01d92d17ed0ea9d99d2bac6381808c7ee69318be66dd3daf29c6bf4568786f8d","287999.69999999925","611","88","1","swim","","","","",""
"dual-task","null","null","null","","arctic","arctic","658.3999999985099","","A","null","77","77","1","swim-dual-task","","A","uppercase","300000","0","6","01d92d17ed0ea9d99d2bac6381808c7ee69318be66dd3daf29c6bf4568786f8d","300001.3999999985","658.3999999985099","77","1","swim","","","","",""
"dual-task","null","null","null","","arctic","arctic","562","","R","null","77","77","1","swim-dual-task","","R","uppercase","308000","0","6","01d92d17ed0ea9d99d2bac6381808c7ee69318be66dd3daf29c6bf4568786f8d","308009.30000000075","562","77","1","swim","","","","",""
"dual-task","null","null","null","","arctic","arctic","683.6000000014901","","f","null","88","88","1","swim-dual-task","","f","lowercase","314000","0","6","01d92d17ed0ea9d99d2bac6381808c7ee69318be66dd3daf29c6bf4568786f8d","314007.30000000075","683.6000000014901","88","1","swim","","","","",""
"dual-task","null","null","null","","arctic","arctic","702.6000000014901","","G","null","77","77","1","swim-dual-task","","G","uppercase","324000","0","6","01d92d17ed0ea9d99d2bac6381808c7ee69318be66dd3daf29c6bf4568786f8d","324007.1000000015","702.6000000014901","77","1","swim","","","","",""
"dual-task","null","null","null","","arctic","arctic","673.1999999992549","","d","null","88","88","1","swim-dual-task","","d","lowercase","334000","0","6","01d92d17ed0ea9d99d2bac6381808c7ee69318be66dd3daf29c6bf4568786f8d","334001.1000000015","673.1999999992549","88","1","swim","","","","",""
"dual-task","null","null","null","","arctic","arctic","609.8999999985099","","A","null","77","77","1","swim-dual-task","","A","uppercase","342000","0","6","01d92d17ed0ea9d99d2bac6381808c7ee69318be66dd3daf29c6bf4568786f8d","342001","609.8999999985099","77","1","swim","","","","",""
"dual-task","null","null","null","","arctic","arctic","615.8000000007451","","R","null","77","77","1","swim-dual-task","","R","uppercase","350000","0","6","01d92d17ed0ea9d99d2bac6381808c7ee69318be66dd3daf29c6bf4568786f8d","350002.3999999985","615.8000000007451","77","1","swim","","","","",""
"dual-task","null","null","null","","arctic","arctic","621.2000000029802","","a","null","88","88","1","swim-dual-task","","a","lowercase","358000","0","6","01d92d17ed0ea9d99d2bac6381808c7ee69318be66dd3daf29c6bf4568786f8d","358005.80000000075","621.2000000029802","88","1","swim","","","","",""
"dual-task","null","null","null","","arctic","arctic","508.4000000022352","","D","null","77","77","1","swim-dual-task","","D","uppercase","368000","0","6","01d92d17ed0ea9d99d2bac6381808c7ee69318be66dd3daf29c6bf4568786f8d","368005.69999999925","508.4000000022352","77","1","swim","","","","",""
"dual-task","null","null","null","","arctic","arctic","620.5999999977648","","t","null","88","88","1","swim-dual-task","","t","lowercase","376000","0","6","01d92d17ed0ea9d99d2bac6381808c7ee69318be66dd3daf29c6bf4568786f8d","376005.6000000015","620.5999999977648","88","1","swim","","","","",""
"dual-task","null","null","null","","arctic","arctic","611.5","","g","null","88","88","1","swim-dual-task","","g","lowercase","386000","0","6","01d92d17ed0ea9d99d2bac6381808c7ee69318be66dd3daf29c6bf4568786f8d","386006.30000000075","611.5","88","1","swim","","","","",""
"dual-task","null","null","null","","arctic","arctic","553.1999999992549","","f","null","88","88","1","swim-dual-task","","f","lowercase","396000","0","6","01d92d17ed0ea9d99d2bac6381808c7ee69318be66dd3daf29c6bf4568786f8d","396002.8999999985","553.1999999992549","88","1","swim","","","","",""
"dual-task","null","null","null","","arctic","arctic","607.0999999977648","","t","null","88","88","1","swim-dual-task","","t","lowercase","402000","0","6","01d92d17ed0ea9d99d2bac6381808c7ee69318be66dd3daf29c6bf4568786f8d","402002.1000000015","607.0999999977648","88","1","swim","","","","",""
"dual-task","null","null","null","","arctic","arctic","678.8000000007451","","h","null","88","88","1","swim-dual-task","","h","lowercase","414000","0","6","01d92d17ed0ea9d99d2bac6381808c7ee69318be66dd3daf29c6bf4568786f8d","414003.1000000015","678.8000000007451","88","1","swim","","","","",""
"dual-task","null","null","null","","arctic","arctic","709.6000000014901","","h","null","88","88","1","swim-dual-task","","h","lowercase","426000","0","6","01d92d17ed0ea9d99d2bac6381808c7ee69318be66dd3daf29c6bf4568786f8d","426004.5","709.6000000014901","88","1","swim","","","","",""
"dual-task","null","null","null","","arctic","arctic","619","","G","null","77","77","1","swim-dual-task","","G","uppercase","434000","0","6","01d92d17ed0ea9d99d2bac6381808c7ee69318be66dd3daf29c6bf4568786f8d","434005.69999999925","619","77","1","swim","","","","",""
"dual-task","null","null","null","","arctic","arctic","579.1000000014901","","r","null","88","88","1","swim-dual-task","","r","lowercase","446000","0","6","01d92d17ed0ea9d99d2bac6381808c7ee69318be66dd3daf29c6bf4568786f8d","446006.69999999925","579.1000000014901","88","1","swim","","","","",""
"dual-task","null","null","null","","arctic","arctic","637.1999999992549","","B","null","77","77","1","swim-dual-task","","B","uppercase","452000","0","6","01d92d17ed0ea9d99d2bac6381808c7ee69318be66dd3daf29c6bf4568786f8d","452003.69999999925","637.1999999992549","77","1","swim","","","","",""
"dual-task","null","null","null","","arctic","arctic","664.1999999992549","","e","null","88","88","1","swim-dual-task","","e","lowercase","462000","0","6","01d92d17ed0ea9d99d2bac6381808c7ee69318be66dd3daf29c6bf4568786f8d","462004.5","664.1999999992549","88","1","swim","","","","",""
"dual-task","null","null","null","","arctic","arctic","792","","Q","null","77","77","1","swim-dual-task","","Q","uppercase","468000","0","6","01d92d17ed0ea9d99d2bac6381808c7ee69318be66dd3daf29c6bf4568786f8d","468008.3999999985","792","77","1","swim","","","","",""
"dual-task","null","null","null","","arctic","arctic","724.6999999992549","","r","null","88","88","1","swim-dual-task","","r","lowercase","480000","0","6","01d92d17ed0ea9d99d2bac6381808c7ee69318be66dd3daf29c6bf4568786f8d","480012.3999999985","724.6999999992549","88","1","swim","","","","",""
"dual-task","null","null","null","","arctic","arctic","604.0999999977648","","D","null","77","77","1","swim-dual-task","","D","uppercase","488000","0","6","01d92d17ed0ea9d99d2bac6381808c7ee69318be66dd3daf29c6bf4568786f8d","488006.30000000075","604.0999999977648","77","1","swim","","","","",""
"dual-task","null","null","null","","arctic","arctic","583.3000000007451","","d","null","88","88","1","swim-dual-task","","d","lowercase","496000","0","6","01d92d17ed0ea9d99d2bac6381808c7ee69318be66dd3daf29c6bf4568786f8d","496008.8999999985","583.3000000007451","88","1","swim","","","","",""
"dual-task","null","null","null","","arctic","arctic","615","","h","null","88","88","1","swim-dual-task","","h","lowercase","504000","0","6","01d92d17ed0ea9d99d2bac6381808c7ee69318be66dd3daf29c6bf4568786f8d","504008.80000000075","615","88","1","swim","","","","",""
"dual-task","null","null","null","","arctic","arctic","677.8000000007451","","a","null","88","88","1","swim-dual-task","","a","lowercase","514000","0","6","01d92d17ed0ea9d99d2bac6381808c7ee69318be66dd3daf29c6bf4568786f8d","514002.8999999985","677.8000000007451","88","1","swim","","","","",""
"dual-task","null","null","null","","arctic","arctic","720.8000000007451","","R","null","77","77","1","swim-dual-task","","R","uppercase","526000","0","6","01d92d17ed0ea9d99d2bac6381808c7ee69318be66dd3daf29c6bf4568786f8d","526007.8000000007","720.8000000007451","77","1","swim","","","","",""
"dual-task","null","null","null","","arctic","arctic","797","","A","null","77","77","1","swim-dual-task","","A","uppercase","534000","0","6","01d92d17ed0ea9d99d2bac6381808c7ee69318be66dd3daf29c6bf4568786f8d","534002.3999999985","797","77","1","swim","","","","",""
"dual-task","null","null","null","","arctic","arctic","533.0999999977648","","D","null","77","77","1","swim-dual-task","","D","uppercase","546000","0","6","01d92d17ed0ea9d99d2bac6381808c7ee69318be66dd3daf29c6bf4568786f8d","546002.5","533.0999999977648","77","1","swim","","","","",""
"dual-task","null","null","null","","arctic","arctic","625.1000000014901","","r","null","88","88","1","swim-dual-task","","r","lowercase","558000","0","6","01d92d17ed0ea9d99d2bac6381808c7ee69318be66dd3daf29c6bf4568786f8d","558006.3000000007","625.1000000014901","88","1","swim","","","","",""
"dual-task","null","null","null","","arctic","arctic","647","","B","null","77","77","1","swim-dual-task","","B","uppercase","570000","0","6","01d92d17ed0ea9d99d2bac6381808c7ee69318be66dd3daf29c6bf4568786f8d","570000.1999999993","647","77","1","swim","","","","",""
"dual-task","null","null","null","","arctic","arctic","739.6999999992549","","n","null","88","88","1","swim-dual-task","","n","lowercase","582000","0","6","01d92d17ed0ea9d99d2bac6381808c7ee69318be66dd3daf29c6bf4568786f8d","582003.8999999985","739.6999999992549","88","1","swim","","","","",""
"dual-task","null","null","null","","arctic","arctic","544.1999999992549","","H","null","77","77","1","swim-dual-task","","H","uppercase","594000","0","6","01d92d17ed0ea9d99d2bac6381808c7ee69318be66dd3daf29c6bf4568786f8d","594007.1999999993","544.1999999992549","77","1","swim","","","","",""
"dual-task","null","null","null","","arctic","arctic","611.3000000007451","","G","null","77","77","1","swim-dual-task","","G","uppercase","602000","0","6","01d92d17ed0ea9d99d2bac6381808c7ee69318be66dd3daf29c6bf4568786f8d","602005.8999999985","611.3000000007451","77","1","swim","","","","",""
"dual-task","null","null","null","","arctic","arctic","592","","N","null","77","77","1","swim-dual-task","","N","uppercase","616000","0","6","01d92d17ed0ea9d99d2bac6381808c7ee69318be66dd3daf29c6bf4568786f8d","616007.3999999985","592","77","1","swim","","","","",""
"dual-task","null","null","null","","arctic","arctic","665","","A","null","77","77","1","swim-dual-task","","A","uppercase","622000","0","6","01d92d17ed0ea9d99d2bac6381808c7ee69318be66dd3daf29c6bf4568786f8d","622005.3000000007","665","77","1","swim","","","","",""
"dual-task","null","null","null","","arctic","arctic","509.69999999925494","","T","null","77","77","1","swim-dual-task","","T","uppercase","636000","0","6","01d92d17ed0ea9d99d2bac6381808c7ee69318be66dd3daf29c6bf4568786f8d","636009.1000000015","509.69999999925494","77","1","swim","","","","",""
"dual-task","null","null","null","","arctic","arctic","535.7999999970198","","E","null","77","77","1","swim-dual-task","","E","uppercase","644000","0","6","01d92d17ed0ea9d99d2bac6381808c7ee69318be66dd3daf29c6bf4568786f8d","644006","535.7999999970198","77","1","swim","","","","",""
"dual-task","null","null","null","","arctic","arctic","619.8000000007451","","e","null","88","88","1","swim-dual-task","","e","lowercase","654000","0","6","01d92d17ed0ea9d99d2bac6381808c7ee69318be66dd3daf29c6bf4568786f8d","654002.8999999985","619.8000000007451","88","1","swim","","","","",""
"dual-task","null","null","null","","arctic","arctic","637.5999999977648","","N","null","77","77","1","swim-dual-task","","N","uppercase","668000","0","6","01d92d17ed0ea9d99d2bac6381808c7ee69318be66dd3daf29c6bf4568786f8d","668000.6999999993","637.5999999977648","77","1","swim","","","","",""
"dual-task","null","null","null","","arctic","arctic","621.8000000007451","","g","null","88","88","1","swim-dual-task","","g","lowercase","676000","0","6","01d92d17ed0ea9d99d2bac6381808c7ee69318be66dd3daf29c6bf4568786f8d","676007.6000000015","621.8000000007451","88","1","swim","","","","",""
"dual-task","null","null","null","","arctic","arctic","612.3999999985099","","R","null","77","77","1","swim-dual-task","","R","uppercase","686000","0","6","01d92d17ed0ea9d99d2bac6381808c7ee69318be66dd3daf29c6bf4568786f8d","686003.6000000015","612.3999999985099","77","1","swim","","","","",""
"dual-task","null","null","null","","arctic","arctic","715.5","","q","null","88","88","1","swim-dual-task","","q","lowercase","698000","0","6","01d92d17ed0ea9d99d2bac6381808c7ee69318be66dd3daf29c6bf4568786f8d","698002.3999999985","715.5","88","1","swim","","","","",""
"dual-task","null","null","null","","arctic","arctic","504","","Q","null","77","77","1","swim-dual-task","","Q","uppercase","708000","0","6","01d92d17ed0ea9d99d2bac6381808c7ee69318be66dd3daf29c6bf4568786f8d","708005.5","504","77","1","swim","","","","",""
"dual-task","null","null","null","","arctic","arctic","686.7999999970198","","B","null","77","77","1","swim-dual-task","","B","uppercase","720000","0","6","01d92d17ed0ea9d99d2bac6381808c7ee69318be66dd3daf29c6bf4568786f8d","720006.1999999993","686.7999999970198","77","1","swim","","","","",""
"dual-task","null","null","null","","arctic","arctic","636.5999999977648","","Q","null","77","77","1","swim-dual-task","","Q","uppercase","728000","0","6","01d92d17ed0ea9d99d2bac6381808c7ee69318be66dd3daf29c6bf4568786f8d","728007","636.5999999977648","77","1","swim","","","","",""
"dual-task","null","null","null","","arctic","arctic","684.6999999992549","","T","null","77","77","1","swim-dual-task","","T","uppercase","740000","0","6","01d92d17ed0ea9d99d2bac6381808c7ee69318be66dd3daf29c6bf4568786f8d","740008","684.6999999992549","77","1","swim","","","","",""
"dual-task","null","null","null","","arctic","arctic","734.5","","a","null","88","88","1","swim-dual-task","","a","lowercase","754000","0","6","01d92d17ed0ea9d99d2bac6381808c7ee69318be66dd3daf29c6bf4568786f8d","754006.6000000015","734.5","88","1","swim","","","","",""
"dual-task","null","null","null","","arctic","arctic","813.6999999992549","","h","null","88","88","1","swim-dual-task","","h","lowercase","762000","0","6","01d92d17ed0ea9d99d2bac6381808c7ee69318be66dd3daf29c6bf4568786f8d","762006.5","813.6999999992549","88","1","swim","","","","",""
"dual-task","null","null","null","","arctic","arctic","571.8999999985099","","H","null","77","77","1","swim-dual-task","","H","uppercase","770000","0","6","01d92d17ed0ea9d99d2bac6381808c7ee69318be66dd3daf29c6bf4568786f8d","770001.6000000015","571.8999999985099","77","1","swim","","","","",""
"dual-task","null","null","null","","arctic","arctic","647.1999999992549","","q","null","88","88","1","swim-dual-task","","q","lowercase","778000","0","6","01d92d17ed0ea9d99d2bac6381808c7ee69318be66dd3daf29c6bf4568786f8d","778002.3000000007","647.1999999992549","88","1","swim","","","","",""
"dual-task","null","null","null","","arctic","arctic","510.19999999925494","","f","null","88","88","1","swim-dual-task","","f","lowercase","786000","0","6","01d92d17ed0ea9d99d2bac6381808c7ee69318be66dd3daf29c6bf4568786f8d","786006.1999999993","510.19999999925494","88","1","swim","","","","",""
"dual-task","null","null","null","","arctic","arctic","564","","b","null","88","88","1","swim-dual-task","","b","lowercase","800000","0","6","01d92d17ed0ea9d99d2bac6381808c7ee69318be66dd3daf29c6bf4568786f8d","800007.6999999993","564","88","1","swim","","","","",""
"audio-keyboard-response","62","2182465","0.0-6.0-2.0-1.0","01d92d17ed0ea9d99d2bac6381808c7ee69318be66dd3daf29c6bf4568786f8d","arctic","arctic","null","","audio/story_swim.mp3","","null","","","","","","","","","","","","","","","","","","","",""
"html-button-response","63","2184461","0.0-6.0-2.0-2.0","01d92d17ed0ea9d99d2bac6381808c7ee69318be66dd3daf29c6bf4568786f8d","arctic","arctic","1996","","<p>This concludes the story. Thank you for listening.</p><p>You will now answer some questions about the content of the story.</p>","0","","","","","","","","","","","","","","","","","","","","",""
"survey-multi-choice","64","2190469","0.0-6.0-2.0-3.0-0.0","01d92d17ed0ea9d99d2bac6381808c7ee69318be66dd3daf29c6bf4568786f8d","arctic","arctic","6004","","<b>What gave the narrator his greatest feeling of accomplishment?</b>","","","","1","swim-comprehension","","","","","","","","","","","","","{""Q0"":""Passing the water survival course""}","","","",""
"survey-multi-choice","65","2194963","0.0-6.0-2.0-3.0-0.1","01d92d17ed0ea9d99d2bac6381808c7ee69318be66dd3daf29c6bf4568786f8d","arctic","arctic","4239","","<b>How many astronaut candidates passed the first swim test?</b>","","","","1","swim-comprehension","","","","","","","","","","","","","{""Q0"":""All of them""}","","","",""
"survey-multi-choice","66","2200483","0.0-6.0-2.0-3.0-0.2","01d92d17ed0ea9d99d2bac6381808c7ee69318be66dd3daf29c6bf4568786f8d","arctic","arctic","5265","","<b>What was the final step of the first swim test in the pool?</b>","","","","1","swim-comprehension","","","","","","","","","","","","","{""Q0"":""Tread water with hands above the water""}","","","",""
"survey-multi-choice","67","2204683","0.0-6.0-2.0-3.0-0.3","01d92d17ed0ea9d99d2bac6381808c7ee69318be66dd3daf29c6bf4568786f8d","arctic","arctic","3944","","<b>Where is the home of naval aviation?</b>","","","","1","swim-comprehension","","","","","","","","","","","","","{""Q0"":""Pensacola""}","","","",""
"survey-multi-choice","68","2211139","0.0-6.0-2.0-3.0-0.4","01d92d17ed0ea9d99d2bac6381808c7ee69318be66dd3daf29c6bf4568786f8d","arctic","arctic","6200","","<b>What were the astronaut candidates trained to do at the naval air station?</b>","","","","1","swim-comprehension","","","","","","","","","","","","","{""Q0"":""Eject out of aircraft and survive in water long enough to be rescued""}","","","",""
"survey-multi-choice","69","2214034","0.0-6.0-2.0-3.0-0.5","01d92d17ed0ea9d99d2bac6381808c7ee69318be66dd3daf29c6bf4568786f8d","arctic","arctic","2632","","<b>What is the narrator afraid of, aside from the water?</b>","","","","1","swim-comprehension","","","","","","","","","","","","","{""Q0"":""Heights""}","","","",""
"survey-multi-choice","70","2218626","0.0-6.0-2.0-3.0-0.6","01d92d17ed0ea9d99d2bac6381808c7ee69318be66dd3daf29c6bf4568786f8d","arctic","arctic","4337","","<b>How many astronaut candidates reported for duty at the Johnson Space Center?</b>","","","","1","swim-comprehension","","","","","","","","","","","","","{""Q0"":""Forty-four""}","","","",""
"survey-multi-choice","71","2223738","0.0-6.0-2.0-3.0-0.7","01d92d17ed0ea9d99d2bac6381808c7ee69318be66dd3daf29c6bf4568786f8d","arctic","arctic","4855","","<b>How often does the narrator swim, now that he is a good swimmer?</b>","","","","1","swim-comprehension","","","","","","","","","","","","","{""Q0"":""Never swam again in his life""}","","","",""
"survey-multi-choice","72","2227602","0.0-6.0-2.0-3.0-0.8","01d92d17ed0ea9d99d2bac6381808c7ee69318be66dd3daf29c6bf4568786f8d","arctic","arctic","3579","","<b>How many times did the astronaut candidates have to complete the final exercise to pass?</b>","","","","1","swim-comprehension","","","","","","","","","","","","","{""Q0"":""Two""}","","","",""
"survey-multi-choice","73","2232010","0.0-6.0-2.0-3.0-0.9","01d92d17ed0ea9d99d2bac6381808c7ee69318be66dd3daf29c6bf4568786f8d","arctic","arctic","4156","","<b>How did the narrator train for his swim test?</b>","","","","1","swim-comprehension","","","","","","","","","","","","","{""Q0"":""Took his kids to the pool every day""}","","","",""
"html-button-response","74","2233442","0.0-6.0-2.0-4.0","01d92d17ed0ea9d99d2bac6381808c7ee69318be66dd3daf29c6bf4568786f8d","arctic","arctic","1180","","<p>Thank you for your responses.</p><p>You will now answer some questions about your impressions of the story.</p>","0","","","","","","","","","","","","","","","","","","","","",""
"html-button-response","75","2236786","0.0-6.0-2.0-5.0-0.0","01d92d17ed0ea9d99d2bac6381808c7ee69318be66dd3daf29c6bf4568786f8d","arctic","arctic","3343","","MS3","5","","","","swim-engagement","","","","","","","","","","","","","","6","mental-sim","",""
"html-button-response","76","2238938","0.0-6.0-2.0-5.0-0.1","01d92d17ed0ea9d99d2bac6381808c7ee69318be66dd3daf29c6bf4568786f8d","arctic","arctic","1899","","E6","6","","","","swim-engagement","","","","","","","","","","","","","","7","enjoyment","",""
"html-button-response","77","2241370","0.0-6.0-2.0-5.0-0.2","01d92d17ed0ea9d99d2bac6381808c7ee69318be66dd3daf29c6bf4568786f8d","arctic","arctic","2180","","E8","4","","","","swim-engagement","","","","","","","","","","","","","","5","enjoyment","",""
"html-button-response","78","2243914","0.0-6.0-2.0-5.0-0.3","01d92d17ed0ea9d99d2bac6381808c7ee69318be66dd3daf29c6bf4568786f8d","arctic","arctic","2292","","MS1","5","","","","swim-engagement","","","","","","","","","","","","","","6","mental-sim","",""
"html-button-response","79","2246954","0.0-6.0-2.0-5.0-0.4","01d92d17ed0ea9d99d2bac6381808c7ee69318be66dd3daf29c6bf4568786f8d","arctic","arctic","2788","","EE2","4","","","","swim-engagement","","","","","","","","","","","","","","5","emo-engage","",""
"html-button-response","80","2248850","0.0-6.0-2.0-5.0-0.5","01d92d17ed0ea9d99d2bac6381808c7ee69318be66dd3daf29c6bf4568786f8d","arctic","arctic","1644","","E10","5","","","","swim-engagement","","","","","","","","","","","","","","6","enjoyment","",""
"html-button-response","81","2252218","0.0-6.0-2.0-5.0-0.6","01d92d17ed0ea9d99d2bac6381808c7ee69318be66dd3daf29c6bf4568786f8d","arctic","arctic","3116","","A2","6","","","","swim-engagement","","","","","","","","","","","","","","7","absorption","",""
"html-button-response","82","2255577","0.0-6.0-2.0-5.0-0.7","01d92d17ed0ea9d99d2bac6381808c7ee69318be66dd3daf29c6bf4568786f8d","arctic","arctic","3107","","A1","5","","","","swim-engagement","","","","","","","","","","","","","","6","absorption","",""
"html-button-response","83","2257897","0.0-6.0-2.0-5.0-0.8","01d92d17ed0ea9d99d2bac6381808c7ee69318be66dd3daf29c6bf4568786f8d","arctic","arctic","2067","","EE4","5","","","","swim-engagement","","","","","","","","","","","","","","6","emo-engage","",""
"html-button-response","84","2259529","0.0-6.0-2.0-5.0-0.9","01d92d17ed0ea9d99d2bac6381808c7ee69318be66dd3daf29c6bf4568786f8d","arctic","arctic","1379","","EE3","5","","","","swim-engagement","","","","","","","","","","","","","","6","emo-engage","",""
"html-button-response","85","2261225","0.0-6.0-2.0-5.0-0.10","01d92d17ed0ea9d99d2bac6381808c7ee69318be66dd3daf29c6bf4568786f8d","arctic","arctic","1444","","EE5","4","","","","swim-engagement","","","","","","","","","","","","","","5","emo-engage","",""
"html-button-response","86","2264002","0.0-6.0-2.0-5.0-0.11","01d92d17ed0ea9d99d2bac6381808c7ee69318be66dd3daf29c6bf4568786f8d","arctic","arctic","2525","","MS2","5","","","","swim-engagement","","","","","","","","","","","","","","6","mental-sim","",""
"html-button-response","87","2265601","0.0-6.0-2.0-5.0-0.12","01d92d17ed0ea9d99d2bac6381808c7ee69318be66dd3daf29c6bf4568786f8d","arctic","arctic","1347","","E7","6","","","","swim-engagement","","","","","","","","","","","","","","7","enjoyment","",""
"html-button-response","88","2267625","0.0-6.0-2.0-5.0-0.13","01d92d17ed0ea9d99d2bac6381808c7ee69318be66dd3daf29c6bf4568786f8d","arctic","arctic","1772","","A3","5","","","","swim-engagement","","","","","","","","","","","","","","6","absorption","",""
"html-button-response","89","2271009","0.0-6.0-2.0-5.0-0.14","01d92d17ed0ea9d99d2bac6381808c7ee69318be66dd3daf29c6bf4568786f8d","arctic","arctic","3132","","A4","5","","","","swim-engagement","","","","","","","","","","","","","","6","absorption","",""
"html-button-response","90","2272777","0.0-6.0-2.0-5.0-0.15","01d92d17ed0ea9d99d2bac6381808c7ee69318be66dd3daf29c6bf4568786f8d","arctic","arctic","1516","","E1","5","","","","swim-engagement","","","","","","","","","","","","","","6","enjoyment","",""
"html-button-response","91","2276681","0.0-6.0-2.0-5.0-0.16","01d92d17ed0ea9d99d2bac6381808c7ee69318be66dd3daf29c6bf4568786f8d","arctic","arctic","3652","","EE1","5","","","","swim-engagement","","","","","","","","","","","","","","6","emo-engage","",""
"html-button-response","92","2279297","0.0-6.0-2.0-5.0-0.17","01d92d17ed0ea9d99d2bac6381808c7ee69318be66dd3daf29c6bf4568786f8d","arctic","arctic","2363","","A5","5","","","","swim-engagement","","","","","","","","","","","","","","6","absorption","",""
"html-button-response","93","2281557","0.0-8.0","01d92d17ed0ea9d99d2bac6381808c7ee69318be66dd3daf29c6bf4568786f8d","arctic","arctic","2008","","<p>Thank you for your responses.</p><p>You will now answer some demographic, hearing, and general health questions.</p>","0","","","","","","","","","","","","","","","","","","","","",""
"survey-multi-choice","94","2284665","0.0-9.0-0.0","01d92d17ed0ea9d99d2bac6381808c7ee69318be66dd3daf29c6bf4568786f8d","arctic","arctic","3105","","","","","","","survey","","","","","","","","","","","","","{""Q0"":""Chrome""}","","","browser",""
"survey-text","95","2288203","0.0-9.0-1.0","01d92d17ed0ea9d99d2bac6381808c7ee69318be66dd3daf29c6bf4568786f8d","arctic","arctic","3282.5","","","","","","","survey","","","","","","","","","","","","","{""AGE"":""32""}","","","age","32"
"survey-multi-choice","96","2290665","0.0-9.0-2.0","01d92d17ed0ea9d99d2bac6381808c7ee69318be66dd3daf29c6bf4568786f8d","arctic","arctic","2207","","","","","","","survey","","","","","","","","","","","","","{""Q0"":""Male""}","","","gender","Male"
"survey-multi-choice","97","2292904","0.0-9.0-4.0","01d92d17ed0ea9d99d2bac6381808c7ee69318be66dd3daf29c6bf4568786f8d","arctic","arctic","1987","","","","","","","survey","","","","","","","","","","","","","{""Q0"":""Right""}","","","handedness","Right"
"survey-multi-choice","98","2295556","0.0-9.0-5.0","01d92d17ed0ea9d99d2bac6381808c7ee69318be66dd3daf29c6bf4568786f8d","arctic","arctic","2394","","","","","","","survey","","","","","","","","","","","","","{""Q0"":""Bachelor's Degree""}","","","education","Bachelor's Degree"
"survey-text","99","2300361","0.0-10.0-0.0","01d92d17ed0ea9d99d2bac6381808c7ee69318be66dd3daf29c6bf4568786f8d","arctic","arctic","4550.099999997765","","","","","","","survey","","","","","","","","","","","","","{""L1"":""English""}","","","first-language","English"
"survey-text","100","2305273","0.0-10.0-1.0","01d92d17ed0ea9d99d2bac6381808c7ee69318be66dd3daf29c6bf4568786f8d","arctic","arctic","4649.60000000149","","","","","","","survey","","","","","","","","","","","","","{""L2name"":"""",""L2fluency"":"""",""L3name"":"""",""L3fluency"":"""",""L4name"":"""",""L4fluency"":""""}","","","additional-languages","{""L2name"":"""",""L2fluency"":"""",""L3name"":"""",""L3fluency"":"""",""L4name"":"""",""L4fluency"":""""}"
"survey-multi-choice","101","2307670","0.0-10.0-2.0","01d92d17ed0ea9d99d2bac6381808c7ee69318be66dd3daf29c6bf4568786f8d","arctic","arctic","2143","","","","","","","survey","","","","","","","","","","","","","{""Q0"":""No""}","","","hearing-aid","No"
"survey-multi-choice","102","2312585","0.0-10.0-3.0","01d92d17ed0ea9d99d2bac6381808c7ee69318be66dd3daf29c6bf4568786f8d","arctic","arctic","4661","","","","","","","survey","","","","","","","","","","","","","{""Q0"":""Never""}","","","ringing-ears","Never"
"survey-multi-choice","103","2316075","0.0-10.0-5.0","01d92d17ed0ea9d99d2bac6381808c7ee69318be66dd3daf29c6bf4568786f8d","arctic","arctic","3238","","","","","","","survey","","","","","","","","","","","","","{""Q0"":""No""}","","","neuro-disease","No"
"survey-multi-choice","104","2321035","0.0-10.0-7.0","01d92d17ed0ea9d99d2bac6381808c7ee69318be66dd3daf29c6bf4568786f8d","arctic","arctic","4706","","","","","","","survey","","","","","","","","","","","","","{""Q0"":""No""}","","","take-meds","No"
"survey-text","105","2334835","0.0-10.0-9.0","01d92d17ed0ea9d99d2bac6381808c7ee69318be66dd3daf29c6bf4568786f8d","arctic","arctic","13542.10000000149","","","","","","","survey","","","","","","","","","","","","","{""HC"":""No health problems.""}","","","health-concerns","No health problems."
"html-button-response","106","2341035","0.0-11.0-0.0","01d92d17ed0ea9d99d2bac6381808c7ee69318be66dd3daf29c6bf4568786f8d","arctic","arctic","5947","","<p>How would you describe your musical skills/experiences?</p>","0","","","","survey","","","","","","","","","","","","","","","","music-skill","1"
"survey-multi-choice","107","2343523","0.0-11.0-1.0","01d92d17ed0ea9d99d2bac6381808c7ee69318be66dd3daf29c6bf4568786f8d","arctic","arctic","2236","","","","","","","survey","","","","","","","","","","","","","{""Q0"":""No""}","","","music-instrument","No"
"html-button-response","108","2347683","0.0-12.0-0.0","01d92d17ed0ea9d99d2bac6381808c7ee69318be66dd3daf29c6bf4568786f8d","arctic","arctic","3908","","<p>How would you describe your general hearing abilities?</p>","5","","","","survey","","","","","","","","","","","","","","","","ssq-01","6"
"html-button-response","109","2361187","0.0-12.0-1.0","01d92d17ed0ea9d99d2bac6381808c7ee69318be66dd3daf29c6bf4568786f8d","arctic","arctic","13252","","<p>When you talk with someone at a place that strongly reverberates/echoes (e.g., in a church or train station),</br>can you understand what the person says?</p>","9","","","","survey","","","","","","","","","","","","","","","","ssq-02","9"
"html-button-response","110","2365955","0.0-12.0-2.0","01d92d17ed0ea9d99d2bac6381808c7ee69318be66dd3daf29c6bf4568786f8d","arctic","arctic","4516","","<p>When you are with a group (~5 people) in a lively restaurant, can you follow the group's conversation?</p>","9","","","","survey","","","","","","","","","","","","","","","","ssq-03","9"
"html-button-response","111","2379196","0.0-12.0-3.0","01d92d17ed0ea9d99d2bac6381808c7ee69318be66dd3daf29c6bf4568786f8d","arctic","arctic","12989","","<p>Based on the sound of a bus or truck, can you tell whether it is moving towards or away from you?</p>","9","","","","survey","","","","","","","","","","","","","","","","ssq-04","9"
"html-button-response","112","2385365","0.0-12.0-4.0","01d92d17ed0ea9d99d2bac6381808c7ee69318be66dd3daf29c6bf4568786f8d","arctic","arctic","5918","","<p>When you are in an unknown environment, can you tell from which direction a brief sound originates?</p>","7","","","","survey","","","","","","","","","","","","","","","","ssq-05","7"
"html-button-response","113","2393669","0.0-12.0-5.0","01d92d17ed0ea9d99d2bac6381808c7ee69318be66dd3daf29c6bf4568786f8d","arctic","arctic","8051","","<p>Are you able to ignore distracting sounds when you concentrate on a specific aspect of your acoustic surrounding?</p>","8","","","","survey","","","","","","","","","","","","","","","","ssq-06","8"
"fullscreen","114","2394921","0.0-13.0","01d92d17ed0ea9d99d2bac6381808c7ee69318be66dd3daf29c6bf4568786f8d","arctic","arctic","","","","","","","","","true","","","","","","","","","","","","","","","",""
