"trial_type","trial_index","time_elapsed","internal_node_id","ParticipantID","firstStory","scramStory","rt","url","stimulus","button_pressed","key_press","correctRESP","correct","designation","success","letterStim","letterType","ONSET","TIMEOUT","CONDITION","Participant","ONSET_ACTUAL","RT","RESP","ACC","STORY","responses","response","type","surveyQuestion","QRESP"
"pavlovia","0","22","0.0-0.0","01d92d17ed0ea9d99d2bac6381808c7ee69318be66dd3daf29c6bf4568786f8d","arctic","swim","","","","","","","","","","","","","","","","","","","","","","","","",""
"external-html","1","19358","0.0-1.0","01d92d17ed0ea9d99d2bac6381808c7ee69318be66dd3daf29c6bf4568786f8d","arctic","swim","18691","consent/consent_updated.html","","","","","","","","","","","","","","","","","","","","","","",""
"html-button-response","2","26935","0.0-2.0-0.0","01d92d17ed0ea9d99d2bac6381808c7ee69318be66dd3daf29c6bf4568786f8d","arctic","swim","7574","","<p>Before we begin the main task, you will complete a short volume calibration and headphone check.</p><p>Please make sure you are in a quiet listening environment, that you are wearing headphones, and that your computer's volume is turned on.<p></p>","0","","","","","","","","","","","","","","","","","","","","",""
"html-button-response","3","29605","0.0-2.0-1.0","01d92d17ed0ea9d99d2bac6381808c7ee69318be66dd3daf29c6bf4568786f8d","arctic","swim","2414","","<p>The volume calibration will be first.</p><p>You will hear a thirty-second noise. Please adjust your computer's volume so that this noise is being presented at a comfortable level.<p></p>","0","","","","","","","","","","","","","","","","","","","","",""
"audio-button-response","4","42206","0.0-2.0-2.0","01d92d17ed0ea9d99d2bac6381808c7ee69318be66dd3daf29c6bf4568786f8d","arctic","swim","12333","","audio/volumetest.mp3","0","","","","","","","","","","","","","","","","","","","","",""
"html-keyboard-response","5","72066","0.0-3.0-0.0","01d92d17ed0ea9d99d2bac6381808c7ee69318be66dd3daf29c6bf4568786f8d","arctic","swim","29857","","<p>You will now complete a short headphone check.</p><p>On each trial, you will hear three tones. One of these tones will be quieter than the others. Your task is to identify whether the quiet tone occurred first, second, or third.</p><p>There are six trials in total.<p></p><p></p>(Press SPACEBAR to begin)","","32","","","","","","","","","","","","","","","","","","","",""
"html-keyboard-response","6","72830","0.0-3.0-1.0-0.0","01d92d17ed0ea9d99d2bac6381808c7ee69318be66dd3daf29c6bf4568786f8d","arctic","swim","null","","<div style=""font-size:60px;"">+</div>","","null","","","","","","","","","","","","","","","","","","","",""
"audio-button-response","7","78494","0.0-3.0-1.0-1.0","01d92d17ed0ea9d99d2bac6381808c7ee69318be66dd3daf29c6bf4568786f8d","arctic","swim","5660","","audio/t1_1.mp3","0","","0","1","headphone-test","","","","","","","","","","","","","","","","",""
"html-keyboard-response","8","79006","0.0-3.0-1.0-2.0","01d92d17ed0ea9d99d2bac6381808c7ee69318be66dd3daf29c6bf4568786f8d","arctic","swim","null","","<p>Correct</p>","","null","","","","","","","","","","","","","","","","","","","",""
"html-keyboard-response","9","79507","0.0-3.0-1.0-0.1","01d92d17ed0ea9d99d2bac6381808c7ee69318be66dd3daf29c6bf4568786f8d","arctic","swim","null","","<div style=""font-size:60px;"">+</div>","","null","","","","","","","","","","","","","","","","","","","",""
"audio-button-response","10","84202","0.0-3.0-1.0-1.1","01d92d17ed0ea9d99d2bac6381808c7ee69318be66dd3daf29c6bf4568786f8d","arctic","swim","4692","","audio/t3_1.mp3","1","","2","0","headphone-test","","","","","","","","","","","","","","","","",""
"html-keyboard-response","11","84712","0.0-3.0-1.0-2.1","01d92d17ed0ea9d99d2bac6381808c7ee69318be66dd3daf29c6bf4568786f8d","arctic","swim","null","","<p>Incorrect</p>","","null","","","","","","","","","","","","","","","","","","","",""
"html-keyboard-response","12","85223","0.0-3.0-1.0-0.2","01d92d17ed0ea9d99d2bac6381808c7ee69318be66dd3daf29c6bf4568786f8d","arctic","swim","null","","<div style=""font-size:60px;"">+</div>","","null","","","","","","","","","","","","","","","","","","","",""
"audio-button-response","13","90564","0.0-3.0-1.0-1.2","01d92d17ed0ea9d99d2bac6381808c7ee69318be66dd3daf29c6bf4568786f8d","arctic","swim","5338","","audio/t2_1.mp3","1","","1","1","headphone-test","","","","","","","","","","","","","","","","",""
"html-keyboard-response","14","91074","0.0-3.0-1.0-2.2","01d92d17ed0ea9d99d2bac6381808c7ee69318be66dd3daf29c6bf4568786f8d","arctic","swim","null","","<p>Correct</p>","","null","","","","","","","","","","","","","","","","","","","",""
"html-keyboard-response","15","91579","0.0-3.0-1.0-0.3","01d92d17ed0ea9d99d2bac6381808c7ee69318be66dd3daf29c6bf4568786f8d","arctic","swim","null","","<div style=""font-size:60px;"">+</div>","","null","","","","","","","","","","","","","","","","","","","",""
"audio-button-response","16","97356","0.0-3.0-1.0-1.3","01d92d17ed0ea9d99d2bac6381808c7ee69318be66dd3daf29c6bf4568786f8d","arctic","swim","5774","","audio/t3_2.mp3","0","","2","0","headphone-test","","","","","","","","","","","","","","","","",""
"html-keyboard-response","17","97870","0.0-3.0-1.0-2.3","01d92d17ed0ea9d99d2bac6381808c7ee69318be66dd3daf29c6bf4568786f8d","arctic","swim","null","","<p>Incorrect</p>","","null","","","","","","","","","","","","","","","","","","","",""
"html-keyboard-response","18","98383","0.0-3.0-1.0-0.4","01d92d17ed0ea9d99d2bac6381808c7ee69318be66dd3daf29c6bf4568786f8d","arctic","swim","null","","<div style=""font-size:60px;"">+</div>","","null","","","","","","","","","","","","","","","","","","","",""
"audio-button-response","19","103732","0.0-3.0-1.0-1.4","01d92d17ed0ea9d99d2bac6381808c7ee69318be66dd3daf29c6bf4568786f8d","arctic","swim","5346","","audio/t1_2.mp3","0","","0","1","headphone-test","","","","","","","","","","","","","","","","",""
"html-keyboard-response","20","104240","0.0-3.0-1.0-2.4","01d92d17ed0ea9d99d2bac6381808c7ee69318be66dd3daf29c6bf4568786f8d","arctic","swim","null","","<p>Correct</p>","","null","","","","","","","","","","","","","","","","","","","",""
"html-keyboard-response","21","104752","0.0-3.0-1.0-0.5","01d92d17ed0ea9d99d2bac6381808c7ee69318be66dd3daf29c6bf4568786f8d","arctic","swim","null","","<div style=""font-size:60px;"">+</div>","","null","","","","","","","","","","","","","","","","","","","",""
"audio-button-response","22","109430","0.0-3.0-1.0-1.5","01d92d17ed0ea9d99d2bac6381808c7ee69318be66dd3daf29c6bf4568786f8d","arctic","swim","4675","","audio/t2_2.mp3","0","","1","0","headphone-test","","","","","","","","","","","","","","","","",""
"html-keyboard-response","23","109940","0.0-3.0-1.0-2.5","01d92d17ed0ea9d99d2bac6381808c7ee69318be66dd3daf29c6bf4568786f8d","arctic","swim","null","","<p>Incorrect</p>","","null","","","","","","","","","","","","","","","","","","","",""
"fullscreen","24","120169","0.0-4.0","01d92d17ed0ea9d99d2bac6381808c7ee69318be66dd3daf29c6bf4568786f8d","arctic","swim","","","","","","","","","true","","","","","","","","","","","","","","","",""
"html-button-response","25","140846","0.0-5.0-0.0","01d92d17ed0ea9d99d2bac6381808c7ee69318be66dd3daf29c6bf4568786f8d","arctic","swim","20676","","<p>There are two blocks to this experiment.</p><p>In each block, you will hear a ~13.5 minute story. One of the stories will be scrambled. Please listen carefully to both stories and understand them as best you can.</p><p>After each story, you will be asked some questions to assess your comprehension.</p>","0","","","","","","","","","","","","","","","","","","","","",""
"html-button-response","26","181825","0.0-5.0-1.0","01d92d17ed0ea9d99d2bac6381808c7ee69318be66dd3daf29c6bf4568786f8d","arctic","swim","40978","","<p>During each story, there will be an additional task.</p><p>A letter will occasionally appear on the screen.</br>Your job is to - as quickly as you can - decide whether the letter is lowercase or uppercase and press one of two keys on the keyboard:</p><p>If the letter is <b>lowercase</b>, press key &lt;<b>x</b>&gt;.</p><p>If the letter is <b>uppercase</b>, press key &lt;<b>m</b>&gt;.</p>","0","","","","","","","","","","","","","","","","","","","","",""
"html-keyboard-response","27","193069","0.0-5.0-2.0","01d92d17ed0ea9d99d2bac6381808c7ee69318be66dd3daf29c6bf4568786f8d","arctic","swim","11241","","<p>Because we want your responses to be as quick as possible, please keep your index fingers over the keys while listening.</p><p>Each block lasts about 20 minutes.</p><p><b>Press &lt;x&gt; or &lt;m&gt; to start the first block!</b></p>","","77","","","","","","","","","","","","","","","","","","","",""
"html-keyboard-response","28","193571","0.0-6.0-0.0-0.0","01d92d17ed0ea9d99d2bac6381808c7ee69318be66dd3daf29c6bf4568786f8d","arctic","swim","null","","<div style=""font-size:60px;"" tabindex=""0"">+</div>","","null","","","","","","","","","","","","","","","","","","","",""
"dual-task","null","null","null","","arctic","swim","NA","","E","null","NA","77","0","arctic-dual-task","","E","uppercase","12000","1","6","01d92d17ed0ea9d99d2bac6381808c7ee69318be66dd3daf29c6bf4568786f8d","12053","NA","NA","0","arctic","","","","",""
"dual-task","null","null","null","","arctic","swim","906","","E","null","77","77","1","arctic-dual-task","","E","uppercase","24000","0","6","01d92d17ed0ea9d99d2bac6381808c7ee69318be66dd3daf29c6bf4568786f8d","24004","906","77","1","arctic","","","","",""
"dual-task","null","null","null","","arctic","swim","1248","","H","null","77","77","1","arctic-dual-task","","H","uppercase","36000","0","6","01d92d17ed0ea9d99d2bac6381808c7ee69318be66dd3daf29c6bf4568786f8d","36010","1248","77","1","arctic","","","","",""
"dual-task","null","null","null","","arctic","swim","766","","e","null","88","88","1","arctic-dual-task","","e","lowercase","46000","0","6","01d92d17ed0ea9d99d2bac6381808c7ee69318be66dd3daf29c6bf4568786f8d","46006","766","88","1","arctic","","","","",""
"dual-task","null","null","null","","arctic","swim","724","","A","null","77","77","1","arctic-dual-task","","A","uppercase","60000","0","6","01d92d17ed0ea9d99d2bac6381808c7ee69318be66dd3daf29c6bf4568786f8d","59999","724","77","1","arctic","","","","",""
"dual-task","null","null","null","","arctic","swim","766","","t","null","88","88","1","arctic-dual-task","","t","lowercase","70000","0","6","01d92d17ed0ea9d99d2bac6381808c7ee69318be66dd3daf29c6bf4568786f8d","70000","766","88","1","arctic","","","","",""
"dual-task","null","null","null","","arctic","swim","696","","q","null","88","88","1","arctic-dual-task","","q","lowercase","82000","0","6","01d92d17ed0ea9d99d2bac6381808c7ee69318be66dd3daf29c6bf4568786f8d","82010","696","88","1","arctic","","","","",""
"dual-task","null","null","null","","arctic","swim","682","","q","null","88","88","1","arctic-dual-task","","q","lowercase","92000","0","6","01d92d17ed0ea9d99d2bac6381808c7ee69318be66dd3daf29c6bf4568786f8d","91999","682","88","1","arctic","","","","",""
"dual-task","null","null","null","","arctic","swim","722","","F","null","77","77","1","arctic-dual-task","","F","uppercase","104000","0","6","01d92d17ed0ea9d99d2bac6381808c7ee69318be66dd3daf29c6bf4568786f8d","104004","722","77","1","arctic","","","","",""
"dual-task","null","null","null","","arctic","swim","754","","Q","null","77","77","1","arctic-dual-task","","Q","uppercase","112000","0","6","01d92d17ed0ea9d99d2bac6381808c7ee69318be66dd3daf29c6bf4568786f8d","112009","754","77","1","arctic","","","","",""
"dual-task","null","null","null","","arctic","swim","654","","Q","null","77","77","1","arctic-dual-task","","Q","uppercase","120000","0","6","01d92d17ed0ea9d99d2bac6381808c7ee69318be66dd3daf29c6bf4568786f8d","119999","654","77","1","arctic","","","","",""
"dual-task","null","null","null","","arctic","swim","672","","B","null","77","77","1","arctic-dual-task","","B","uppercase","130000","0","6","01d92d17ed0ea9d99d2bac6381808c7ee69318be66dd3daf29c6bf4568786f8d","129998","672","77","1","arctic","","","","",""
"dual-task","null","null","null","","arctic","swim","694","","e","null","88","88","1","arctic-dual-task","","e","lowercase","136000","0","6","01d92d17ed0ea9d99d2bac6381808c7ee69318be66dd3daf29c6bf4568786f8d","136002","694","88","1","arctic","","","","",""
"dual-task","null","null","null","","arctic","swim","603","","N","null","77","77","1","arctic-dual-task","","N","uppercase","144000","0","6","01d92d17ed0ea9d99d2bac6381808c7ee69318be66dd3daf29c6bf4568786f8d","144010","603","77","1","arctic","","","","",""
"dual-task","null","null","null","","arctic","swim","714","","t","null","88","88","1","arctic-dual-task","","t","lowercase","158000","0","6","01d92d17ed0ea9d99d2bac6381808c7ee69318be66dd3daf29c6bf4568786f8d","158001","714","88","1","arctic","","","","",""
"dual-task","null","null","null","","arctic","swim","693","","G","null","77","77","1","arctic-dual-task","","G","uppercase","168000","0","6","01d92d17ed0ea9d99d2bac6381808c7ee69318be66dd3daf29c6bf4568786f8d","168010","693","77","1","arctic","","","","",""
"dual-task","null","null","null","","arctic","swim","653","","T","null","77","77","1","arctic-dual-task","","T","uppercase","178000","0","6","01d92d17ed0ea9d99d2bac6381808c7ee69318be66dd3daf29c6bf4568786f8d","178000","653","77","1","arctic","","","","",""
"dual-task","null","null","null","","arctic","swim","616","","f","null","88","88","1","arctic-dual-task","","f","lowercase","188000","0","6","01d92d17ed0ea9d99d2bac6381808c7ee69318be66dd3daf29c6bf4568786f8d","188009","616","88","1","arctic","","","","",""
"dual-task","null","null","null","","arctic","swim","836","","g","null","88","88","1","arctic-dual-task","","g","lowercase","202000","0","6","01d92d17ed0ea9d99d2bac6381808c7ee69318be66dd3daf29c6bf4568786f8d","201997","836","88","1","arctic","","","","",""
"dual-task","null","null","null","","arctic","swim","815","","d","null","88","88","1","arctic-dual-task","","d","lowercase","214000","0","6","01d92d17ed0ea9d99d2bac6381808c7ee69318be66dd3daf29c6bf4568786f8d","214002","815","88","1","arctic","","","","",""
"dual-task","null","null","null","","arctic","swim","616","","a","null","88","88","1","arctic-dual-task","","a","lowercase","220000","0","6","01d92d17ed0ea9d99d2bac6381808c7ee69318be66dd3daf29c6bf4568786f8d","220000","616","88","1","arctic","","","","",""
"dual-task","null","null","null","","arctic","swim","649","","R","null","77","77","1","arctic-dual-task","","R","uppercase","232000","0","6","01d92d17ed0ea9d99d2bac6381808c7ee69318be66dd3daf29c6bf4568786f8d","231999","649","77","1","arctic","","","","",""
"dual-task","null","null","null","","arctic","swim","610","","A","null","77","77","1","arctic-dual-task","","A","uppercase","240000","0","6","01d92d17ed0ea9d99d2bac6381808c7ee69318be66dd3daf29c6bf4568786f8d","239998","610","77","1","arctic","","","","",""
"dual-task","null","null","null","","arctic","swim","811","","D","null","77","77","1","arctic-dual-task","","D","uppercase","248000","0","6","01d92d17ed0ea9d99d2bac6381808c7ee69318be66dd3daf29c6bf4568786f8d","248010","811","77","1","arctic","","","","",""
"dual-task","null","null","null","","arctic","swim","673","","R","null","77","77","1","arctic-dual-task","","R","uppercase","258000","0","6","01d92d17ed0ea9d99d2bac6381808c7ee69318be66dd3daf29c6bf4568786f8d","258000","673","77","1","arctic","","","","",""
"dual-task","null","null","null","","arctic","swim","615","","b","null","88","88","1","arctic-dual-task","","b","lowercase","270000","0","6","01d92d17ed0ea9d99d2bac6381808c7ee69318be66dd3daf29c6bf4568786f8d","270005","615","88","1","arctic","","","","",""
"dual-task","null","null","null","","arctic","swim","619","","H","null","77","77","1","arctic-dual-task","","H","uppercase","282000","0","6","01d92d17ed0ea9d99d2bac6381808c7ee69318be66dd3daf29c6bf4568786f8d","282003","619","77","1","arctic","","","","",""
"dual-task","null","null","null","","arctic","swim","464","","H","null","88","77","0","arctic-dual-task","","H","uppercase","292000","0","6","01d92d17ed0ea9d99d2bac6381808c7ee69318be66dd3daf29c6bf4568786f8d","292012","464","88","0","arctic","","","","",""
"dual-task","null","null","null","","arctic","swim","631","","q","null","88","88","1","arctic-dual-task","","q","lowercase","300000","0","6","01d92d17ed0ea9d99d2bac6381808c7ee69318be66dd3daf29c6bf4568786f8d","300001","631","88","1","arctic","","","","",""
"dual-task","null","null","null","","arctic","swim","721","","b","null","88","88","1","arctic-dual-task","","b","lowercase","306000","0","6","01d92d17ed0ea9d99d2bac6381808c7ee69318be66dd3daf29c6bf4568786f8d","305998","721","88","1","arctic","","","","",""
"dual-task","null","null","null","","arctic","swim","561","","F","null","77","77","1","arctic-dual-task","","F","uppercase","312000","0","6","01d92d17ed0ea9d99d2bac6381808c7ee69318be66dd3daf29c6bf4568786f8d","311998","561","77","1","arctic","","","","",""
"dual-task","null","null","null","","arctic","swim","636","","a","null","88","88","1","arctic-dual-task","","a","lowercase","318000","0","6","01d92d17ed0ea9d99d2bac6381808c7ee69318be66dd3daf29c6bf4568786f8d","318010","636","88","1","arctic","","","","",""
"dual-task","null","null","null","","arctic","swim","575","","h","null","88","88","1","arctic-dual-task","","h","lowercase","332000","0","6","01d92d17ed0ea9d99d2bac6381808c7ee69318be66dd3daf29c6bf4568786f8d","332003","575","88","1","arctic","","","","",""
"dual-task","null","null","null","","arctic","swim","545","","n","null","88","88","1","arctic-dual-task","","n","lowercase","344000","0","6","01d92d17ed0ea9d99d2bac6381808c7ee69318be66dd3daf29c6bf4568786f8d","344008","545","88","1","arctic","","","","",""
"dual-task","null","null","null","","arctic","swim","549","","a","null","88","88","1","arctic-dual-task","","a","lowercase","350000","0","6","01d92d17ed0ea9d99d2bac6381808c7ee69318be66dd3daf29c6bf4568786f8d","350002","549","88","1","arctic","","","","",""
"dual-task","null","null","null","","arctic","swim","590","","r","null","88","88","1","arctic-dual-task","","r","lowercase","356000","0","6","01d92d17ed0ea9d99d2bac6381808c7ee69318be66dd3daf29c6bf4568786f8d","356011","590","88","1","arctic","","","","",""
"dual-task","null","null","null","","arctic","swim","576","","d","null","88","88","1","arctic-dual-task","","d","lowercase","368000","0","6","01d92d17ed0ea9d99d2bac6381808c7ee69318be66dd3daf29c6bf4568786f8d","368004","576","88","1","arctic","","","","",""
"dual-task","null","null","null","","arctic","swim","621","","f","null","88","88","1","arctic-dual-task","","f","lowercase","378000","0","6","01d92d17ed0ea9d99d2bac6381808c7ee69318be66dd3daf29c6bf4568786f8d","378013","621","88","1","arctic","","","","",""
"dual-task","null","null","null","","arctic","swim","554","","d","null","88","88","1","arctic-dual-task","","d","lowercase","390000","0","6","01d92d17ed0ea9d99d2bac6381808c7ee69318be66dd3daf29c6bf4568786f8d","389999","554","88","1","arctic","","","","",""
"dual-task","null","null","null","","arctic","swim","632","","R","null","77","77","1","arctic-dual-task","","R","uppercase","402000","0","6","01d92d17ed0ea9d99d2bac6381808c7ee69318be66dd3daf29c6bf4568786f8d","402003","632","77","1","arctic","","","","",""
"dual-task","null","null","null","","arctic","swim","647","","r","null","88","88","1","arctic-dual-task","","r","lowercase","408000","0","6","01d92d17ed0ea9d99d2bac6381808c7ee69318be66dd3daf29c6bf4568786f8d","408005","647","88","1","arctic","","","","",""
"dual-task","null","null","null","","arctic","swim","655","","N","null","77","77","1","arctic-dual-task","","N","uppercase","414000","0","6","01d92d17ed0ea9d99d2bac6381808c7ee69318be66dd3daf29c6bf4568786f8d","414013","655","77","1","arctic","","","","",""
"dual-task","null","null","null","","arctic","swim","806","","a","null","88","88","1","arctic-dual-task","","a","lowercase","428000","0","6","01d92d17ed0ea9d99d2bac6381808c7ee69318be66dd3daf29c6bf4568786f8d","428006","806","88","1","arctic","","","","",""
"dual-task","null","null","null","","arctic","swim","608","","Q","null","77","77","1","arctic-dual-task","","Q","uppercase","442000","0","6","01d92d17ed0ea9d99d2bac6381808c7ee69318be66dd3daf29c6bf4568786f8d","442008","608","77","1","arctic","","","","",""
"dual-task","null","null","null","","arctic","swim","611","","G","null","77","77","1","arctic-dual-task","","G","uppercase","448000","0","6","01d92d17ed0ea9d99d2bac6381808c7ee69318be66dd3daf29c6bf4568786f8d","448011","611","77","1","arctic","","","","",""
"dual-task","null","null","null","","arctic","swim","526","","T","null","77","77","1","arctic-dual-task","","T","uppercase","458000","0","6","01d92d17ed0ea9d99d2bac6381808c7ee69318be66dd3daf29c6bf4568786f8d","458010","526","77","1","arctic","","","","",""
"dual-task","null","null","null","","arctic","swim","753","","r","null","88","88","1","arctic-dual-task","","r","lowercase","468000","0","6","01d92d17ed0ea9d99d2bac6381808c7ee69318be66dd3daf29c6bf4568786f8d","468003","753","88","1","arctic","","","","",""
"dual-task","null","null","null","","arctic","swim","831","","N","null","77","77","1","arctic-dual-task","","N","uppercase","476000","0","6","01d92d17ed0ea9d99d2bac6381808c7ee69318be66dd3daf29c6bf4568786f8d","476000","831","77","1","arctic","","","","",""
"dual-task","null","null","null","","arctic","swim","603","","f","null","88","88","1","arctic-dual-task","","f","lowercase","486000","0","6","01d92d17ed0ea9d99d2bac6381808c7ee69318be66dd3daf29c6bf4568786f8d","485999","603","88","1","arctic","","","","",""
"dual-task","null","null","null","","arctic","swim","685","","t","null","88","88","1","arctic-dual-task","","t","lowercase","496000","0","6","01d92d17ed0ea9d99d2bac6381808c7ee69318be66dd3daf29c6bf4568786f8d","496006","685","88","1","arctic","","","","",""
"dual-task","null","null","null","","arctic","swim","670","","b","null","88","88","1","arctic-dual-task","","b","lowercase","506000","0","6","01d92d17ed0ea9d99d2bac6381808c7ee69318be66dd3daf29c6bf4568786f8d","506010","670","88","1","arctic","","","","",""
"dual-task","null","null","null","","arctic","swim","579","","A","null","77","77","1","arctic-dual-task","","A","uppercase","516000","0","6","01d92d17ed0ea9d99d2bac6381808c7ee69318be66dd3daf29c6bf4568786f8d","516006","579","77","1","arctic","","","","",""
"dual-task","null","null","null","","arctic","swim","573","","T","null","77","77","1","arctic-dual-task","","T","uppercase","524000","0","6","01d92d17ed0ea9d99d2bac6381808c7ee69318be66dd3daf29c6bf4568786f8d","524000","573","77","1","arctic","","","","",""
"dual-task","null","null","null","","arctic","swim","578","","A","null","77","77","1","arctic-dual-task","","A","uppercase","532000","0","6","01d92d17ed0ea9d99d2bac6381808c7ee69318be66dd3daf29c6bf4568786f8d","532008","578","77","1","arctic","","","","",""
"dual-task","null","null","null","","arctic","swim","682","","B","null","77","77","1","arctic-dual-task","","B","uppercase","540000","0","6","01d92d17ed0ea9d99d2bac6381808c7ee69318be66dd3daf29c6bf4568786f8d","540008","682","77","1","arctic","","","","",""
"dual-task","null","null","null","","arctic","swim","502","","D","null","77","77","1","arctic-dual-task","","D","uppercase","548000","0","6","01d92d17ed0ea9d99d2bac6381808c7ee69318be66dd3daf29c6bf4568786f8d","548013","502","77","1","arctic","","","","",""
"dual-task","null","null","null","","arctic","swim","545","","R","null","77","77","1","arctic-dual-task","","R","uppercase","558000","0","6","01d92d17ed0ea9d99d2bac6381808c7ee69318be66dd3daf29c6bf4568786f8d","558003","545","77","1","arctic","","","","",""
"dual-task","null","null","null","","arctic","swim","607","","e","null","88","88","1","arctic-dual-task","","e","lowercase","566000","0","6","01d92d17ed0ea9d99d2bac6381808c7ee69318be66dd3daf29c6bf4568786f8d","566014","607","88","1","arctic","","","","",""
"dual-task","null","null","null","","arctic","swim","560","","H","null","77","77","1","arctic-dual-task","","H","uppercase","574000","0","6","01d92d17ed0ea9d99d2bac6381808c7ee69318be66dd3daf29c6bf4568786f8d","574002","560","77","1","arctic","","","","",""
"dual-task","null","null","null","","arctic","swim","630","","n","null","88","88","1","arctic-dual-task","","n","lowercase","582000","0","6","01d92d17ed0ea9d99d2bac6381808c7ee69318be66dd3daf29c6bf4568786f8d","582013","630","88","1","arctic","","","","",""
"dual-task","null","null","null","","arctic","swim","562","","n","null","88","88","1","arctic-dual-task","","n","lowercase","588000","0","6","01d92d17ed0ea9d99d2bac6381808c7ee69318be66dd3daf29c6bf4568786f8d","588006","562","88","1","arctic","","","","",""
"dual-task","null","null","null","","arctic","swim","582","","r","null","88","88","1","arctic-dual-task","","r","lowercase","596000","0","6","01d92d17ed0ea9d99d2bac6381808c7ee69318be66dd3daf29c6bf4568786f8d","596007","582","88","1","arctic","","","","",""
"dual-task","null","null","null","","arctic","swim","610","","G","null","77","77","1","arctic-dual-task","","G","uppercase","606000","0","6","01d92d17ed0ea9d99d2bac6381808c7ee69318be66dd3daf29c6bf4568786f8d","606006","610","77","1","arctic","","","","",""
"dual-task","null","null","null","","arctic","swim","622","","h","null","88","88","1","arctic-dual-task","","h","lowercase","616000","0","6","01d92d17ed0ea9d99d2bac6381808c7ee69318be66dd3daf29c6bf4568786f8d","616008","622","88","1","arctic","","","","",""
"dual-task","null","null","null","","arctic","swim","656","","E","null","77","77","1","arctic-dual-task","","E","uppercase","626000","0","6","01d92d17ed0ea9d99d2bac6381808c7ee69318be66dd3daf29c6bf4568786f8d","626010","656","77","1","arctic","","","","",""
"dual-task","null","null","null","","arctic","swim","548","","B","null","77","77","1","arctic-dual-task","","B","uppercase","634000","0","6","01d92d17ed0ea9d99d2bac6381808c7ee69318be66dd3daf29c6bf4568786f8d","634008","548","77","1","arctic","","","","",""
"dual-task","null","null","null","","arctic","swim","676","","h","null","88","88","1","arctic-dual-task","","h","lowercase","640000","0","6","01d92d17ed0ea9d99d2bac6381808c7ee69318be66dd3daf29c6bf4568786f8d","640005","676","88","1","arctic","","","","",""
"dual-task","null","null","null","","arctic","swim","687","","t","null","88","88","1","arctic-dual-task","","t","lowercase","648000","0","6","01d92d17ed0ea9d99d2bac6381808c7ee69318be66dd3daf29c6bf4568786f8d","648005","687","88","1","arctic","","","","",""
"dual-task","null","null","null","","arctic","swim","642","","Q","null","77","77","1","arctic-dual-task","","Q","uppercase","660000","0","6","01d92d17ed0ea9d99d2bac6381808c7ee69318be66dd3daf29c6bf4568786f8d","660013","642","77","1","arctic","","","","",""
"dual-task","null","null","null","","arctic","swim","461","","D","null","77","77","1","arctic-dual-task","","D","uppercase","668000","0","6","01d92d17ed0ea9d99d2bac6381808c7ee69318be66dd3daf29c6bf4568786f8d","668009","461","77","1","arctic","","","","",""
"dual-task","null","null","null","","arctic","swim","594","","B","null","77","77","1","arctic-dual-task","","B","uppercase","676000","0","6","01d92d17ed0ea9d99d2bac6381808c7ee69318be66dd3daf29c6bf4568786f8d","676009","594","77","1","arctic","","","","",""
"dual-task","null","null","null","","arctic","swim","657","","f","null","88","88","1","arctic-dual-task","","f","lowercase","686000","0","6","01d92d17ed0ea9d99d2bac6381808c7ee69318be66dd3daf29c6bf4568786f8d","686002","657","88","1","arctic","","","","",""
"dual-task","null","null","null","","arctic","swim","544","","D","null","77","77","1","arctic-dual-task","","D","uppercase","692000","0","6","01d92d17ed0ea9d99d2bac6381808c7ee69318be66dd3daf29c6bf4568786f8d","692013","544","77","1","arctic","","","","",""
"dual-task","null","null","null","","arctic","swim","579","","F","null","77","77","1","arctic-dual-task","","F","uppercase","702000","0","6","01d92d17ed0ea9d99d2bac6381808c7ee69318be66dd3daf29c6bf4568786f8d","702001","579","77","1","arctic","","","","",""
"dual-task","null","null","null","","arctic","swim","617","","g","null","88","88","1","arctic-dual-task","","g","lowercase","710000","0","6","01d92d17ed0ea9d99d2bac6381808c7ee69318be66dd3daf29c6bf4568786f8d","710011","617","88","1","arctic","","","","",""
"dual-task","null","null","null","","arctic","swim","610","","N","null","77","77","1","arctic-dual-task","","N","uppercase","716000","0","6","01d92d17ed0ea9d99d2bac6381808c7ee69318be66dd3daf29c6bf4568786f8d","716007","610","77","1","arctic","","","","",""
"dual-task","null","null","null","","arctic","swim","556","","g","null","88","88","1","arctic-dual-task","","g","lowercase","724000","0","6","01d92d17ed0ea9d99d2bac6381808c7ee69318be66dd3daf29c6bf4568786f8d","724005","556","88","1","arctic","","","","",""
"dual-task","null","null","null","","arctic","swim","712","","T","null","77","77","1","arctic-dual-task","","T","uppercase","732000","0","6","01d92d17ed0ea9d99d2bac6381808c7ee69318be66dd3daf29c6bf4568786f8d","732013","712","77","1","arctic","","","","",""
"dual-task","null","null","null","","arctic","swim","651","","e","null","88","88","1","arctic-dual-task","","e","lowercase","740000","0","6","01d92d17ed0ea9d99d2bac6381808c7ee69318be66dd3daf29c6bf4568786f8d","740005","651","88","1","arctic","","","","",""
"dual-task","null","null","null","","arctic","swim","632","","b","null","88","88","1","arctic-dual-task","","b","lowercase","748000","0","6","01d92d17ed0ea9d99d2bac6381808c7ee69318be66dd3daf29c6bf4568786f8d","748001","632","88","1","arctic","","","","",""
"dual-task","null","null","null","","arctic","swim","494","","F","null","77","77","1","arctic-dual-task","","F","uppercase","760000","0","6","01d92d17ed0ea9d99d2bac6381808c7ee69318be66dd3daf29c6bf4568786f8d","760006","494","77","1","arctic","","","","",""
"dual-task","null","null","null","","arctic","swim","617","","d","null","88","88","1","arctic-dual-task","","d","lowercase","770000","0","6","01d92d17ed0ea9d99d2bac6381808c7ee69318be66dd3daf29c6bf4568786f8d","770013","617","88","1","arctic","","","","",""
"dual-task","null","null","null","","arctic","swim","697","","q","null","88","88","1","arctic-dual-task","","q","lowercase","776000","0","6","01d92d17ed0ea9d99d2bac6381808c7ee69318be66dd3daf29c6bf4568786f8d","776012","697","88","1","arctic","","","","",""
"dual-task","null","null","null","","arctic","swim","598","","G","null","77","77","1","arctic-dual-task","","G","uppercase","790000","0","6","01d92d17ed0ea9d99d2bac6381808c7ee69318be66dd3daf29c6bf4568786f8d","790005","598","77","1","arctic","","","","",""
"audio-keyboard-response","29","991671","0.0-6.0-0.0-1.0","01d92d17ed0ea9d99d2bac6381808c7ee69318be66dd3daf29c6bf4568786f8d","arctic","swim","null","","audio/story_arctic.mp3","","null","","","","","","","","","","","","","","","","","","","",""
"html-button-response","30","996956","0.0-6.0-0.0-2.0","01d92d17ed0ea9d99d2bac6381808c7ee69318be66dd3daf29c6bf4568786f8d","arctic","swim","5282","","<p>This concludes the story. Thank you for listening.</p><p>You will now answer some questions about the content of the story.</p>","0","","","","","","","","","","","","","","","","","","","","",""
"survey-multi-choice","31","1005109","0.0-6.0-0.0-3.0-0.0","01d92d17ed0ea9d99d2bac6381808c7ee69318be66dd3daf29c6bf4568786f8d","arctic","swim","8141","","<b>What is the name of the narrator&#39;s neighbour?</b>","","","","1","arctic-comprehension","","","","","","","","","","","","","{""Q0"":""Dave""}","","","",""
"survey-multi-choice","32","1018901","0.0-6.0-0.0-3.0-0.1","01d92d17ed0ea9d99d2bac6381808c7ee69318be66dd3daf29c6bf4568786f8d","arctic","swim","13528","","<b>How did the narrator&#39;s neighbour respond when she told him about her expedition?</b>","","","","1","arctic-comprehension","","","","","","","","","","","","","{""Q0"":""He said she was going to fail.""}","","","",""
"survey-multi-choice","33","1037371","0.0-6.0-0.0-3.0-0.2","01d92d17ed0ea9d99d2bac6381808c7ee69318be66dd3daf29c6bf4568786f8d","arctic","swim","18207","","<b>How did the dogs respond when they saw the bears?</b>","","","","1","arctic-comprehension","","","","","","","","","","","","","{""Q0"":""Approached them""}","","","",""
"survey-multi-choice","34","1045897","0.0-6.0-0.0-3.0-0.3","01d92d17ed0ea9d99d2bac6381808c7ee69318be66dd3daf29c6bf4568786f8d","arctic","swim","8260","","<b>Which dog on the narrator&#39;s dog team never followed instructions?</b>","","","","1","arctic-comprehension","","","","","","","","","","","","","{""Q0"":""Robert""}","","","",""
"survey-multi-choice","35","1052562","0.0-6.0-0.0-3.0-0.4","01d92d17ed0ea9d99d2bac6381808c7ee69318be66dd3daf29c6bf4568786f8d","arctic","swim","6400","","<b>How many sponsorships did the narrator receive to support her expedition?</b>","","","","1","arctic-comprehension","","","","","","","","","","","","","{""Q0"":""None""}","","","",""
"survey-multi-choice","36","1060212","0.0-6.0-0.0-3.0-0.5","01d92d17ed0ea9d99d2bac6381808c7ee69318be66dd3daf29c6bf4568786f8d","arctic","swim","7385","","<b>What were the weather conditions in the Arctic like the winter of the narrator&#39;s expedition?</b>","","","","1","arctic-comprehension","","","","","","","","","","","","","{""Q0"":""There were more storms than any other winter in recorded history.""}","","","",""
"survey-multi-choice","37","1066554","0.0-6.0-0.0-3.0-0.6","01d92d17ed0ea9d99d2bac6381808c7ee69318be66dd3daf29c6bf4568786f8d","arctic","swim","6075","","<b>What was the objective of the narrator&#39;s expedition?</b>","","","","1","arctic-comprehension","","","","","","","","","","","","","{""Q0"":""Dogsled across Arctic America""}","","","",""
"survey-multi-choice","38","1072152","0.0-6.0-0.0-3.0-0.7","01d92d17ed0ea9d99d2bac6381808c7ee69318be66dd3daf29c6bf4568786f8d","arctic","swim","5332","","<b>What did the narrator do for leisure while in her tent?</b>","","","","1","arctic-comprehension","","","","","","","","","","","","","{""Q0"":""Read""}","","","",""
"survey-multi-choice","39","1082394","0.0-6.0-0.0-3.0-0.8","01d92d17ed0ea9d99d2bac6381808c7ee69318be66dd3daf29c6bf4568786f8d","arctic","swim","9976","","<b>How did the narrator prepare for her expedition?</b>","","","","1","arctic-comprehension","","","","","","","","","","","","","{""Q0"":""Trained in Alaska learning how to dogsled""}","","","",""
"survey-multi-choice","40","1090424","0.0-6.0-0.0-3.0-0.9","01d92d17ed0ea9d99d2bac6381808c7ee69318be66dd3daf29c6bf4568786f8d","arctic","swim","7762","","<b>How did the narrator&#39;s encounter with the polar bears end?</b>","","","","1","arctic-comprehension","","","","","","","","","","","","","{""Q0"":""The bears walked back to their den.""}","","","",""
"html-button-response","41","1094942","0.0-6.0-0.0-4.0","01d92d17ed0ea9d99d2bac6381808c7ee69318be66dd3daf29c6bf4568786f8d","arctic","swim","4265","","<p>Thank you for your responses.</p><p>You will now answer some questions about your impressions of the story.</p>","0","","","","","","","","","","","","","","","","","","","","",""
"html-button-response","42","1099199","0.0-6.0-0.0-5.0-0.0","01d92d17ed0ea9d99d2bac6381808c7ee69318be66dd3daf29c6bf4568786f8d","arctic","swim","4253","","A3","4","","","","arctic-engagement","","","","","","","","","","","","","","5","absorption","",""
"html-button-response","43","1101940","0.0-6.0-0.0-5.0-0.1","01d92d17ed0ea9d99d2bac6381808c7ee69318be66dd3daf29c6bf4568786f8d","arctic","swim","2487","","E10","5","","","","arctic-engagement","","","","","","","","","","","","","","6","enjoyment","",""
"html-button-response","44","1110044","0.0-6.0-0.0-5.0-0.2","01d92d17ed0ea9d99d2bac6381808c7ee69318be66dd3daf29c6bf4568786f8d","arctic","swim","7852","","A4","5","","","","arctic-engagement","","","","","","","","","","","","","","6","absorption","",""
"html-button-response","45","1114767","0.0-6.0-0.0-5.0-0.3","01d92d17ed0ea9d99d2bac6381808c7ee69318be66dd3daf29c6bf4568786f8d","arctic","swim","4469","","EE2","5","","","","arctic-engagement","","","","","","","","","","","","","","6","emo-engage","",""
"html-button-response","46","1121301","0.0-6.0-0.0-5.0-0.4","01d92d17ed0ea9d99d2bac6381808c7ee69318be66dd3daf29c6bf4568786f8d","arctic","swim","6282","","A5","4","","","","arctic-engagement","","","","","","","","","","","","","","5","absorption","",""
"html-button-response","47","1125644","0.0-6.0-0.0-5.0-0.5","01d92d17ed0ea9d99d2bac6381808c7ee69318be66dd3daf29c6bf4568786f8d","arctic","swim","4089","","EE4","4","","","","arctic-engagement","","","","","","","","","","","","","","5","emo-engage","",""
"html-button-response","48","1134844","0.0-6.0-0.0-5.0-0.6","01d92d17ed0ea9d99d2bac6381808c7ee69318be66dd3daf29c6bf4568786f8d","arctic","swim","8947","","E6","4","","","","arctic-engagement","","","","","","","","","","","","","","5","enjoyment","",""
"html-button-response","49","1139444","0.0-6.0-0.0-5.0-0.7","01d92d17ed0ea9d99d2bac6381808c7ee69318be66dd3daf29c6bf4568786f8d","arctic","swim","4348","","EE5","4","","","","arctic-engagement","","","","","","","","","","","","","","5","emo-engage","",""
"html-button-response","50","1145831","0.0-6.0-0.0-5.0-0.8","01d92d17ed0ea9d99d2bac6381808c7ee69318be66dd3daf29c6bf4568786f8d","arctic","swim","6133","","EE1","3","","","","arctic-engagement","","","","","","","","","","","","","","4","emo-engage","",""
"html-button-response","51","1151199","0.0-6.0-0.0-5.0-0.9","01d92d17ed0ea9d99d2bac6381808c7ee69318be66dd3daf29c6bf4568786f8d","arctic","swim","5115","","MS2","4","","","","arctic-engagement","","","","","","","","","","","","","","5","mental-sim","",""
"html-button-response","52","1163336","0.0-6.0-0.0-5.0-0.10","01d92d17ed0ea9d99d2bac6381808c7ee69318be66dd3daf29c6bf4568786f8d","arctic","swim","11883","","EE3","4","","","","arctic-engagement","","","","","","","","","","","","","","5","emo-engage","",""
"html-button-response","53","1171471","0.0-6.0-0.0-5.0-0.11","01d92d17ed0ea9d99d2bac6381808c7ee69318be66dd3daf29c6bf4568786f8d","arctic","swim","7881","","A1","3","","","","arctic-engagement","","","","","","","","","","","","","","4","absorption","",""
"html-button-response","54","1174400","0.0-6.0-0.0-5.0-0.12","01d92d17ed0ea9d99d2bac6381808c7ee69318be66dd3daf29c6bf4568786f8d","arctic","swim","2676","","E7","5","","","","arctic-engagement","","","","","","","","","","","","","","6","enjoyment","",""
"html-button-response","55","1178827","0.0-6.0-0.0-5.0-0.13","01d92d17ed0ea9d99d2bac6381808c7ee69318be66dd3daf29c6bf4568786f8d","arctic","swim","4174","","E8","5","","","","arctic-engagement","","","","","","","","","","","","","","6","enjoyment","",""
"html-button-response","56","1183435","0.0-6.0-0.0-5.0-0.14","01d92d17ed0ea9d99d2bac6381808c7ee69318be66dd3daf29c6bf4568786f8d","arctic","swim","4354","","A2","5","","","","arctic-engagement","","","","","","","","","","","","","","6","absorption","",""
"html-button-response","57","1188044","0.0-6.0-0.0-5.0-0.15","01d92d17ed0ea9d99d2bac6381808c7ee69318be66dd3daf29c6bf4568786f8d","arctic","swim","4355","","MS3","5","","","","arctic-engagement","","","","","","","","","","","","","","6","mental-sim","",""
"html-button-response","58","1195626","0.0-6.0-0.0-5.0-0.16","01d92d17ed0ea9d99d2bac6381808c7ee69318be66dd3daf29c6bf4568786f8d","arctic","swim","7328","","MS1","3","","","","arctic-engagement","","","","","","","","","","","","","","4","mental-sim","",""
"html-button-response","59","1201335","0.0-6.0-0.0-5.0-0.17","01d92d17ed0ea9d99d2bac6381808c7ee69318be66dd3daf29c6bf4568786f8d","arctic","swim","5455","","E1","5","","","","arctic-engagement","","","","","","","","","","","","","","6","enjoyment","",""
"html-keyboard-response","60","1312240","0.0-6.0-1.0","01d92d17ed0ea9d99d2bac6381808c7ee69318be66dd3daf29c6bf4568786f8d","arctic","swim","110655","","<p>Thank you for your responses. You will now listen to the second story.</p><p>Remember, as you listen to the story you will see letters appear on the screen.</br>As quickly as possible, press <b>&lt;x&gt;</b> if the letter is lowercase and <b>&lt;m&gt;</b> if the letter is uppercase.</p><p>Press <b>&lt;x&gt;</b> or <b>&lt;m&gt;</b> to begin listening!</p>","","77","","","","","","","","","","","","","","","","","","","",""
"html-keyboard-response","61","1312742","0.0-6.0-2.0-0.0","01d92d17ed0ea9d99d2bac6381808c7ee69318be66dd3daf29c6bf4568786f8d","arctic","swim","null","","<div style=""font-size:60px;"" tabindex=""0"">+</div>","","null","","","","","","","","","","","","","","","","","","","",""
"dual-task","null","null","null","","arctic","swim","887","","D","null","77","77","1","swim-dual-task","","D","uppercase","18000","0","6","01d92d17ed0ea9d99d2bac6381808c7ee69318be66dd3daf29c6bf4568786f8d","18012","887","77","1","swim","","","","",""
"dual-task","null","null","null","","arctic","swim","688","","n","null","88","88","1","swim-dual-task","","n","lowercase","30000","0","6","01d92d17ed0ea9d99d2bac6381808c7ee69318be66dd3daf29c6bf4568786f8d","30010","688","88","1","swim","","","","",""
"dual-task","null","null","null","","arctic","swim","488","","h","null","88","88","1","swim-dual-task","","h","lowercase","40000","0","6","01d92d17ed0ea9d99d2bac6381808c7ee69318be66dd3daf29c6bf4568786f8d","40003","488","88","1","swim","","","","",""
"dual-task","null","null","null","","arctic","swim","600","","F","null","77","77","1","swim-dual-task","","F","uppercase","54000","0","6","01d92d17ed0ea9d99d2bac6381808c7ee69318be66dd3daf29c6bf4568786f8d","54011","600","77","1","swim","","","","",""
"dual-task","null","null","null","","arctic","swim","569","","D","null","77","77","1","swim-dual-task","","D","uppercase","62000","0","6","01d92d17ed0ea9d99d2bac6381808c7ee69318be66dd3daf29c6bf4568786f8d","62008","569","77","1","swim","","","","",""
"dual-task","null","null","null","","arctic","swim","590","","N","null","77","77","1","swim-dual-task","","N","uppercase","76000","0","6","01d92d17ed0ea9d99d2bac6381808c7ee69318be66dd3daf29c6bf4568786f8d","76009","590","77","1","swim","","","","",""
"dual-task","null","null","null","","arctic","swim","553","","G","null","77","77","1","swim-dual-task","","G","uppercase","86000","0","6","01d92d17ed0ea9d99d2bac6381808c7ee69318be66dd3daf29c6bf4568786f8d","86008","553","77","1","swim","","","","",""
"dual-task","null","null","null","","arctic","swim","578","","E","null","77","77","1","swim-dual-task","","E","uppercase","100000","0","6","01d92d17ed0ea9d99d2bac6381808c7ee69318be66dd3daf29c6bf4568786f8d","99998","578","77","1","swim","","","","",""
"dual-task","null","null","null","","arctic","swim","610","","h","null","88","88","1","swim-dual-task","","h","lowercase","106000","0","6","01d92d17ed0ea9d99d2bac6381808c7ee69318be66dd3daf29c6bf4568786f8d","106009","610","88","1","swim","","","","",""
"dual-task","null","null","null","","arctic","swim","538","","r","null","88","88","1","swim-dual-task","","r","lowercase","114000","0","6","01d92d17ed0ea9d99d2bac6381808c7ee69318be66dd3daf29c6bf4568786f8d","114006","538","88","1","swim","","","","",""
"dual-task","null","null","null","","arctic","swim","492","","f","null","88","88","1","swim-dual-task","","f","lowercase","128000","0","6","01d92d17ed0ea9d99d2bac6381808c7ee69318be66dd3daf29c6bf4568786f8d","128010","492","88","1","swim","","","","",""
"dual-task","null","null","null","","arctic","swim","530","","h","null","88","88","1","swim-dual-task","","h","lowercase","140000","0","6","01d92d17ed0ea9d99d2bac6381808c7ee69318be66dd3daf29c6bf4568786f8d","140001","530","88","1","swim","","","","",""
"dual-task","null","null","null","","arctic","swim","529","","b","null","88","88","1","swim-dual-task","","b","lowercase","152000","0","6","01d92d17ed0ea9d99d2bac6381808c7ee69318be66dd3daf29c6bf4568786f8d","152005","529","88","1","swim","","","","",""
"dual-task","null","null","null","","arctic","swim","633","","n","null","88","88","1","swim-dual-task","","n","lowercase","164000","0","6","01d92d17ed0ea9d99d2bac6381808c7ee69318be66dd3daf29c6bf4568786f8d","164014","633","88","1","swim","","","","",""
"dual-task","null","null","null","","arctic","swim","614","","R","null","77","77","1","swim-dual-task","","R","uppercase","172000","0","6","01d92d17ed0ea9d99d2bac6381808c7ee69318be66dd3daf29c6bf4568786f8d","172000","614","77","1","swim","","","","",""
"dual-task","null","null","null","","arctic","swim","534","","f","null","88","88","1","swim-dual-task","","f","lowercase","184000","0","6","01d92d17ed0ea9d99d2bac6381808c7ee69318be66dd3daf29c6bf4568786f8d","184000","534","88","1","swim","","","","",""
"dual-task","null","null","null","","arctic","swim","527","","F","null","77","77","1","swim-dual-task","","F","uppercase","194000","0","6","01d92d17ed0ea9d99d2bac6381808c7ee69318be66dd3daf29c6bf4568786f8d","194003","527","77","1","swim","","","","",""
"dual-task","null","null","null","","arctic","swim","519","","a","null","88","88","1","swim-dual-task","","a","lowercase","206000","0","6","01d92d17ed0ea9d99d2bac6381808c7ee69318be66dd3daf29c6bf4568786f8d","206007","519","88","1","swim","","","","",""
"dual-task","null","null","null","","arctic","swim","561","","Q","null","77","77","1","swim-dual-task","","Q","uppercase","220000","0","6","01d92d17ed0ea9d99d2bac6381808c7ee69318be66dd3daf29c6bf4568786f8d","220003","561","77","1","swim","","","","",""
"dual-task","null","null","null","","arctic","swim","568","","d","null","88","88","1","swim-dual-task","","d","lowercase","232000","0","6","01d92d17ed0ea9d99d2bac6381808c7ee69318be66dd3daf29c6bf4568786f8d","232011","568","88","1","swim","","","","",""
"dual-task","null","null","null","","arctic","swim","645","","T","null","77","77","1","swim-dual-task","","T","uppercase","242000","0","6","01d92d17ed0ea9d99d2bac6381808c7ee69318be66dd3daf29c6bf4568786f8d","242007","645","77","1","swim","","","","",""
"dual-task","null","null","null","","arctic","swim","722","","R","null","77","77","1","swim-dual-task","","R","uppercase","256000","0","6","01d92d17ed0ea9d99d2bac6381808c7ee69318be66dd3daf29c6bf4568786f8d","255998","722","77","1","swim","","","","",""
"dual-task","null","null","null","","arctic","swim","561","","t","null","88","88","1","swim-dual-task","","t","lowercase","262000","0","6","01d92d17ed0ea9d99d2bac6381808c7ee69318be66dd3daf29c6bf4568786f8d","262000","561","88","1","swim","","","","",""
"dual-task","null","null","null","","arctic","swim","718","","H","null","77","77","1","swim-dual-task","","H","uppercase","272000","0","6","01d92d17ed0ea9d99d2bac6381808c7ee69318be66dd3daf29c6bf4568786f8d","272006","718","77","1","swim","","","","",""
"dual-task","null","null","null","","arctic","swim","566","","t","null","88","88","1","swim-dual-task","","t","lowercase","280000","0","6","01d92d17ed0ea9d99d2bac6381808c7ee69318be66dd3daf29c6bf4568786f8d","280009","566","88","1","swim","","","","",""
"dual-task","null","null","null","","arctic","swim","549","","a","null","88","88","1","swim-dual-task","","a","lowercase","288000","0","6","01d92d17ed0ea9d99d2bac6381808c7ee69318be66dd3daf29c6bf4568786f8d","288006","549","88","1","swim","","","","",""
"dual-task","null","null","null","","arctic","swim","695","","N","null","77","77","1","swim-dual-task","","N","uppercase","300000","0","6","01d92d17ed0ea9d99d2bac6381808c7ee69318be66dd3daf29c6bf4568786f8d","300000","695","77","1","swim","","","","",""
"dual-task","null","null","null","","arctic","swim","732","","b","null","88","88","1","swim-dual-task","","b","lowercase","308000","0","6","01d92d17ed0ea9d99d2bac6381808c7ee69318be66dd3daf29c6bf4568786f8d","308006","732","88","1","swim","","","","",""
"dual-task","null","null","null","","arctic","swim","526","","g","null","88","88","1","swim-dual-task","","g","lowercase","314000","0","6","01d92d17ed0ea9d99d2bac6381808c7ee69318be66dd3daf29c6bf4568786f8d","314008","526","88","1","swim","","","","",""
"dual-task","null","null","null","","arctic","swim","577","","e","null","88","88","1","swim-dual-task","","e","lowercase","324000","0","6","01d92d17ed0ea9d99d2bac6381808c7ee69318be66dd3daf29c6bf4568786f8d","324006","577","88","1","swim","","","","",""
"dual-task","null","null","null","","arctic","swim","611","","n","null","88","88","1","swim-dual-task","","n","lowercase","334000","0","6","01d92d17ed0ea9d99d2bac6381808c7ee69318be66dd3daf29c6bf4568786f8d","334008","611","88","1","swim","","","","",""
"dual-task","null","null","null","","arctic","swim","603","","A","null","77","77","1","swim-dual-task","","A","uppercase","342000","0","6","01d92d17ed0ea9d99d2bac6381808c7ee69318be66dd3daf29c6bf4568786f8d","342009","603","77","1","swim","","","","",""
"dual-task","null","null","null","","arctic","swim","636","","E","null","77","77","1","swim-dual-task","","E","uppercase","350000","0","6","01d92d17ed0ea9d99d2bac6381808c7ee69318be66dd3daf29c6bf4568786f8d","350011","636","77","1","swim","","","","",""
"dual-task","null","null","null","","arctic","swim","588","","D","null","77","77","1","swim-dual-task","","D","uppercase","358000","0","6","01d92d17ed0ea9d99d2bac6381808c7ee69318be66dd3daf29c6bf4568786f8d","358008","588","77","1","swim","","","","",""
"dual-task","null","null","null","","arctic","swim","589","","r","null","88","88","1","swim-dual-task","","r","lowercase","368000","0","6","01d92d17ed0ea9d99d2bac6381808c7ee69318be66dd3daf29c6bf4568786f8d","367999","589","88","1","swim","","","","",""
"dual-task","null","null","null","","arctic","swim","680","","t","null","88","88","1","swim-dual-task","","t","lowercase","376000","0","6","01d92d17ed0ea9d99d2bac6381808c7ee69318be66dd3daf29c6bf4568786f8d","376011","680","88","1","swim","","","","",""
"dual-task","null","null","null","","arctic","swim","680","","T","null","77","77","1","swim-dual-task","","T","uppercase","386000","0","6","01d92d17ed0ea9d99d2bac6381808c7ee69318be66dd3daf29c6bf4568786f8d","386003","680","77","1","swim","","","","",""
"dual-task","null","null","null","","arctic","swim","517","","g","null","88","88","1","swim-dual-task","","g","lowercase","396000","0","6","01d92d17ed0ea9d99d2bac6381808c7ee69318be66dd3daf29c6bf4568786f8d","396007","517","88","1","swim","","","","",""
"dual-task","null","null","null","","arctic","swim","585","","q","null","88","88","1","swim-dual-task","","q","lowercase","402000","0","6","01d92d17ed0ea9d99d2bac6381808c7ee69318be66dd3daf29c6bf4568786f8d","402006","585","88","1","swim","","","","",""
"dual-task","null","null","null","","arctic","swim","566","","e","null","88","88","1","swim-dual-task","","e","lowercase","414000","0","6","01d92d17ed0ea9d99d2bac6381808c7ee69318be66dd3daf29c6bf4568786f8d","414000","566","88","1","swim","","","","",""
"dual-task","null","null","null","","arctic","swim","746","","Q","null","77","77","1","swim-dual-task","","Q","uppercase","426000","0","6","01d92d17ed0ea9d99d2bac6381808c7ee69318be66dd3daf29c6bf4568786f8d","426008","746","77","1","swim","","","","",""
"dual-task","null","null","null","","arctic","swim","576","","b","null","88","88","1","swim-dual-task","","b","lowercase","434000","0","6","01d92d17ed0ea9d99d2bac6381808c7ee69318be66dd3daf29c6bf4568786f8d","434006","576","88","1","swim","","","","",""
"dual-task","null","null","null","","arctic","swim","608","","d","null","88","88","1","swim-dual-task","","d","lowercase","446000","0","6","01d92d17ed0ea9d99d2bac6381808c7ee69318be66dd3daf29c6bf4568786f8d","446006","608","88","1","swim","","","","",""
"dual-task","null","null","null","","arctic","swim","718","","G","null","77","77","1","swim-dual-task","","G","uppercase","452000","0","6","01d92d17ed0ea9d99d2bac6381808c7ee69318be66dd3daf29c6bf4568786f8d","452007","718","77","1","swim","","","","",""
"dual-task","null","null","null","","arctic","swim","534","","G","null","77","77","1","swim-dual-task","","G","uppercase","462000","0","6","01d92d17ed0ea9d99d2bac6381808c7ee69318be66dd3daf29c6bf4568786f8d","462013","534","77","1","swim","","","","",""
"dual-task","null","null","null","","arctic","swim","574","","F","null","77","77","1","swim-dual-task","","F","uppercase","468000","0","6","01d92d17ed0ea9d99d2bac6381808c7ee69318be66dd3daf29c6bf4568786f8d","468009","574","77","1","swim","","","","",""
"dual-task","null","null","null","","arctic","swim","745","","f","null","88","88","1","swim-dual-task","","f","lowercase","480000","0","6","01d92d17ed0ea9d99d2bac6381808c7ee69318be66dd3daf29c6bf4568786f8d","480001","745","88","1","swim","","","","",""
"dual-task","null","null","null","","arctic","swim","728","","t","null","88","88","1","swim-dual-task","","t","lowercase","488000","0","6","01d92d17ed0ea9d99d2bac6381808c7ee69318be66dd3daf29c6bf4568786f8d","488013","728","88","1","swim","","","","",""
"dual-task","null","null","null","","arctic","swim","535","","h","null","88","88","1","swim-dual-task","","h","lowercase","496000","0","6","01d92d17ed0ea9d99d2bac6381808c7ee69318be66dd3daf29c6bf4568786f8d","496004","535","88","1","swim","","","","",""
"dual-task","null","null","null","","arctic","swim","557","","q","null","88","88","1","swim-dual-task","","q","lowercase","504000","0","6","01d92d17ed0ea9d99d2bac6381808c7ee69318be66dd3daf29c6bf4568786f8d","504006","557","88","1","swim","","","","",""
"dual-task","null","null","null","","arctic","swim","557","","f","null","88","88","1","swim-dual-task","","f","lowercase","514000","0","6","01d92d17ed0ea9d99d2bac6381808c7ee69318be66dd3daf29c6bf4568786f8d","514008","557","88","1","swim","","","","",""
"dual-task","null","null","null","","arctic","swim","534","","a","null","88","88","1","swim-dual-task","","a","lowercase","526000","0","6","01d92d17ed0ea9d99d2bac6381808c7ee69318be66dd3daf29c6bf4568786f8d","526008","534","88","1","swim","","","","",""
"dual-task","null","null","null","","arctic","swim","523","","B","null","77","77","1","swim-dual-task","","B","uppercase","534000","0","6","01d92d17ed0ea9d99d2bac6381808c7ee69318be66dd3daf29c6bf4568786f8d","534000","523","77","1","swim","","","","",""
"dual-task","null","null","null","","arctic","swim","541","","e","null","88","88","1","swim-dual-task","","e","lowercase","546000","0","6","01d92d17ed0ea9d99d2bac6381808c7ee69318be66dd3daf29c6bf4568786f8d","546008","541","88","1","swim","","","","",""
"dual-task","null","null","null","","arctic","swim","793","","q","null","88","88","1","swim-dual-task","","q","lowercase","558000","0","6","01d92d17ed0ea9d99d2bac6381808c7ee69318be66dd3daf29c6bf4568786f8d","558014","793","88","1","swim","","","","",""
"dual-task","null","null","null","","arctic","swim","688","","B","null","77","77","1","swim-dual-task","","B","uppercase","570000","0","6","01d92d17ed0ea9d99d2bac6381808c7ee69318be66dd3daf29c6bf4568786f8d","570010","688","77","1","swim","","","","",""
"dual-task","null","null","null","","arctic","swim","620","","R","null","77","77","1","swim-dual-task","","R","uppercase","582000","0","6","01d92d17ed0ea9d99d2bac6381808c7ee69318be66dd3daf29c6bf4568786f8d","582008","620","77","1","swim","","","","",""
"dual-task","null","null","null","","arctic","swim","598","","e","null","88","88","1","swim-dual-task","","e","lowercase","594000","0","6","01d92d17ed0ea9d99d2bac6381808c7ee69318be66dd3daf29c6bf4568786f8d","594002","598","88","1","swim","","","","",""
"dual-task","null","null","null","","arctic","swim","561","","b","null","88","88","1","swim-dual-task","","b","lowercase","602000","0","6","01d92d17ed0ea9d99d2bac6381808c7ee69318be66dd3daf29c6bf4568786f8d","601999","561","88","1","swim","","","","",""
"dual-task","null","null","null","","arctic","swim","656","","N","null","77","77","1","swim-dual-task","","N","uppercase","616000","0","6","01d92d17ed0ea9d99d2bac6381808c7ee69318be66dd3daf29c6bf4568786f8d","616008","656","77","1","swim","","","","",""
"dual-task","null","null","null","","arctic","swim","619","","B","null","77","77","1","swim-dual-task","","B","uppercase","622000","0","6","01d92d17ed0ea9d99d2bac6381808c7ee69318be66dd3daf29c6bf4568786f8d","622001","619","77","1","swim","","","","",""
"dual-task","null","null","null","","arctic","swim","684","","r","null","88","88","1","swim-dual-task","","r","lowercase","636000","0","6","01d92d17ed0ea9d99d2bac6381808c7ee69318be66dd3daf29c6bf4568786f8d","636006","684","88","1","swim","","","","",""
"dual-task","null","null","null","","arctic","swim","628","","Q","null","77","77","1","swim-dual-task","","Q","uppercase","644000","0","6","01d92d17ed0ea9d99d2bac6381808c7ee69318be66dd3daf29c6bf4568786f8d","644001","628","77","1","swim","","","","",""
"dual-task","null","null","null","","arctic","swim","703","","H","null","77","77","1","swim-dual-task","","H","uppercase","654000","0","6","01d92d17ed0ea9d99d2bac6381808c7ee69318be66dd3daf29c6bf4568786f8d","654006","703","77","1","swim","","","","",""
"dual-task","null","null","null","","arctic","swim","652","","g","null","88","88","1","swim-dual-task","","g","lowercase","668000","0","6","01d92d17ed0ea9d99d2bac6381808c7ee69318be66dd3daf29c6bf4568786f8d","668008","652","88","1","swim","","","","",""
"dual-task","null","null","null","","arctic","swim","615","","g","null","88","88","1","swim-dual-task","","g","lowercase","676000","0","6","01d92d17ed0ea9d99d2bac6381808c7ee69318be66dd3daf29c6bf4568786f8d","676000","615","88","1","swim","","","","",""
"dual-task","null","null","null","","arctic","swim","625","","d","null","88","88","1","swim-dual-task","","d","lowercase","686000","0","6","01d92d17ed0ea9d99d2bac6381808c7ee69318be66dd3daf29c6bf4568786f8d","686006","625","88","1","swim","","","","",""
"dual-task","null","null","null","","arctic","swim","511","","G","null","77","77","1","swim-dual-task","","G","uppercase","698000","0","6","01d92d17ed0ea9d99d2bac6381808c7ee69318be66dd3daf29c6bf4568786f8d","698013","511","77","1","swim","","","","",""
"dual-task","null","null","null","","arctic","swim","566","","F","null","77","77","1","swim-dual-task","","F","uppercase","708000","0","6","01d92d17ed0ea9d99d2bac6381808c7ee69318be66dd3daf29c6bf4568786f8d","708014","566","77","1","swim","","","","",""
"dual-task","null","null","null","","arctic","swim","616","","r","null","88","88","1","swim-dual-task","","r","lowercase","720000","0","6","01d92d17ed0ea9d99d2bac6381808c7ee69318be66dd3daf29c6bf4568786f8d","720006","616","88","1","swim","","","","",""
"dual-task","null","null","null","","arctic","swim","653","","E","null","77","77","1","swim-dual-task","","E","uppercase","728000","0","6","01d92d17ed0ea9d99d2bac6381808c7ee69318be66dd3daf29c6bf4568786f8d","728006","653","77","1","swim","","","","",""
"dual-task","null","null","null","","arctic","swim","597","","A","null","77","77","1","swim-dual-task","","A","uppercase","740000","0","6","01d92d17ed0ea9d99d2bac6381808c7ee69318be66dd3daf29c6bf4568786f8d","740000","597","77","1","swim","","","","",""
"dual-task","null","null","null","","arctic","swim","624","","Q","null","77","77","1","swim-dual-task","","Q","uppercase","754000","0","6","01d92d17ed0ea9d99d2bac6381808c7ee69318be66dd3daf29c6bf4568786f8d","754002","624","77","1","swim","","","","",""
"dual-task","null","null","null","","arctic","swim","573","","B","null","77","77","1","swim-dual-task","","B","uppercase","762000","0","6","01d92d17ed0ea9d99d2bac6381808c7ee69318be66dd3daf29c6bf4568786f8d","762013","573","77","1","swim","","","","",""
"dual-task","null","null","null","","arctic","swim","488","","R","null","77","77","1","swim-dual-task","","R","uppercase","770000","0","6","01d92d17ed0ea9d99d2bac6381808c7ee69318be66dd3daf29c6bf4568786f8d","769999","488","77","1","swim","","","","",""
"dual-task","null","null","null","","arctic","swim","569","","N","null","77","77","1","swim-dual-task","","N","uppercase","778000","0","6","01d92d17ed0ea9d99d2bac6381808c7ee69318be66dd3daf29c6bf4568786f8d","778014","569","77","1","swim","","","","",""
"dual-task","null","null","null","","arctic","swim","1004","","H","null","77","77","1","swim-dual-task","","H","uppercase","786000","0","6","01d92d17ed0ea9d99d2bac6381808c7ee69318be66dd3daf29c6bf4568786f8d","786008","1004","77","1","swim","","","","",""
"dual-task","null","null","null","","arctic","swim","594","","a","null","88","88","1","swim-dual-task","","a","lowercase","800000","0","6","01d92d17ed0ea9d99d2bac6381808c7ee69318be66dd3daf29c6bf4568786f8d","800013","594","88","1","swim","","","","",""
"audio-keyboard-response","62","2122783","0.0-6.0-2.0-1.0","01d92d17ed0ea9d99d2bac6381808c7ee69318be66dd3daf29c6bf4568786f8d","arctic","swim","null","","audio/story_swim_scrambled.mp3","","null","","","","","","","","","","","","","","","","","","","",""
"html-button-response","63","2219024","0.0-6.0-2.0-2.0","01d92d17ed0ea9d99d2bac6381808c7ee69318be66dd3daf29c6bf4568786f8d","arctic","swim","96239","","<p>This concludes the story. Thank you for listening.</p><p>You will now answer some questions about the content of the story.</p>","0","","","","","","","","","","","","","","","","","","","","",""
"survey-multi-choice","64","2225801","0.0-6.0-2.0-3.0-0.0","01d92d17ed0ea9d99d2bac6381808c7ee69318be66dd3daf29c6bf4568786f8d","arctic","swim","6769","","<b>What is the narrator afraid of, aside from the water?</b>","","","","1","swim-comprehension","","","","","","","","","","","","","{""Q0"":""Heights""}","","","",""
"survey-multi-choice","65","2242701","0.0-6.0-2.0-3.0-0.1","01d92d17ed0ea9d99d2bac6381808c7ee69318be66dd3daf29c6bf4568786f8d","arctic","swim","16638","","<b>How did the narrator train for his swim test?</b>","","","","1","swim-comprehension","","","","","","","","","","","","","{""Q0"":""Took his kids to the pool every day""}","","","",""
"survey-multi-choice","66","2253898","0.0-6.0-2.0-3.0-0.2","01d92d17ed0ea9d99d2bac6381808c7ee69318be66dd3daf29c6bf4568786f8d","arctic","swim","10936","","<b>What gave the narrator his greatest feeling of accomplishment?</b>","","","","1","swim-comprehension","","","","","","","","","","","","","{""Q0"":""Passing the water survival course""}","","","",""
"survey-multi-choice","67","2264330","0.0-6.0-2.0-3.0-0.3","01d92d17ed0ea9d99d2bac6381808c7ee69318be66dd3daf29c6bf4568786f8d","arctic","swim","10170","","<b>What was the final step of the first swim test in the pool?</b>","","","","1","swim-comprehension","","","","","","","","","","","","","{""Q0"":""Tread water with hands above the water""}","","","",""
"survey-multi-choice","68","2275387","0.0-6.0-2.0-3.0-0.4","01d92d17ed0ea9d99d2bac6381808c7ee69318be66dd3daf29c6bf4568786f8d","arctic","swim","10793","","<b>How often does the narrator swim, now that he is a good swimmer?</b>","","","","0","swim-comprehension","","","","","","","","","","","","","{""Q0"":""Every weekend with his kids""}","","","",""
"survey-multi-choice","69","2288298","0.0-6.0-2.0-3.0-0.5","01d92d17ed0ea9d99d2bac6381808c7ee69318be66dd3daf29c6bf4568786f8d","arctic","swim","12645","","<b>What were the astronaut candidates trained to do at the naval air station?</b>","","","","1","swim-comprehension","","","","","","","","","","","","","{""Q0"":""Eject out of aircraft and survive in water long enough to be rescued""}","","","",""
"survey-multi-choice","70","2294946","0.0-6.0-2.0-3.0-0.6","01d92d17ed0ea9d99d2bac6381808c7ee69318be66dd3daf29c6bf4568786f8d","arctic","swim","6383","","<b>How many astronaut candidates passed the first swim test?</b>","","","","1","swim-comprehension","","","","","","","","","","","","","{""Q0"":""All of them""}","","","",""
"survey-multi-choice","71","2305541","0.0-6.0-2.0-3.0-0.7","01d92d17ed0ea9d99d2bac6381808c7ee69318be66dd3daf29c6bf4568786f8d","arctic","swim","10330","","<b>How many times did the astronaut candidates have to complete the final exercise to pass?</b>","","","","1","swim-comprehension","","","","","","","","","","","","","{""Q0"":""Two""}","","","",""
"survey-multi-choice","72","2314067","0.0-6.0-2.0-3.0-0.8","01d92d17ed0ea9d99d2bac6381808c7ee69318be66dd3daf29c6bf4568786f8d","arctic","swim","8258","","<b>How many astronaut candidates reported for duty at the Johnson Space Center?</b>","","","","1","swim-comprehension","","","","","","","","","","","","","{""Q0"":""Forty-four""}","","","",""
"survey-multi-choice","73","2329583","0.0-6.0-2.0-3.0-0.9","01d92d17ed0ea9d99d2bac6381808c7ee69318be66dd3daf29c6bf4568786f8d","arctic","swim","15248","","<b>Where is the home of naval aviation?</b>","","","","1","swim-comprehension","","","","","","","","","","","","","{""Q0"":""Pensacola""}","","","",""
"html-button-response","74","2333624","0.0-6.0-2.0-4.0","01d92d17ed0ea9d99d2bac6381808c7ee69318be66dd3daf29c6bf4568786f8d","arctic","swim","3788","","<p>Thank you for your responses.</p><p>You will now answer some questions about your impressions of the story.</p>","0","","","","","","","","","","","","","","","","","","","","",""
"html-button-response","75","2343134","0.0-6.0-2.0-5.0-0.0","01d92d17ed0ea9d99d2bac6381808c7ee69318be66dd3daf29c6bf4568786f8d","arctic","swim","9507","","MS1","1","","","","swim-engagement","","","","","","","","","","","","","","2","mental-sim","",""
"html-button-response","76","2348379","0.0-6.0-2.0-5.0-0.1","01d92d17ed0ea9d99d2bac6381808c7ee69318be66dd3daf29c6bf4568786f8d","arctic","swim","4993","","EE4","3","","","","swim-engagement","","","","","","","","","","","","","","4","emo-engage","",""
"html-button-response","77","2354831","0.0-6.0-2.0-5.0-0.2","01d92d17ed0ea9d99d2bac6381808c7ee69318be66dd3daf29c6bf4568786f8d","arctic","swim","6200","","A4","1","","","","swim-engagement","","","","","","","","","","","","","","2","absorption","",""
"html-button-response","78","2358592","0.0-6.0-2.0-5.0-0.3","01d92d17ed0ea9d99d2bac6381808c7ee69318be66dd3daf29c6bf4568786f8d","arctic","swim","3509","","E6","1","","","","swim-engagement","","","","","","","","","","","","","","2","enjoyment","",""
"html-button-response","79","2363942","0.0-6.0-2.0-5.0-0.4","01d92d17ed0ea9d99d2bac6381808c7ee69318be66dd3daf29c6bf4568786f8d","arctic","swim","5097","","EE3","3","","","","swim-engagement","","","","","","","","","","","","","","4","emo-engage","",""
"html-button-response","80","2368095","0.0-6.0-2.0-5.0-0.5","01d92d17ed0ea9d99d2bac6381808c7ee69318be66dd3daf29c6bf4568786f8d","arctic","swim","3900","","E8","1","","","","swim-engagement","","","","","","","","","","","","","","2","enjoyment","",""
"html-button-response","81","2374254","0.0-6.0-2.0-5.0-0.6","01d92d17ed0ea9d99d2bac6381808c7ee69318be66dd3daf29c6bf4568786f8d","arctic","swim","5906","","MS2","2","","","","swim-engagement","","","","","","","","","","","","","","3","mental-sim","",""
"html-button-response","82","2377187","0.0-6.0-2.0-5.0-0.7","01d92d17ed0ea9d99d2bac6381808c7ee69318be66dd3daf29c6bf4568786f8d","arctic","swim","2680","","E10","0","","","","swim-engagement","","","","","","","","","","","","","","1","enjoyment","",""
"html-button-response","83","2381662","0.0-6.0-2.0-5.0-0.8","01d92d17ed0ea9d99d2bac6381808c7ee69318be66dd3daf29c6bf4568786f8d","arctic","swim","4222","","EE5","2","","","","swim-engagement","","","","","","","","","","","","","","3","emo-engage","",""
"html-button-response","84","2386835","0.0-6.0-2.0-5.0-0.9","01d92d17ed0ea9d99d2bac6381808c7ee69318be66dd3daf29c6bf4568786f8d","arctic","swim","4920","","A3","0","","","","swim-engagement","","","","","","","","","","","","","","1","absorption","",""
"html-button-response","85","2392820","0.0-6.0-2.0-5.0-0.10","01d92d17ed0ea9d99d2bac6381808c7ee69318be66dd3daf29c6bf4568786f8d","arctic","swim","5733","","MS3","5","","","","swim-engagement","","","","","","","","","","","","","","6","mental-sim","",""
"html-button-response","86","2398800","0.0-6.0-2.0-5.0-0.11","01d92d17ed0ea9d99d2bac6381808c7ee69318be66dd3daf29c6bf4568786f8d","arctic","swim","5727","","A5","2","","","","swim-engagement","","","","","","","","","","","","","","3","absorption","",""
"html-button-response","87","2404459","0.0-6.0-2.0-5.0-0.12","01d92d17ed0ea9d99d2bac6381808c7ee69318be66dd3daf29c6bf4568786f8d","arctic","swim","5407","","EE1","3","","","","swim-engagement","","","","","","","","","","","","","","4","emo-engage","",""
"html-button-response","88","2408773","0.0-6.0-2.0-5.0-0.13","01d92d17ed0ea9d99d2bac6381808c7ee69318be66dd3daf29c6bf4568786f8d","arctic","swim","4061","","A1","0","","","","swim-engagement","","","","","","","","","","","","","","1","absorption","",""
"html-button-response","89","2414169","0.0-6.0-2.0-5.0-0.14","01d92d17ed0ea9d99d2bac6381808c7ee69318be66dd3daf29c6bf4568786f8d","arctic","swim","5143","","A2","5","","","","swim-engagement","","","","","","","","","","","","","","6","absorption","",""
"html-button-response","90","2418117","0.0-6.0-2.0-5.0-0.15","01d92d17ed0ea9d99d2bac6381808c7ee69318be66dd3daf29c6bf4568786f8d","arctic","swim","3696","","E7","4","","","","swim-engagement","","","","","","","","","","","","","","5","enjoyment","",""
"html-button-response","91","2420961","0.0-6.0-2.0-5.0-0.16","01d92d17ed0ea9d99d2bac6381808c7ee69318be66dd3daf29c6bf4568786f8d","arctic","swim","2588","","EE2","4","","","","swim-engagement","","","","","","","","","","","","","","5","emo-engage","",""
"html-button-response","92","2426220","0.0-6.0-2.0-5.0-0.17","01d92d17ed0ea9d99d2bac6381808c7ee69318be66dd3daf29c6bf4568786f8d","arctic","swim","5005","","E1","1","","","","swim-engagement","","","","","","","","","","","","","","2","enjoyment","",""
"html-button-response","93","2430433","0.0-8.0","01d92d17ed0ea9d99d2bac6381808c7ee69318be66dd3daf29c6bf4568786f8d","arctic","swim","3961","","<p>Thank you for your responses.</p><p>You will now answer some demographic, hearing, and general health questions.</p>","0","","","","","","","","","","","","","","","","","","","","",""
"survey-multi-choice","94","2435111","0.0-9.0-0.0","01d92d17ed0ea9d99d2bac6381808c7ee69318be66dd3daf29c6bf4568786f8d","arctic","swim","4670","","","","","","","survey","","","","","","","","","","","","","{""Q0"":""Chrome""}","","","browser",""
"survey-text","95","2439879","0.0-9.0-1.0","01d92d17ed0ea9d99d2bac6381808c7ee69318be66dd3daf29c6bf4568786f8d","arctic","swim","4507","","","","","","","survey","","","","","","","","","","","","","{""AGE"":""31""}","","","age","31"
"survey-multi-choice","96","2444402","0.0-9.0-2.0","01d92d17ed0ea9d99d2bac6381808c7ee69318be66dd3daf29c6bf4568786f8d","arctic","swim","4265","","","","","","","survey","","","","","","","","","","","","","{""Q0"":""Male""}","","","gender","Male"
"survey-multi-choice","97","2447914","0.0-9.0-4.0","01d92d17ed0ea9d99d2bac6381808c7ee69318be66dd3daf29c6bf4568786f8d","arctic","swim","3255","","","","","","","survey","","","","","","","","","","","","","{""Q0"":""Right""}","","","handedness","Right"
"survey-multi-choice","98","2452362","0.0-9.0-5.0","01d92d17ed0ea9d99d2bac6381808c7ee69318be66dd3daf29c6bf4568786f8d","arctic","swim","4177","","","","","","","survey","","","","","","","","","","","","","{""Q0"":""Bachelor's Degree""}","","","education","Bachelor's Degree"
"survey-text","99","2460540","0.0-10.0-0.0","01d92d17ed0ea9d99d2bac6381808c7ee69318be66dd3daf29c6bf4568786f8d","arctic","swim","7916","","","","","","","survey","","","","","","","","","","","","","{""L1"":""English""}","","","first-language","English"
"survey-text","100","2477321","0.0-10.0-1.0","01d92d17ed0ea9d99d2bac6381808c7ee69318be66dd3daf29c6bf4568786f8d","arctic","swim","16495","","","","","","","survey","","","","","","","","","","","","","{""L2name"":"""",""L2fluency"":"""",""L3name"":"""",""L3fluency"":"""",""L4name"":"""",""L4fluency"":""""}","","","additional-languages","{""L2name"":"""",""L2fluency"":"""",""L3name"":"""",""L3fluency"":"""",""L4name"":"""",""L4fluency"":""""}"
"survey-multi-choice","101","2481333","0.0-10.0-2.0","01d92d17ed0ea9d99d2bac6381808c7ee69318be66dd3daf29c6bf4568786f8d","arctic","swim","3748","","","","","","","survey","","","","","","","","","","","","","{""Q0"":""No""}","","","hearing-aid","No"
"survey-multi-choice","102","2488881","0.0-10.0-3.0","01d92d17ed0ea9d99d2bac6381808c7ee69318be66dd3daf29c6bf4568786f8d","arctic","swim","7287","","","","","","","survey","","","","","","","","","","","","","{""Q0"":""Sometimes""}","","","ringing-ears","Sometimes"
"survey-multi-choice","103","2493060","0.0-10.0-4.0-0.0","01d92d17ed0ea9d99d2bac6381808c7ee69318be66dd3daf29c6bf4568786f8d","arctic","swim","3917","","","","","","","survey","","","","","","","","","","","","","{""Q0"":""Both Ears""}","","","ringing-ear-loc","Both Ears"
"survey-multi-choice","104","2496876","0.0-10.0-5.0","01d92d17ed0ea9d99d2bac6381808c7ee69318be66dd3daf29c6bf4568786f8d","arctic","swim","3557","","","","","","","survey","","","","","","","","","","","","","{""Q0"":""No""}","","","neuro-disease","No"
"survey-multi-choice","105","2506829","0.0-10.0-7.0","01d92d17ed0ea9d99d2bac6381808c7ee69318be66dd3daf29c6bf4568786f8d","arctic","swim","9693","","","","","","","survey","","","","","","","","","","","","","{""Q0"":""No""}","","","take-meds","No"
"survey-text","106","2589816","0.0-10.0-9.0","01d92d17ed0ea9d99d2bac6381808c7ee69318be66dd3daf29c6bf4568786f8d","arctic","swim","82701","","","","","","","survey","","","","","","","","","","","","","{""HC"":""I do not have any other health issues, aside from mild tinnitus that I only notice during periods of absolute silence. ""}","","","health-concerns","I do not have any other health issues, aside from mild tinnitus that I only notice during periods of absolute silence. "
"html-button-response","107","2600427","0.0-11.0-0.0","01d92d17ed0ea9d99d2bac6381808c7ee69318be66dd3daf29c6bf4568786f8d","arctic","swim","10357","","<p>How would you describe your musical skills/experiences?</p>","2","","","","survey","","","","","","","","","","","","","","","","music-skill","3"
"survey-multi-choice","108","2609236","0.0-11.0-1.0","01d92d17ed0ea9d99d2bac6381808c7ee69318be66dd3daf29c6bf4568786f8d","arctic","swim","8546","","","","","","","survey","","","","","","","","","","","","","{""Q0"":""No""}","","","music-instrument","No"
"html-button-response","109","2611909","0.0-12.0-0.0","01d92d17ed0ea9d99d2bac6381808c7ee69318be66dd3daf29c6bf4568786f8d","arctic","swim","2421","","<p>How would you describe your general hearing abilities?</p>","5","","","","survey","","","","","","","","","","","","","","","","ssq-01","6"
"html-button-response","110","2621738","0.0-12.0-1.0","01d92d17ed0ea9d99d2bac6381808c7ee69318be66dd3daf29c6bf4568786f8d","arctic","swim","9575","","<p>When you talk with someone at a place that strongly reverberates/echoes (e.g., in a church or train station),</br>can you understand what the person says?</p>","10","","","","survey","","","","","","","","","","","","","","","","ssq-02","10"
"html-button-response","111","2625155","0.0-12.0-2.0","01d92d17ed0ea9d99d2bac6381808c7ee69318be66dd3daf29c6bf4568786f8d","arctic","swim","3163","","<p>When you are with a group (~5 people) in a lively restaurant, can you follow the group's conversation?</p>","10","","","","survey","","","","","","","","","","","","","","","","ssq-03","10"
"html-button-response","112","2632151","0.0-12.0-3.0","01d92d17ed0ea9d99d2bac6381808c7ee69318be66dd3daf29c6bf4568786f8d","arctic","swim","6744","","<p>Based on the sound of a bus or truck, can you tell whether it is moving towards or away from you?</p>","10","","","","survey","","","","","","","","","","","","","","","","ssq-04","10"
"html-button-response","113","2643408","0.0-12.0-4.0","01d92d17ed0ea9d99d2bac6381808c7ee69318be66dd3daf29c6bf4568786f8d","arctic","swim","11004","","<p>When you are in an unknown environment, can you tell from which direction a brief sound originates?</p>","10","","","","survey","","","","","","","","","","","","","","","","ssq-05","10"
"html-button-response","114","2648776","0.0-12.0-5.0","01d92d17ed0ea9d99d2bac6381808c7ee69318be66dd3daf29c6bf4568786f8d","arctic","swim","5113","","<p>Are you able to ignore distracting sounds when you concentrate on a specific aspect of your acoustic surrounding?</p>","10","","","","survey","","","","","","","","","","","","","","","","ssq-06","10"
"fullscreen","115","2650026","0.0-13.0","01d92d17ed0ea9d99d2bac6381808c7ee69318be66dd3daf29c6bf4568786f8d","arctic","swim","","","","","","","","","true","","","","","","","","","","","","","","","",""
