"trial_type","trial_index","time_elapsed","internal_node_id","ParticipantID","firstStory","scramStory","rt","url","stimulus","button_pressed","key_press","correctRESP","correct","designation","success","letterStim","letterType","ONSET","TIMEOUT","CONDITION","Participant","ONSET_ACTUAL","RT","RESP","ACC","STORY","responses","response","type","surveyQuestion","QRESP"
"pavlovia","0","5","0.0-0.0","1eede0d45f265579097b1aaa40af2706a91dd5734e27c7c96d2a8e1d80da0e96","swim","swim","","","","","","","","","","","","","","","","","","","","","","","","",""
"external-html","1","113313","0.0-1.0","1eede0d45f265579097b1aaa40af2706a91dd5734e27c7c96d2a8e1d80da0e96","swim","swim","113118","consent/consent_updated.html","","","","","","","","","","","","","","","","","","","","","","",""
"html-button-response","2","116102","0.0-2.0-0.0","1eede0d45f265579097b1aaa40af2706a91dd5734e27c7c96d2a8e1d80da0e96","swim","swim","2787","","<p>Before we begin the main task, you will complete a short volume calibration and headphone check.</p><p>Please make sure you are in a quiet listening environment, that you are wearing headphones, and that your computer's volume is turned on.<p></p>","0","","","","","","","","","","","","","","","","","","","","",""
"html-button-response","3","135721","0.0-2.0-1.0","1eede0d45f265579097b1aaa40af2706a91dd5734e27c7c96d2a8e1d80da0e96","swim","swim","19367","","<p>The volume calibration will be first.</p><p>You will hear a thirty-second noise. Please adjust your computer's volume so that this noise is being presented at a comfortable level.<p></p>","0","","","","","","","","","","","","","","","","","","","","",""
"audio-button-response","4","141339","0.0-2.0-2.0","1eede0d45f265579097b1aaa40af2706a91dd5734e27c7c96d2a8e1d80da0e96","swim","swim","5366","","audio/volumetest.mp3","0","","","","","","","","","","","","","","","","","","","","",""
"html-keyboard-response","5","149273","0.0-3.0-0.0","1eede0d45f265579097b1aaa40af2706a91dd5734e27c7c96d2a8e1d80da0e96","swim","swim","7933","","<p>You will now complete a short headphone check.</p><p>On each trial, you will hear three tones. One of these tones will be quieter than the others. Your task is to identify whether the quiet tone occurred first, second, or third.</p><p>There are six trials in total.<p></p><p></p>(Press SPACEBAR to begin)","","32","","","","","","","","","","","","","","","","","","","",""
"html-keyboard-response","6","150037","0.0-3.0-1.0-0.0","1eede0d45f265579097b1aaa40af2706a91dd5734e27c7c96d2a8e1d80da0e96","swim","swim","null","","<div style=""font-size:60px;"">+</div>","","null","","","","","","","","","","","","","","","","","","","",""
"audio-button-response","7","154573","0.0-3.0-1.0-1.0","1eede0d45f265579097b1aaa40af2706a91dd5734e27c7c96d2a8e1d80da0e96","swim","swim","4535","","audio/t2_2.mp3","1","","1","1","headphone-test","","","","","","","","","","","","","","","","",""
"html-keyboard-response","8","155083","0.0-3.0-1.0-2.0","1eede0d45f265579097b1aaa40af2706a91dd5734e27c7c96d2a8e1d80da0e96","swim","swim","null","","<p>Correct</p>","","null","","","","","","","","","","","","","","","","","","","",""
"html-keyboard-response","9","155597","0.0-3.0-1.0-0.1","1eede0d45f265579097b1aaa40af2706a91dd5734e27c7c96d2a8e1d80da0e96","swim","swim","null","","<div style=""font-size:60px;"">+</div>","","null","","","","","","","","","","","","","","","","","","","",""
"audio-button-response","10","159887","0.0-3.0-1.0-1.1","1eede0d45f265579097b1aaa40af2706a91dd5734e27c7c96d2a8e1d80da0e96","swim","swim","4288","","audio/t1_2.mp3","0","","0","1","headphone-test","","","","","","","","","","","","","","","","",""
"html-keyboard-response","11","160393","0.0-3.0-1.0-2.1","1eede0d45f265579097b1aaa40af2706a91dd5734e27c7c96d2a8e1d80da0e96","swim","swim","null","","<p>Correct</p>","","null","","","","","","","","","","","","","","","","","","","",""
"html-keyboard-response","12","160906","0.0-3.0-1.0-0.2","1eede0d45f265579097b1aaa40af2706a91dd5734e27c7c96d2a8e1d80da0e96","swim","swim","null","","<div style=""font-size:60px;"">+</div>","","null","","","","","","","","","","","","","","","","","","","",""
"audio-button-response","13","165327","0.0-3.0-1.0-1.2","1eede0d45f265579097b1aaa40af2706a91dd5734e27c7c96d2a8e1d80da0e96","swim","swim","4419","","audio/t3_1.mp3","2","","2","1","headphone-test","","","","","","","","","","","","","","","","",""
"html-keyboard-response","14","165829","0.0-3.0-1.0-2.2","1eede0d45f265579097b1aaa40af2706a91dd5734e27c7c96d2a8e1d80da0e96","swim","swim","null","","<p>Correct</p>","","null","","","","","","","","","","","","","","","","","","","",""
"html-keyboard-response","15","166342","0.0-3.0-1.0-0.3","1eede0d45f265579097b1aaa40af2706a91dd5734e27c7c96d2a8e1d80da0e96","swim","swim","null","","<div style=""font-size:60px;"">+</div>","","null","","","","","","","","","","","","","","","","","","","",""
"audio-button-response","16","170557","0.0-3.0-1.0-1.3","1eede0d45f265579097b1aaa40af2706a91dd5734e27c7c96d2a8e1d80da0e96","swim","swim","4212","","audio/t2_1.mp3","1","","1","1","headphone-test","","","","","","","","","","","","","","","","",""
"html-keyboard-response","17","171059","0.0-3.0-1.0-2.3","1eede0d45f265579097b1aaa40af2706a91dd5734e27c7c96d2a8e1d80da0e96","swim","swim","null","","<p>Correct</p>","","null","","","","","","","","","","","","","","","","","","","",""
"html-keyboard-response","18","171572","0.0-3.0-1.0-0.4","1eede0d45f265579097b1aaa40af2706a91dd5734e27c7c96d2a8e1d80da0e96","swim","swim","null","","<div style=""font-size:60px;"">+</div>","","null","","","","","","","","","","","","","","","","","","","",""
"audio-button-response","19","175678","0.0-3.0-1.0-1.4","1eede0d45f265579097b1aaa40af2706a91dd5734e27c7c96d2a8e1d80da0e96","swim","swim","4104","","audio/t1_1.mp3","0","","0","1","headphone-test","","","","","","","","","","","","","","","","",""
"html-keyboard-response","20","176193","0.0-3.0-1.0-2.4","1eede0d45f265579097b1aaa40af2706a91dd5734e27c7c96d2a8e1d80da0e96","swim","swim","null","","<p>Correct</p>","","null","","","","","","","","","","","","","","","","","","","",""
"html-keyboard-response","21","176707","0.0-3.0-1.0-0.5","1eede0d45f265579097b1aaa40af2706a91dd5734e27c7c96d2a8e1d80da0e96","swim","swim","null","","<div style=""font-size:60px;"">+</div>","","null","","","","","","","","","","","","","","","","","","","",""
"audio-button-response","22","180999","0.0-3.0-1.0-1.5","1eede0d45f265579097b1aaa40af2706a91dd5734e27c7c96d2a8e1d80da0e96","swim","swim","4289","","audio/t3_2.mp3","2","","2","1","headphone-test","","","","","","","","","","","","","","","","",""
"html-keyboard-response","23","181504","0.0-3.0-1.0-2.5","1eede0d45f265579097b1aaa40af2706a91dd5734e27c7c96d2a8e1d80da0e96","swim","swim","null","","<p>Correct</p>","","null","","","","","","","","","","","","","","","","","","","",""
"fullscreen","24","183837","0.0-4.0","1eede0d45f265579097b1aaa40af2706a91dd5734e27c7c96d2a8e1d80da0e96","swim","swim","","","","","","","","","true","","","","","","","","","","","","","","","",""
"html-button-response","25","190251","0.0-5.0-0.0","1eede0d45f265579097b1aaa40af2706a91dd5734e27c7c96d2a8e1d80da0e96","swim","swim","6414","","<p>There are two blocks to this experiment.</p><p>In each block, you will hear a ~13.5 minute story. One of the stories will be scrambled. Please listen carefully to both stories and understand them as best you can.</p><p>After each story, you will be asked some questions to assess your comprehension.</p>","0","","","","","","","","","","","","","","","","","","","","",""
"html-button-response","26","196321","0.0-5.0-1.0","1eede0d45f265579097b1aaa40af2706a91dd5734e27c7c96d2a8e1d80da0e96","swim","swim","6069","","<p>During each story, there will be an additional task.</p><p>A letter will occasionally appear on the screen.</br>Your job is to - as quickly as you can - decide whether the letter is lowercase or uppercase and press one of two keys on the keyboard:</p><p>If the letter is <b>lowercase</b>, press key &lt;<b>x</b>&gt;.</p><p>If the letter is <b>uppercase</b>, press key &lt;<b>m</b>&gt;.</p>","0","","","","","","","","","","","","","","","","","","","","",""
"html-keyboard-response","27","202398","0.0-5.0-2.0","1eede0d45f265579097b1aaa40af2706a91dd5734e27c7c96d2a8e1d80da0e96","swim","swim","6076","","<p>Because we want your responses to be as quick as possible, please keep your index fingers over the keys while listening.</p><p>Each block lasts about 20 minutes.</p><p><b>Press &lt;x&gt; or &lt;m&gt; to start the first block!</b></p>","","77","","","","","","","","","","","","","","","","","","","",""
"html-keyboard-response","28","202901","0.0-7.0-0.0-0.0","1eede0d45f265579097b1aaa40af2706a91dd5734e27c7c96d2a8e1d80da0e96","swim","swim","null","","<div style=""font-size:60px;"" tabindex=""0"">+</div>","","null","","","","","","","","","","","","","","","","","","","",""
"dual-task","null","null","null","","swim","swim","1106.3999999761581","","G","null","77","77","1","swim-dual-task","","G","uppercase","16000","0","5","1eede0d45f265579097b1aaa40af2706a91dd5734e27c7c96d2a8e1d80da0e96","16001.899999976158","1106.3999999761581","77","1","swim","","","","",""
"dual-task","null","null","null","","swim","swim","846.2999999523163","","g","null","88","88","1","swim-dual-task","","g","lowercase","26000","0","5","1eede0d45f265579097b1aaa40af2706a91dd5734e27c7c96d2a8e1d80da0e96","26011.799999952316","846.2999999523163","88","1","swim","","","","",""
"dual-task","null","null","null","","swim","swim","674.3999999761581","","b","null","88","88","1","swim-dual-task","","b","lowercase","38000","0","5","1eede0d45f265579097b1aaa40af2706a91dd5734e27c7c96d2a8e1d80da0e96","38008.10000002384","674.3999999761581","88","1","swim","","","","",""
"dual-task","null","null","null","","swim","swim","807.1000000238419","","r","null","88","88","1","swim-dual-task","","r","lowercase","48000","0","5","1eede0d45f265579097b1aaa40af2706a91dd5734e27c7c96d2a8e1d80da0e96","48005.299999952316","807.1000000238419","88","1","swim","","","","",""
"dual-task","null","null","null","","swim","swim","1308.8999999761581","","D","null","77","77","1","swim-dual-task","","D","uppercase","54000","0","5","1eede0d45f265579097b1aaa40af2706a91dd5734e27c7c96d2a8e1d80da0e96","54012","1308.8999999761581","77","1","swim","","","","",""
"dual-task","null","null","null","","swim","swim","484.7000000476837","","b","null","88","88","1","swim-dual-task","","b","lowercase","64000","0","5","1eede0d45f265579097b1aaa40af2706a91dd5734e27c7c96d2a8e1d80da0e96","64011.699999928474","484.7000000476837","88","1","swim","","","","",""
"dual-task","null","null","null","","swim","swim","1600.8999999761581","","h","null","88","88","1","swim-dual-task","","h","lowercase","74000","0","5","1eede0d45f265579097b1aaa40af2706a91dd5734e27c7c96d2a8e1d80da0e96","74010.89999997616","1600.8999999761581","88","1","swim","","","","",""
"dual-task","null","null","null","","swim","swim","904.0999999046326","","D","null","77","77","1","swim-dual-task","","D","uppercase","80000","0","5","1eede0d45f265579097b1aaa40af2706a91dd5734e27c7c96d2a8e1d80da0e96","80007.60000002384","904.0999999046326","77","1","swim","","","","",""
"dual-task","null","null","null","","swim","swim","538.7000000476837","","R","null","77","77","1","swim-dual-task","","R","uppercase","92000","0","5","1eede0d45f265579097b1aaa40af2706a91dd5734e27c7c96d2a8e1d80da0e96","92013.19999992847","538.7000000476837","77","1","swim","","","","",""
"dual-task","null","null","null","","swim","swim","569.8000000715256","","F","null","77","77","1","swim-dual-task","","F","uppercase","104000","0","5","1eede0d45f265579097b1aaa40af2706a91dd5734e27c7c96d2a8e1d80da0e96","104001.69999992847","569.8000000715256","77","1","swim","","","","",""
"dual-task","null","null","null","","swim","swim","1097.6999999284744","","b","null","88","88","1","swim-dual-task","","b","lowercase","112000","0","5","1eede0d45f265579097b1aaa40af2706a91dd5734e27c7c96d2a8e1d80da0e96","112005.10000002384","1097.6999999284744","88","1","swim","","","","",""
"dual-task","null","null","null","","swim","swim","611.9000000953674","","E","null","77","77","1","swim-dual-task","","E","uppercase","126000","0","5","1eede0d45f265579097b1aaa40af2706a91dd5734e27c7c96d2a8e1d80da0e96","126009.60000002384","611.9000000953674","77","1","swim","","","","",""
"dual-task","null","null","null","","swim","swim","568.2999999523163","","Q","null","77","77","1","swim-dual-task","","Q","uppercase","138000","0","5","1eede0d45f265579097b1aaa40af2706a91dd5734e27c7c96d2a8e1d80da0e96","138013.5","568.2999999523163","77","1","swim","","","","",""
"dual-task","null","null","null","","swim","swim","678.6000000238419","","d","null","88","88","1","swim-dual-task","","d","lowercase","144000","0","5","1eede0d45f265579097b1aaa40af2706a91dd5734e27c7c96d2a8e1d80da0e96","144003.19999992847","678.6000000238419","88","1","swim","","","","",""
"dual-task","null","null","null","","swim","swim","504.1999999284744","","a","null","88","88","1","swim-dual-task","","a","lowercase","156000","0","5","1eede0d45f265579097b1aaa40af2706a91dd5734e27c7c96d2a8e1d80da0e96","156010","504.1999999284744","88","1","swim","","","","",""
"dual-task","null","null","null","","swim","swim","515.0999999046326","","f","null","88","88","1","swim-dual-task","","f","lowercase","168000","0","5","1eede0d45f265579097b1aaa40af2706a91dd5734e27c7c96d2a8e1d80da0e96","168009","515.0999999046326","88","1","swim","","","","",""
"dual-task","null","null","null","","swim","swim","617.4000000953674","","f","null","88","88","1","swim-dual-task","","f","lowercase","178000","0","5","1eede0d45f265579097b1aaa40af2706a91dd5734e27c7c96d2a8e1d80da0e96","178010.60000002384","617.4000000953674","88","1","swim","","","","",""
"dual-task","null","null","null","","swim","swim","1287.5","","r","null","88","88","1","swim-dual-task","","r","lowercase","186000","0","5","1eede0d45f265579097b1aaa40af2706a91dd5734e27c7c96d2a8e1d80da0e96","186000.60000002384","1287.5","88","1","swim","","","","",""
"dual-task","null","null","null","","swim","swim","525","","D","null","77","77","1","swim-dual-task","","D","uppercase","194000","0","5","1eede0d45f265579097b1aaa40af2706a91dd5734e27c7c96d2a8e1d80da0e96","194004.39999997616","525","77","1","swim","","","","",""
"dual-task","null","null","null","","swim","swim","622.5","","a","null","88","88","1","swim-dual-task","","a","lowercase","204000","0","5","1eede0d45f265579097b1aaa40af2706a91dd5734e27c7c96d2a8e1d80da0e96","204010.39999997616","622.5","88","1","swim","","","","",""
"dual-task","null","null","null","","swim","swim","710.4000000953674","","G","null","77","77","1","swim-dual-task","","G","uppercase","212000","0","5","1eede0d45f265579097b1aaa40af2706a91dd5734e27c7c96d2a8e1d80da0e96","212013.10000002384","710.4000000953674","77","1","swim","","","","",""
"dual-task","null","null","null","","swim","swim","466.2999999523163","","R","null","77","77","1","swim-dual-task","","R","uppercase","224000","0","5","1eede0d45f265579097b1aaa40af2706a91dd5734e27c7c96d2a8e1d80da0e96","224006.5","466.2999999523163","77","1","swim","","","","",""
"dual-task","null","null","null","","swim","swim","848.6000000238419","","Q","null","77","77","1","swim-dual-task","","Q","uppercase","236000","0","5","1eede0d45f265579097b1aaa40af2706a91dd5734e27c7c96d2a8e1d80da0e96","236002.5","848.6000000238419","77","1","swim","","","","",""
"dual-task","null","null","null","","swim","swim","570.3999999761581","","n","null","88","88","1","swim-dual-task","","n","lowercase","248000","0","5","1eede0d45f265579097b1aaa40af2706a91dd5734e27c7c96d2a8e1d80da0e96","248006.29999995232","570.3999999761581","88","1","swim","","","","",""
"dual-task","null","null","null","","swim","swim","836.8999999761581","","T","null","77","77","1","swim-dual-task","","T","uppercase","254000","0","5","1eede0d45f265579097b1aaa40af2706a91dd5734e27c7c96d2a8e1d80da0e96","253999.89999997616","836.8999999761581","77","1","swim","","","","",""
"dual-task","null","null","null","","swim","swim","634.7000000476837","","t","null","88","88","1","swim-dual-task","","t","lowercase","266000","0","5","1eede0d45f265579097b1aaa40af2706a91dd5734e27c7c96d2a8e1d80da0e96","266006.2999999523","634.7000000476837","88","1","swim","","","","",""
"dual-task","null","null","null","","swim","swim","516.1000000238419","","E","null","77","77","1","swim-dual-task","","E","uppercase","276000","0","5","1eede0d45f265579097b1aaa40af2706a91dd5734e27c7c96d2a8e1d80da0e96","276010.7999999523","516.1000000238419","77","1","swim","","","","",""
"dual-task","null","null","null","","swim","swim","651.1000000238419","","q","null","88","88","1","swim-dual-task","","q","lowercase","290000","0","5","1eede0d45f265579097b1aaa40af2706a91dd5734e27c7c96d2a8e1d80da0e96","290009.39999997616","651.1000000238419","88","1","swim","","","","",""
"dual-task","null","null","null","","swim","swim","692.6999999284744","","T","null","77","77","1","swim-dual-task","","T","uppercase","298000","0","5","1eede0d45f265579097b1aaa40af2706a91dd5734e27c7c96d2a8e1d80da0e96","298003.7999999523","692.6999999284744","77","1","swim","","","","",""
"dual-task","null","null","null","","swim","swim","548.8999999761581","","f","null","88","88","1","swim-dual-task","","f","lowercase","308000","0","5","1eede0d45f265579097b1aaa40af2706a91dd5734e27c7c96d2a8e1d80da0e96","308011.2999999523","548.8999999761581","88","1","swim","","","","",""
"dual-task","null","null","null","","swim","swim","1741","","N","null","77","77","1","swim-dual-task","","N","uppercase","320000","0","5","1eede0d45f265579097b1aaa40af2706a91dd5734e27c7c96d2a8e1d80da0e96","320000.5","1741","77","1","swim","","","","",""
"dual-task","null","null","null","","swim","swim","NA","","d","null","NA","88","0","swim-dual-task","","d","lowercase","332000","1","5","1eede0d45f265579097b1aaa40af2706a91dd5734e27c7c96d2a8e1d80da0e96","332001.39999997616","NA","NA","0","swim","","","","",""
"dual-task","null","null","null","","swim","swim","514.6000000238419","","H","null","77","77","1","swim-dual-task","","H","uppercase","342000","0","5","1eede0d45f265579097b1aaa40af2706a91dd5734e27c7c96d2a8e1d80da0e96","342004.7999999523","514.6000000238419","77","1","swim","","","","",""
"dual-task","null","null","null","","swim","swim","NA","","a","null","NA","88","0","swim-dual-task","","a","lowercase","354000","1","5","1eede0d45f265579097b1aaa40af2706a91dd5734e27c7c96d2a8e1d80da0e96","354012.39999997616","NA","NA","0","swim","","","","",""
"dual-task","null","null","null","","swim","swim","696.1000000238419","","H","null","77","77","1","swim-dual-task","","H","uppercase","362000","0","5","1eede0d45f265579097b1aaa40af2706a91dd5734e27c7c96d2a8e1d80da0e96","362003.39999997616","696.1000000238419","77","1","swim","","","","",""
"dual-task","null","null","null","","swim","swim","684.5","","q","null","88","88","1","swim-dual-task","","q","lowercase","370000","0","5","1eede0d45f265579097b1aaa40af2706a91dd5734e27c7c96d2a8e1d80da0e96","370011.60000002384","684.5","88","1","swim","","","","",""
"dual-task","null","null","null","","swim","swim","639.3999999761581","","Q","null","77","77","1","swim-dual-task","","Q","uppercase","380000","0","5","1eede0d45f265579097b1aaa40af2706a91dd5734e27c7c96d2a8e1d80da0e96","380005.5","639.3999999761581","77","1","swim","","","","",""
"dual-task","null","null","null","","swim","swim","1351.6999999284744","","g","null","88","88","1","swim-dual-task","","g","lowercase","388000","0","5","1eede0d45f265579097b1aaa40af2706a91dd5734e27c7c96d2a8e1d80da0e96","388012.10000002384","1351.6999999284744","88","1","swim","","","","",""
"dual-task","null","null","null","","swim","swim","428.90000009536743","","g","null","88","88","1","swim-dual-task","","g","lowercase","402000","0","5","1eede0d45f265579097b1aaa40af2706a91dd5734e27c7c96d2a8e1d80da0e96","402011.10000002384","428.90000009536743","88","1","swim","","","","",""
"dual-task","null","null","null","","swim","swim","743.5999999046326","","B","null","77","77","1","swim-dual-task","","B","uppercase","412000","0","5","1eede0d45f265579097b1aaa40af2706a91dd5734e27c7c96d2a8e1d80da0e96","412011.60000002384","743.5999999046326","77","1","swim","","","","",""
"dual-task","null","null","null","","swim","swim","530.5","","r","null","88","88","1","swim-dual-task","","r","lowercase","422000","0","5","1eede0d45f265579097b1aaa40af2706a91dd5734e27c7c96d2a8e1d80da0e96","421999.7999999523","530.5","88","1","swim","","","","",""
"dual-task","null","null","null","","swim","swim","748","","h","null","77","88","0","swim-dual-task","","h","lowercase","432000","0","5","1eede0d45f265579097b1aaa40af2706a91dd5734e27c7c96d2a8e1d80da0e96","432014.39999997616","748","77","0","swim","","","","",""
"dual-task","null","null","null","","swim","swim","546.5","","N","null","77","77","1","swim-dual-task","","N","uppercase","444000","0","5","1eede0d45f265579097b1aaa40af2706a91dd5734e27c7c96d2a8e1d80da0e96","444000.5","546.5","77","1","swim","","","","",""
"dual-task","null","null","null","","swim","swim","511.5","","B","null","77","77","1","swim-dual-task","","B","uppercase","450000","0","5","1eede0d45f265579097b1aaa40af2706a91dd5734e27c7c96d2a8e1d80da0e96","450008.39999997616","511.5","77","1","swim","","","","",""
"dual-task","null","null","null","","swim","swim","596.8000000715256","","n","null","88","88","1","swim-dual-task","","n","lowercase","464000","0","5","1eede0d45f265579097b1aaa40af2706a91dd5734e27c7c96d2a8e1d80da0e96","464012.10000002384","596.8000000715256","88","1","swim","","","","",""
"dual-task","null","null","null","","swim","swim","690.6999999284744","","R","null","77","77","1","swim-dual-task","","R","uppercase","470000","0","5","1eede0d45f265579097b1aaa40af2706a91dd5734e27c7c96d2a8e1d80da0e96","470012.5","690.6999999284744","77","1","swim","","","","",""
"dual-task","null","null","null","","swim","swim","971.2999999523163","","e","null","88","88","1","swim-dual-task","","e","lowercase","482000","0","5","1eede0d45f265579097b1aaa40af2706a91dd5734e27c7c96d2a8e1d80da0e96","482003.89999997616","971.2999999523163","88","1","swim","","","","",""
"dual-task","null","null","null","","swim","swim","637.1000000238419","","f","null","88","88","1","swim-dual-task","","f","lowercase","490000","0","5","1eede0d45f265579097b1aaa40af2706a91dd5734e27c7c96d2a8e1d80da0e96","490014.39999997616","637.1000000238419","88","1","swim","","","","",""
"dual-task","null","null","null","","swim","swim","808.4000000953674","","e","null","88","88","1","swim-dual-task","","e","lowercase","500000","0","5","1eede0d45f265579097b1aaa40af2706a91dd5734e27c7c96d2a8e1d80da0e96","500008","808.4000000953674","88","1","swim","","","","",""
"dual-task","null","null","null","","swim","swim","NA","","R","null","NA","77","0","swim-dual-task","","R","uppercase","506000","1","5","1eede0d45f265579097b1aaa40af2706a91dd5734e27c7c96d2a8e1d80da0e96","506005.10000002384","NA","NA","0","swim","","","","",""
"dual-task","null","null","null","","swim","swim","562.1999999284744","","N","null","77","77","1","swim-dual-task","","N","uppercase","516000","0","5","1eede0d45f265579097b1aaa40af2706a91dd5734e27c7c96d2a8e1d80da0e96","516000","562.1999999284744","77","1","swim","","","","",""
"dual-task","null","null","null","","swim","swim","492.5","","A","null","77","77","1","swim-dual-task","","A","uppercase","530000","0","5","1eede0d45f265579097b1aaa40af2706a91dd5734e27c7c96d2a8e1d80da0e96","530004.5","492.5","77","1","swim","","","","",""
"dual-task","null","null","null","","swim","swim","547.8000000715256","","T","null","77","77","1","swim-dual-task","","T","uppercase","542000","0","5","1eede0d45f265579097b1aaa40af2706a91dd5734e27c7c96d2a8e1d80da0e96","542009.1999999285","547.8000000715256","77","1","swim","","","","",""
"dual-task","null","null","null","","swim","swim","863.5","","t","null","88","88","1","swim-dual-task","","t","lowercase","552000","0","5","1eede0d45f265579097b1aaa40af2706a91dd5734e27c7c96d2a8e1d80da0e96","552007.6000000238","863.5","88","1","swim","","","","",""
"dual-task","null","null","null","","swim","swim","428.5","","q","null","88","88","1","swim-dual-task","","q","lowercase","564000","0","5","1eede0d45f265579097b1aaa40af2706a91dd5734e27c7c96d2a8e1d80da0e96","564000.1999999285","428.5","88","1","swim","","","","",""
"dual-task","null","null","null","","swim","swim","563.8000000715256","","H","null","77","77","1","swim-dual-task","","H","uppercase","572000","0","5","1eede0d45f265579097b1aaa40af2706a91dd5734e27c7c96d2a8e1d80da0e96","572007.6999999285","563.8000000715256","77","1","swim","","","","",""
"dual-task","null","null","null","","swim","swim","474.89999997615814","","T","null","77","77","1","swim-dual-task","","T","uppercase","586000","0","5","1eede0d45f265579097b1aaa40af2706a91dd5734e27c7c96d2a8e1d80da0e96","586007.6999999285","474.89999997615814","77","1","swim","","","","",""
"dual-task","null","null","null","","swim","swim","453.59999990463257","","B","null","77","77","1","swim-dual-task","","B","uppercase","598000","0","5","1eede0d45f265579097b1aaa40af2706a91dd5734e27c7c96d2a8e1d80da0e96","598003.3999999762","453.59999990463257","77","1","swim","","","","",""
"dual-task","null","null","null","","swim","swim","512.5999999046326","","G","null","77","77","1","swim-dual-task","","G","uppercase","610000","0","5","1eede0d45f265579097b1aaa40af2706a91dd5734e27c7c96d2a8e1d80da0e96","610011.5","512.5999999046326","77","1","swim","","","","",""
"dual-task","null","null","null","","swim","swim","812.1000000238419","","Q","null","77","77","1","swim-dual-task","","Q","uppercase","616000","0","5","1eede0d45f265579097b1aaa40af2706a91dd5734e27c7c96d2a8e1d80da0e96","616011.8999999762","812.1000000238419","77","1","swim","","","","",""
"dual-task","null","null","null","","swim","swim","762.1000000238419","","E","null","77","77","1","swim-dual-task","","E","uppercase","630000","0","5","1eede0d45f265579097b1aaa40af2706a91dd5734e27c7c96d2a8e1d80da0e96","630002.2999999523","762.1000000238419","77","1","swim","","","","",""
"dual-task","null","null","null","","swim","swim","1152.3999999761581","","E","null","77","77","1","swim-dual-task","","E","uppercase","642000","0","5","1eede0d45f265579097b1aaa40af2706a91dd5734e27c7c96d2a8e1d80da0e96","642007.7999999523","1152.3999999761581","77","1","swim","","","","",""
"dual-task","null","null","null","","swim","swim","447.39999997615814","","N","null","77","77","1","swim-dual-task","","N","uppercase","650000","0","5","1eede0d45f265579097b1aaa40af2706a91dd5734e27c7c96d2a8e1d80da0e96","650012.1000000238","447.39999997615814","77","1","swim","","","","",""
"dual-task","null","null","null","","swim","swim","649.4000000953674","","q","null","88","88","1","swim-dual-task","","q","lowercase","658000","0","5","1eede0d45f265579097b1aaa40af2706a91dd5734e27c7c96d2a8e1d80da0e96","658001.6999999285","649.4000000953674","88","1","swim","","","","",""
"dual-task","null","null","null","","swim","swim","526.8999999761581","","e","null","88","88","1","swim-dual-task","","e","lowercase","666000","0","5","1eede0d45f265579097b1aaa40af2706a91dd5734e27c7c96d2a8e1d80da0e96","666008.5","526.8999999761581","88","1","swim","","","","",""
"dual-task","null","null","null","","swim","swim","512.9000000953674","","g","null","88","88","1","swim-dual-task","","g","lowercase","674000","0","5","1eede0d45f265579097b1aaa40af2706a91dd5734e27c7c96d2a8e1d80da0e96","674005.1000000238","512.9000000953674","88","1","swim","","","","",""
"dual-task","null","null","null","","swim","swim","490","","h","null","88","88","1","swim-dual-task","","h","lowercase","684000","0","5","1eede0d45f265579097b1aaa40af2706a91dd5734e27c7c96d2a8e1d80da0e96","684007","490","88","1","swim","","","","",""
"dual-task","null","null","null","","swim","swim","430.89999997615814","","B","null","77","77","1","swim-dual-task","","B","uppercase","696000","0","5","1eede0d45f265579097b1aaa40af2706a91dd5734e27c7c96d2a8e1d80da0e96","696010.5","430.89999997615814","77","1","swim","","","","",""
"dual-task","null","null","null","","swim","swim","NA","","A","null","NA","77","0","swim-dual-task","","A","uppercase","702000","1","5","1eede0d45f265579097b1aaa40af2706a91dd5734e27c7c96d2a8e1d80da0e96","702011.3999999762","NA","NA","0","swim","","","","",""
"dual-task","null","null","null","","swim","swim","411","","d","null","88","88","1","swim-dual-task","","d","lowercase","716000","0","5","1eede0d45f265579097b1aaa40af2706a91dd5734e27c7c96d2a8e1d80da0e96","716007.3999999762","411","88","1","swim","","","","",""
"dual-task","null","null","null","","swim","swim","599.5","","D","null","77","77","1","swim-dual-task","","D","uppercase","726000","0","5","1eede0d45f265579097b1aaa40af2706a91dd5734e27c7c96d2a8e1d80da0e96","726010.5","599.5","77","1","swim","","","","",""
"dual-task","null","null","null","","swim","swim","547.2000000476837","","F","null","77","77","1","swim-dual-task","","F","uppercase","732000","0","5","1eede0d45f265579097b1aaa40af2706a91dd5734e27c7c96d2a8e1d80da0e96","732005.2999999523","547.2000000476837","77","1","swim","","","","",""
"dual-task","null","null","null","","swim","swim","620.3999999761581","","d","null","88","88","1","swim-dual-task","","d","lowercase","740000","0","5","1eede0d45f265579097b1aaa40af2706a91dd5734e27c7c96d2a8e1d80da0e96","740012.3999999762","620.3999999761581","88","1","swim","","","","",""
"dual-task","null","null","null","","swim","swim","480.60000002384186","","b","null","88","88","1","swim-dual-task","","b","lowercase","752000","0","5","1eede0d45f265579097b1aaa40af2706a91dd5734e27c7c96d2a8e1d80da0e96","752002.7999999523","480.60000002384186","88","1","swim","","","","",""
"dual-task","null","null","null","","swim","swim","627.7999999523163","","t","null","88","88","1","swim-dual-task","","t","lowercase","764000","0","5","1eede0d45f265579097b1aaa40af2706a91dd5734e27c7c96d2a8e1d80da0e96","764004.8999999762","627.7999999523163","88","1","swim","","","","",""
"dual-task","null","null","null","","swim","swim","591.5","","r","null","88","88","1","swim-dual-task","","r","lowercase","776000","0","5","1eede0d45f265579097b1aaa40af2706a91dd5734e27c7c96d2a8e1d80da0e96","776015.1000000238","591.5","88","1","swim","","","","",""
"dual-task","null","null","null","","swim","swim","604.0999999046326","","n","null","88","88","1","swim-dual-task","","n","lowercase","786000","0","5","1eede0d45f265579097b1aaa40af2706a91dd5734e27c7c96d2a8e1d80da0e96","786002","604.0999999046326","88","1","swim","","","","",""
"dual-task","null","null","null","","swim","swim","535","","H","null","77","77","1","swim-dual-task","","H","uppercase","798000","0","5","1eede0d45f265579097b1aaa40af2706a91dd5734e27c7c96d2a8e1d80da0e96","798013.2999999523","535","77","1","swim","","","","",""
"audio-keyboard-response","29","1012886","0.0-7.0-0.0-1.0","1eede0d45f265579097b1aaa40af2706a91dd5734e27c7c96d2a8e1d80da0e96","swim","swim","null","","audio/story_swim_scrambled.mp3","","null","","","","","","","","","","","","","","","","","","","",""
"html-button-response","30","1015613","0.0-7.0-0.0-2.0","1eede0d45f265579097b1aaa40af2706a91dd5734e27c7c96d2a8e1d80da0e96","swim","swim","2723","","<p>This concludes the story. Thank you for listening.</p><p>You will now answer some questions about the content of the story.</p>","0","","","","","","","","","","","","","","","","","","","","",""
"survey-multi-choice","31","1023062","0.0-7.0-0.0-3.0-0.0","1eede0d45f265579097b1aaa40af2706a91dd5734e27c7c96d2a8e1d80da0e96","swim","swim","7447","","<b>How many astronaut candidates reported for duty at the Johnson Space Center?</b>","","","","1","swim-comprehension","","","","","","","","","","","","","{""Q0"":""Forty-four""}","","","",""
"survey-multi-choice","32","1030345","0.0-7.0-0.0-3.0-0.1","1eede0d45f265579097b1aaa40af2706a91dd5734e27c7c96d2a8e1d80da0e96","swim","swim","7030","","<b>How often does the narrator swim, now that he is a good swimmer?</b>","","","","0","swim-comprehension","","","","","","","","","","","","","{""Q0"":""Every weekend with his kids""}","","","",""
"survey-multi-choice","33","1038824","0.0-7.0-0.0-3.0-0.2","1eede0d45f265579097b1aaa40af2706a91dd5734e27c7c96d2a8e1d80da0e96","swim","swim","8226","","<b>What were the astronaut candidates trained to do at the naval air station?</b>","","","","1","swim-comprehension","","","","","","","","","","","","","{""Q0"":""Eject out of aircraft and survive in water long enough to be rescued""}","","","",""
"survey-multi-choice","34","1043064","0.0-7.0-0.0-3.0-0.3","1eede0d45f265579097b1aaa40af2706a91dd5734e27c7c96d2a8e1d80da0e96","swim","swim","3980","","<b>How did the narrator train for his swim test?</b>","","","","0","swim-comprehension","","","","","","","","","","","","","{""Q0"":""Signed up for a swim class""}","","","",""
"survey-multi-choice","35","1045973","0.0-7.0-0.0-3.0-0.4","1eede0d45f265579097b1aaa40af2706a91dd5734e27c7c96d2a8e1d80da0e96","swim","swim","2651","","<b>What is the narrator afraid of, aside from the water?</b>","","","","1","swim-comprehension","","","","","","","","","","","","","{""Q0"":""Heights""}","","","",""
"survey-multi-choice","36","1052646","0.0-7.0-0.0-3.0-0.5","1eede0d45f265579097b1aaa40af2706a91dd5734e27c7c96d2a8e1d80da0e96","swim","swim","6418","","<b>What was the final step of the first swim test in the pool?</b>","","","","0","swim-comprehension","","","","","","","","","","","","","{""Q0"":""Swim three laps of the pool underwater""}","","","",""
"survey-multi-choice","37","1058873","0.0-7.0-0.0-3.0-0.6","1eede0d45f265579097b1aaa40af2706a91dd5734e27c7c96d2a8e1d80da0e96","swim","swim","5974","","<b>What gave the narrator his greatest feeling of accomplishment?</b>","","","","1","swim-comprehension","","","","","","","","","","","","","{""Q0"":""Passing the water survival course""}","","","",""
"survey-multi-choice","38","1061960","0.0-7.0-0.0-3.0-0.7","1eede0d45f265579097b1aaa40af2706a91dd5734e27c7c96d2a8e1d80da0e96","swim","swim","2835","","<b>Where is the home of naval aviation?</b>","","","","1","swim-comprehension","","","","","","","","","","","","","{""Q0"":""Pensacola""}","","","",""
"survey-multi-choice","39","1066693","0.0-7.0-0.0-3.0-0.8","1eede0d45f265579097b1aaa40af2706a91dd5734e27c7c96d2a8e1d80da0e96","swim","swim","4477","","<b>How many times did the astronaut candidates have to complete the final exercise to pass?</b>","","","","0","swim-comprehension","","","","","","","","","","","","","{""Q0"":""Five""}","","","",""
"survey-multi-choice","40","1069796","0.0-7.0-0.0-3.0-0.9","1eede0d45f265579097b1aaa40af2706a91dd5734e27c7c96d2a8e1d80da0e96","swim","swim","2849","","<b>How many astronaut candidates passed the first swim test?</b>","","","","0","swim-comprehension","","","","","","","","","","","","","{""Q0"":""All but one""}","","","",""
"html-button-response","41","1071307","0.0-7.0-0.0-4.0","1eede0d45f265579097b1aaa40af2706a91dd5734e27c7c96d2a8e1d80da0e96","swim","swim","1258","","<p>Thank you for your responses.</p><p>You will now answer some questions about your impressions of the story.</p>","0","","","","","","","","","","","","","","","","","","","","",""
"html-button-response","42","1074425","0.0-7.0-0.0-5.0-0.0","1eede0d45f265579097b1aaa40af2706a91dd5734e27c7c96d2a8e1d80da0e96","swim","swim","3118","","MS1","4","","","","swim-engagement","","","","","","","","","","","","","","5","mental-sim","",""
"html-button-response","43","1077271","0.0-7.0-0.0-5.0-0.1","1eede0d45f265579097b1aaa40af2706a91dd5734e27c7c96d2a8e1d80da0e96","swim","swim","2592","","A5","2","","","","swim-engagement","","","","","","","","","","","","","","3","absorption","",""
"html-button-response","44","1079439","0.0-7.0-0.0-5.0-0.2","1eede0d45f265579097b1aaa40af2706a91dd5734e27c7c96d2a8e1d80da0e96","swim","swim","1914","","E7","3","","","","swim-engagement","","","","","","","","","","","","","","4","enjoyment","",""
"html-button-response","45","1081567","0.0-7.0-0.0-5.0-0.3","1eede0d45f265579097b1aaa40af2706a91dd5734e27c7c96d2a8e1d80da0e96","swim","swim","1859","","EE4","2","","","","swim-engagement","","","","","","","","","","","","","","3","emo-engage","",""
"html-button-response","46","1082987","0.0-7.0-0.0-5.0-0.4","1eede0d45f265579097b1aaa40af2706a91dd5734e27c7c96d2a8e1d80da0e96","swim","swim","1169","","E1","2","","","","swim-engagement","","","","","","","","","","","","","","3","enjoyment","",""
"html-button-response","47","1085932","0.0-7.0-0.0-5.0-0.5","1eede0d45f265579097b1aaa40af2706a91dd5734e27c7c96d2a8e1d80da0e96","swim","swim","2692","","A2","4","","","","swim-engagement","","","","","","","","","","","","","","5","absorption","",""
"html-button-response","48","1088450","0.0-7.0-0.0-5.0-0.6","1eede0d45f265579097b1aaa40af2706a91dd5734e27c7c96d2a8e1d80da0e96","swim","swim","2266","","A1","4","","","","swim-engagement","","","","","","","","","","","","","","5","absorption","",""
"html-button-response","49","1089986","0.0-7.0-0.0-5.0-0.7","1eede0d45f265579097b1aaa40af2706a91dd5734e27c7c96d2a8e1d80da0e96","swim","swim","1283","","E8","0","","","","swim-engagement","","","","","","","","","","","","","","1","enjoyment","",""
"html-button-response","50","1091874","0.0-7.0-0.0-5.0-0.8","1eede0d45f265579097b1aaa40af2706a91dd5734e27c7c96d2a8e1d80da0e96","swim","swim","1637","","E6","2","","","","swim-engagement","","","","","","","","","","","","","","3","enjoyment","",""
"html-button-response","51","1093925","0.0-7.0-0.0-5.0-0.9","1eede0d45f265579097b1aaa40af2706a91dd5734e27c7c96d2a8e1d80da0e96","swim","swim","1798","","EE3","0","","","","swim-engagement","","","","","","","","","","","","","","1","emo-engage","",""
"html-button-response","52","1096872","0.0-7.0-0.0-5.0-0.10","1eede0d45f265579097b1aaa40af2706a91dd5734e27c7c96d2a8e1d80da0e96","swim","swim","2696","","A4","0","","","","swim-engagement","","","","","","","","","","","","","","1","absorption","",""
"html-button-response","53","1098820","0.0-7.0-0.0-5.0-0.11","1eede0d45f265579097b1aaa40af2706a91dd5734e27c7c96d2a8e1d80da0e96","swim","swim","1695","","EE5","0","","","","swim-engagement","","","","","","","","","","","","","","1","emo-engage","",""
"html-button-response","54","1101370","0.0-7.0-0.0-5.0-0.12","1eede0d45f265579097b1aaa40af2706a91dd5734e27c7c96d2a8e1d80da0e96","swim","swim","2298","","EE2","2","","","","swim-engagement","","","","","","","","","","","","","","3","emo-engage","",""
"html-button-response","55","1104458","0.0-7.0-0.0-5.0-0.13","1eede0d45f265579097b1aaa40af2706a91dd5734e27c7c96d2a8e1d80da0e96","swim","swim","2834","","EE1","3","","","","swim-engagement","","","","","","","","","","","","","","4","emo-engage","",""
"html-button-response","56","1107022","0.0-7.0-0.0-5.0-0.14","1eede0d45f265579097b1aaa40af2706a91dd5734e27c7c96d2a8e1d80da0e96","swim","swim","2312","","E10","0","","","","swim-engagement","","","","","","","","","","","","","","1","enjoyment","",""
"html-button-response","57","1108660","0.0-7.0-0.0-5.0-0.15","1eede0d45f265579097b1aaa40af2706a91dd5734e27c7c96d2a8e1d80da0e96","swim","swim","1386","","A3","0","","","","swim-engagement","","","","","","","","","","","","","","1","absorption","",""
"html-button-response","58","1112332","0.0-7.0-0.0-5.0-0.16","1eede0d45f265579097b1aaa40af2706a91dd5734e27c7c96d2a8e1d80da0e96","swim","swim","3421","","MS2","3","","","","swim-engagement","","","","","","","","","","","","","","4","mental-sim","",""
"html-button-response","59","1114514","0.0-7.0-0.0-5.0-0.17","1eede0d45f265579097b1aaa40af2706a91dd5734e27c7c96d2a8e1d80da0e96","swim","swim","1930","","MS3","3","","","","swim-engagement","","","","","","","","","","","","","","4","mental-sim","",""
"html-keyboard-response","60","1119361","0.0-7.0-1.0","1eede0d45f265579097b1aaa40af2706a91dd5734e27c7c96d2a8e1d80da0e96","swim","swim","4596","","<p>Thank you for your responses. You will now listen to the second story.</p><p>Remember, as you listen to the story you will see letters appear on the screen.</br>As quickly as possible, press <b>&lt;x&gt;</b> if the letter is lowercase and <b>&lt;m&gt;</b> if the letter is uppercase.</p><p>Press <b>&lt;x&gt;</b> or <b>&lt;m&gt;</b> to begin listening!</p>","","77","","","","","","","","","","","","","","","","","","","",""
"html-keyboard-response","61","1119864","0.0-7.0-2.0-0.0","1eede0d45f265579097b1aaa40af2706a91dd5734e27c7c96d2a8e1d80da0e96","swim","swim","null","","<div style=""font-size:60px;"" tabindex=""0"">+</div>","","null","","","","","","","","","","","","","","","","","","","",""
"dual-task","null","null","null","","swim","swim","673.8999999761581","","B","null","77","77","1","arctic-dual-task","","B","uppercase","18000","0","5","1eede0d45f265579097b1aaa40af2706a91dd5734e27c7c96d2a8e1d80da0e96","18016.200000047684","673.8999999761581","77","1","arctic","","","","",""
"dual-task","null","null","null","","swim","swim","604","","q","null","88","88","1","arctic-dual-task","","q","lowercase","32000","0","5","1eede0d45f265579097b1aaa40af2706a91dd5734e27c7c96d2a8e1d80da0e96","32013.600000023842","604","88","1","arctic","","","","",""
"dual-task","null","null","null","","swim","swim","708.3999999761581","","Q","null","77","77","1","arctic-dual-task","","Q","uppercase","42000","0","5","1eede0d45f265579097b1aaa40af2706a91dd5734e27c7c96d2a8e1d80da0e96","42003.60000002384","708.3999999761581","77","1","arctic","","","","",""
"dual-task","null","null","null","","swim","swim","714.2000000476837","","f","null","88","88","1","arctic-dual-task","","f","lowercase","56000","0","5","1eede0d45f265579097b1aaa40af2706a91dd5734e27c7c96d2a8e1d80da0e96","56008.90000009537","714.2000000476837","88","1","arctic","","","","",""
"dual-task","null","null","null","","swim","swim","730.2999999523163","","e","null","88","88","1","arctic-dual-task","","e","lowercase","68000","0","5","1eede0d45f265579097b1aaa40af2706a91dd5734e27c7c96d2a8e1d80da0e96","68011.40000009537","730.2999999523163","88","1","arctic","","","","",""
"dual-task","null","null","null","","swim","swim","834.7000000476837","","D","null","77","77","1","arctic-dual-task","","D","uppercase","82000","0","5","1eede0d45f265579097b1aaa40af2706a91dd5734e27c7c96d2a8e1d80da0e96","82016","834.7000000476837","77","1","arctic","","","","",""
"dual-task","null","null","null","","swim","swim","1894.3999999761581","","f","null","88","88","1","arctic-dual-task","","f","lowercase","88000","0","5","1eede0d45f265579097b1aaa40af2706a91dd5734e27c7c96d2a8e1d80da0e96","88013.20000004768","1894.3999999761581","88","1","arctic","","","","",""
"dual-task","null","null","null","","swim","swim","511.6999999284744","","G","null","77","77","1","arctic-dual-task","","G","uppercase","100000","0","5","1eede0d45f265579097b1aaa40af2706a91dd5734e27c7c96d2a8e1d80da0e96","100005.30000007153","511.6999999284744","77","1","arctic","","","","",""
"dual-task","null","null","null","","swim","swim","711.7999999523163","","t","null","88","88","1","arctic-dual-task","","t","lowercase","108000","0","5","1eede0d45f265579097b1aaa40af2706a91dd5734e27c7c96d2a8e1d80da0e96","108008.70000004768","711.7999999523163","88","1","arctic","","","","",""
"dual-task","null","null","null","","swim","swim","597.6000000238419","","F","null","77","77","1","arctic-dual-task","","F","uppercase","116000","0","5","1eede0d45f265579097b1aaa40af2706a91dd5734e27c7c96d2a8e1d80da0e96","116000.10000002384","597.6000000238419","77","1","arctic","","","","",""
"dual-task","null","null","null","","swim","swim","577.6999999284744","","N","null","77","77","1","arctic-dual-task","","N","uppercase","124000","0","5","1eede0d45f265579097b1aaa40af2706a91dd5734e27c7c96d2a8e1d80da0e96","124002.30000007153","577.6999999284744","77","1","arctic","","","","",""
"dual-task","null","null","null","","swim","swim","696.2999999523163","","b","null","88","88","1","arctic-dual-task","","b","lowercase","134000","0","5","1eede0d45f265579097b1aaa40af2706a91dd5734e27c7c96d2a8e1d80da0e96","134002.10000002384","696.2999999523163","88","1","arctic","","","","",""
"dual-task","null","null","null","","swim","swim","777","","A","null","77","77","1","arctic-dual-task","","A","uppercase","144000","0","5","1eede0d45f265579097b1aaa40af2706a91dd5734e27c7c96d2a8e1d80da0e96","144001.70000004768","777","77","1","arctic","","","","",""
"dual-task","null","null","null","","swim","swim","1130.3999999761581","","q","null","88","88","1","arctic-dual-task","","q","lowercase","150000","0","5","1eede0d45f265579097b1aaa40af2706a91dd5734e27c7c96d2a8e1d80da0e96","150006.60000002384","1130.3999999761581","88","1","arctic","","","","",""
"dual-task","null","null","null","","swim","swim","528.6999999284744","","H","null","77","77","1","arctic-dual-task","","H","uppercase","160000","0","5","1eede0d45f265579097b1aaa40af2706a91dd5734e27c7c96d2a8e1d80da0e96","160001.80000007153","528.6999999284744","77","1","arctic","","","","",""
"dual-task","null","null","null","","swim","swim","625.6999999284744","","t","null","77","88","0","arctic-dual-task","","t","lowercase","170000","0","5","1eede0d45f265579097b1aaa40af2706a91dd5734e27c7c96d2a8e1d80da0e96","170002.40000009537","625.6999999284744","77","0","arctic","","","","",""
"dual-task","null","null","null","","swim","swim","416.39999997615814","","r","null","88","88","1","arctic-dual-task","","r","lowercase","176000","0","5","1eede0d45f265579097b1aaa40af2706a91dd5734e27c7c96d2a8e1d80da0e96","176013.30000007153","416.39999997615814","88","1","arctic","","","","",""
"dual-task","null","null","null","","swim","swim","504.7999999523163","","e","null","88","88","1","arctic-dual-task","","e","lowercase","188000","0","5","1eede0d45f265579097b1aaa40af2706a91dd5734e27c7c96d2a8e1d80da0e96","188014.20000004768","504.7999999523163","88","1","arctic","","","","",""
"dual-task","null","null","null","","swim","swim","564.6000000238419","","F","null","77","77","1","arctic-dual-task","","F","uppercase","194000","0","5","1eede0d45f265579097b1aaa40af2706a91dd5734e27c7c96d2a8e1d80da0e96","194004.10000002384","564.6000000238419","77","1","arctic","","","","",""
"dual-task","null","null","null","","swim","swim","499.7000000476837","","R","null","77","77","1","arctic-dual-task","","R","uppercase","204000","0","5","1eede0d45f265579097b1aaa40af2706a91dd5734e27c7c96d2a8e1d80da0e96","204010.70000004768","499.7000000476837","77","1","arctic","","","","",""
"dual-task","null","null","null","","swim","swim","493.90000009536743","","q","null","88","88","1","arctic-dual-task","","q","lowercase","214000","0","5","1eede0d45f265579097b1aaa40af2706a91dd5734e27c7c96d2a8e1d80da0e96","214010.20000004768","493.90000009536743","88","1","arctic","","","","",""
"dual-task","null","null","null","","swim","swim","556.3000000715256","","h","null","88","88","1","arctic-dual-task","","h","lowercase","224000","0","5","1eede0d45f265579097b1aaa40af2706a91dd5734e27c7c96d2a8e1d80da0e96","224014.40000009537","556.3000000715256","88","1","arctic","","","","",""
"dual-task","null","null","null","","swim","swim","1513.7999999523163","","H","null","77","77","1","arctic-dual-task","","H","uppercase","230000","0","5","1eede0d45f265579097b1aaa40af2706a91dd5734e27c7c96d2a8e1d80da0e96","230002.90000009537","1513.7999999523163","77","1","arctic","","","","",""
"dual-task","null","null","null","","swim","swim","593.5","","D","null","77","77","1","arctic-dual-task","","D","uppercase","244000","0","5","1eede0d45f265579097b1aaa40af2706a91dd5734e27c7c96d2a8e1d80da0e96","244006.70000004768","593.5","77","1","arctic","","","","",""
"dual-task","null","null","null","","swim","swim","469.2000000476837","","a","null","88","88","1","arctic-dual-task","","a","lowercase","258000","0","5","1eede0d45f265579097b1aaa40af2706a91dd5734e27c7c96d2a8e1d80da0e96","258010.70000004768","469.2000000476837","88","1","arctic","","","","",""
"dual-task","null","null","null","","swim","swim","1045.8000000715256","","n","null","88","88","1","arctic-dual-task","","n","lowercase","266000","0","5","1eede0d45f265579097b1aaa40af2706a91dd5734e27c7c96d2a8e1d80da0e96","266004.10000002384","1045.8000000715256","88","1","arctic","","","","",""
"dual-task","null","null","null","","swim","swim","605.5","","d","null","88","88","1","arctic-dual-task","","d","lowercase","276000","0","5","1eede0d45f265579097b1aaa40af2706a91dd5734e27c7c96d2a8e1d80da0e96","276001","605.5","88","1","arctic","","","","",""
"dual-task","null","null","null","","swim","swim","676.8999999761581","","r","null","88","88","1","arctic-dual-task","","r","lowercase","290000","0","5","1eede0d45f265579097b1aaa40af2706a91dd5734e27c7c96d2a8e1d80da0e96","290005.90000009537","676.8999999761581","88","1","arctic","","","","",""
"dual-task","null","null","null","","swim","swim","613.2000000476837","","B","null","77","77","1","arctic-dual-task","","B","uppercase","298000","0","5","1eede0d45f265579097b1aaa40af2706a91dd5734e27c7c96d2a8e1d80da0e96","298000.40000009537","613.2000000476837","77","1","arctic","","","","",""
"dual-task","null","null","null","","swim","swim","922.7000000476837","","Q","null","77","77","1","arctic-dual-task","","Q","uppercase","306000","0","5","1eede0d45f265579097b1aaa40af2706a91dd5734e27c7c96d2a8e1d80da0e96","306006.7000000477","922.7000000476837","77","1","arctic","","","","",""
"dual-task","null","null","null","","swim","swim","837.6000000238419","","N","null","77","77","1","arctic-dual-task","","N","uppercase","316000","0","5","1eede0d45f265579097b1aaa40af2706a91dd5734e27c7c96d2a8e1d80da0e96","316002.7000000477","837.6000000238419","77","1","arctic","","","","",""
"dual-task","null","null","null","","swim","swim","691.3999999761581","","G","null","77","77","1","arctic-dual-task","","G","uppercase","328000","0","5","1eede0d45f265579097b1aaa40af2706a91dd5734e27c7c96d2a8e1d80da0e96","328003.60000002384","691.3999999761581","77","1","arctic","","","","",""
"dual-task","null","null","null","","swim","swim","728.5","","d","null","88","88","1","arctic-dual-task","","d","lowercase","342000","0","5","1eede0d45f265579097b1aaa40af2706a91dd5734e27c7c96d2a8e1d80da0e96","342012.5","728.5","88","1","arctic","","","","",""
"dual-task","null","null","null","","swim","swim","560.2999999523163","","D","null","77","77","1","arctic-dual-task","","D","uppercase","354000","0","5","1eede0d45f265579097b1aaa40af2706a91dd5734e27c7c96d2a8e1d80da0e96","354014.2000000477","560.2999999523163","77","1","arctic","","","","",""
"dual-task","null","null","null","","swim","swim","602.5","","b","null","88","88","1","arctic-dual-task","","b","lowercase","364000","0","5","1eede0d45f265579097b1aaa40af2706a91dd5734e27c7c96d2a8e1d80da0e96","364003.60000002384","602.5","88","1","arctic","","","","",""
"dual-task","null","null","null","","swim","swim","460.5","","f","null","88","88","1","arctic-dual-task","","f","lowercase","372000","0","5","1eede0d45f265579097b1aaa40af2706a91dd5734e27c7c96d2a8e1d80da0e96","372002.90000009537","460.5","88","1","arctic","","","","",""
"dual-task","null","null","null","","swim","swim","732.5","","n","null","88","88","1","arctic-dual-task","","n","lowercase","378000","0","5","1eede0d45f265579097b1aaa40af2706a91dd5734e27c7c96d2a8e1d80da0e96","378002.8000000715","732.5","88","1","arctic","","","","",""
"dual-task","null","null","null","","swim","swim","545.2999999523163","","E","null","77","77","1","arctic-dual-task","","E","uppercase","388000","0","5","1eede0d45f265579097b1aaa40af2706a91dd5734e27c7c96d2a8e1d80da0e96","388009.5","545.2999999523163","77","1","arctic","","","","",""
"dual-task","null","null","null","","swim","swim","727.8999999761581","","G","null","77","77","1","arctic-dual-task","","G","uppercase","394000","0","5","1eede0d45f265579097b1aaa40af2706a91dd5734e27c7c96d2a8e1d80da0e96","394013.3000000715","727.8999999761581","77","1","arctic","","","","",""
"dual-task","null","null","null","","swim","swim","529.5","","A","null","77","77","1","arctic-dual-task","","A","uppercase","406000","0","5","1eede0d45f265579097b1aaa40af2706a91dd5734e27c7c96d2a8e1d80da0e96","406011.90000009537","529.5","77","1","arctic","","","","",""
"dual-task","null","null","null","","swim","swim","592","","E","null","77","77","1","arctic-dual-task","","E","uppercase","412000","0","5","1eede0d45f265579097b1aaa40af2706a91dd5734e27c7c96d2a8e1d80da0e96","412011.8000000715","592","77","1","arctic","","","","",""
"dual-task","null","null","null","","swim","swim","673.1000000238419","","E","null","77","77","1","arctic-dual-task","","E","uppercase","426000","0","5","1eede0d45f265579097b1aaa40af2706a91dd5734e27c7c96d2a8e1d80da0e96","426014.2000000477","673.1000000238419","77","1","arctic","","","","",""
"dual-task","null","null","null","","swim","swim","569.8999999761581","","n","null","88","88","1","arctic-dual-task","","n","lowercase","438000","0","5","1eede0d45f265579097b1aaa40af2706a91dd5734e27c7c96d2a8e1d80da0e96","438014.3000000715","569.8999999761581","88","1","arctic","","","","",""
"dual-task","null","null","null","","swim","swim","642.1000000238419","","e","null","88","88","1","arctic-dual-task","","e","lowercase","450000","0","5","1eede0d45f265579097b1aaa40af2706a91dd5734e27c7c96d2a8e1d80da0e96","450008.2000000477","642.1000000238419","88","1","arctic","","","","",""
"dual-task","null","null","null","","swim","swim","789.7000000476837","","d","null","88","88","1","arctic-dual-task","","d","lowercase","462000","0","5","1eede0d45f265579097b1aaa40af2706a91dd5734e27c7c96d2a8e1d80da0e96","462006.5","789.7000000476837","88","1","arctic","","","","",""
"dual-task","null","null","null","","swim","swim","1491","","T","null","77","77","1","arctic-dual-task","","T","uppercase","474000","0","5","1eede0d45f265579097b1aaa40af2706a91dd5734e27c7c96d2a8e1d80da0e96","474004.10000002384","1491","77","1","arctic","","","","",""
"dual-task","null","null","null","","swim","swim","619","","b","null","88","88","1","arctic-dual-task","","b","lowercase","482000","0","5","1eede0d45f265579097b1aaa40af2706a91dd5734e27c7c96d2a8e1d80da0e96","482008.3000000715","619","88","1","arctic","","","","",""
"dual-task","null","null","null","","swim","swim","1264.6000000238419","","N","null","77","77","1","arctic-dual-task","","N","uppercase","488000","0","5","1eede0d45f265579097b1aaa40af2706a91dd5734e27c7c96d2a8e1d80da0e96","488007.2000000477","1264.6000000238419","77","1","arctic","","","","",""
"dual-task","null","null","null","","swim","swim","1957.5","","t","null","88","88","1","arctic-dual-task","","t","lowercase","494000","0","5","1eede0d45f265579097b1aaa40af2706a91dd5734e27c7c96d2a8e1d80da0e96","494011.8000000715","1957.5","88","1","arctic","","","","",""
"dual-task","null","null","null","","swim","swim","750.1000000238419","","h","null","88","88","1","arctic-dual-task","","h","lowercase","500000","0","5","1eede0d45f265579097b1aaa40af2706a91dd5734e27c7c96d2a8e1d80da0e96","500003.3000000715","750.1000000238419","88","1","arctic","","","","",""
"dual-task","null","null","null","","swim","swim","707.8999999761581","","T","null","77","77","1","arctic-dual-task","","T","uppercase","508000","0","5","1eede0d45f265579097b1aaa40af2706a91dd5734e27c7c96d2a8e1d80da0e96","508001.8000000715","707.8999999761581","77","1","arctic","","","","",""
"dual-task","null","null","null","","swim","swim","643","","g","null","88","88","1","arctic-dual-task","","g","lowercase","522000","0","5","1eede0d45f265579097b1aaa40af2706a91dd5734e27c7c96d2a8e1d80da0e96","522006.10000002384","643","88","1","arctic","","","","",""
"dual-task","null","null","null","","swim","swim","898.0999999046326","","H","null","77","77","1","arctic-dual-task","","H","uppercase","534000","0","5","1eede0d45f265579097b1aaa40af2706a91dd5734e27c7c96d2a8e1d80da0e96","534011.3000000715","898.0999999046326","77","1","arctic","","","","",""
"dual-task","null","null","null","","swim","swim","783.8999999761581","","Q","null","77","77","1","arctic-dual-task","","Q","uppercase","546000","0","5","1eede0d45f265579097b1aaa40af2706a91dd5734e27c7c96d2a8e1d80da0e96","546005.7000000477","783.8999999761581","77","1","arctic","","","","",""
"dual-task","null","null","null","","swim","swim","662","","t","null","88","88","1","arctic-dual-task","","t","lowercase","560000","0","5","1eede0d45f265579097b1aaa40af2706a91dd5734e27c7c96d2a8e1d80da0e96","560012.6000000238","662","88","1","arctic","","","","",""
"dual-task","null","null","null","","swim","swim","702.9000000953674","","H","null","77","77","1","arctic-dual-task","","H","uppercase","574000","0","5","1eede0d45f265579097b1aaa40af2706a91dd5734e27c7c96d2a8e1d80da0e96","574015.9000000954","702.9000000953674","77","1","arctic","","","","",""
"dual-task","null","null","null","","swim","swim","649.2000000476837","","b","null","88","88","1","arctic-dual-task","","b","lowercase","588000","0","5","1eede0d45f265579097b1aaa40af2706a91dd5734e27c7c96d2a8e1d80da0e96","588008.2000000477","649.2000000476837","88","1","arctic","","","","",""
"dual-task","null","null","null","","swim","swim","610.1000000238419","","h","null","88","88","1","arctic-dual-task","","h","lowercase","602000","0","5","1eede0d45f265579097b1aaa40af2706a91dd5734e27c7c96d2a8e1d80da0e96","602012.2000000477","610.1000000238419","88","1","arctic","","","","",""
"dual-task","null","null","null","","swim","swim","1623.6000000238419","","R","null","77","77","1","arctic-dual-task","","R","uppercase","610000","0","5","1eede0d45f265579097b1aaa40af2706a91dd5734e27c7c96d2a8e1d80da0e96","610001.4000000954","1623.6000000238419","77","1","arctic","","","","",""
"dual-task","null","null","null","","swim","swim","566.6000000238419","","r","null","88","88","1","arctic-dual-task","","r","lowercase","620000","0","5","1eede0d45f265579097b1aaa40af2706a91dd5734e27c7c96d2a8e1d80da0e96","620013.7000000477","566.6000000238419","88","1","arctic","","","","",""
"dual-task","null","null","null","","swim","swim","436.3000000715256","","R","null","77","77","1","arctic-dual-task","","R","uppercase","634000","0","5","1eede0d45f265579097b1aaa40af2706a91dd5734e27c7c96d2a8e1d80da0e96","634010.5","436.3000000715256","77","1","arctic","","","","",""
"dual-task","null","null","null","","swim","swim","728.6000000238419","","a","null","88","88","1","arctic-dual-task","","a","lowercase","648000","0","5","1eede0d45f265579097b1aaa40af2706a91dd5734e27c7c96d2a8e1d80da0e96","648015","728.6000000238419","88","1","arctic","","","","",""
"dual-task","null","null","null","","swim","swim","NA","","A","null","NA","77","0","arctic-dual-task","","A","uppercase","656000","1","5","1eede0d45f265579097b1aaa40af2706a91dd5734e27c7c96d2a8e1d80da0e96","656011.3000000715","NA","NA","0","arctic","","","","",""
"dual-task","null","null","null","","swim","swim","1832.8999999761581","","r","null","88","88","1","arctic-dual-task","","r","lowercase","668000","0","5","1eede0d45f265579097b1aaa40af2706a91dd5734e27c7c96d2a8e1d80da0e96","668011.1000000238","1832.8999999761581","88","1","arctic","","","","",""
"dual-task","null","null","null","","swim","swim","1946.6000000238419","","N","null","77","77","1","arctic-dual-task","","N","uppercase","676000","0","5","1eede0d45f265579097b1aaa40af2706a91dd5734e27c7c96d2a8e1d80da0e96","676009.4000000954","1946.6000000238419","77","1","arctic","","","","",""
"dual-task","null","null","null","","swim","swim","874.5","","B","null","77","77","1","arctic-dual-task","","B","uppercase","690000","0","5","1eede0d45f265579097b1aaa40af2706a91dd5734e27c7c96d2a8e1d80da0e96","690014.9000000954","874.5","77","1","arctic","","","","",""
"dual-task","null","null","null","","swim","swim","1105.1000000238419","","B","null","77","77","1","arctic-dual-task","","B","uppercase","700000","0","5","1eede0d45f265579097b1aaa40af2706a91dd5734e27c7c96d2a8e1d80da0e96","700001.5","1105.1000000238419","77","1","arctic","","","","",""
"dual-task","null","null","null","","swim","swim","1044.6999999284744","","q","null","88","88","1","arctic-dual-task","","q","lowercase","708000","0","5","1eede0d45f265579097b1aaa40af2706a91dd5734e27c7c96d2a8e1d80da0e96","708006.3000000715","1044.6999999284744","88","1","arctic","","","","",""
"dual-task","null","null","null","","swim","swim","651.3999999761581","","D","null","77","77","1","arctic-dual-task","","D","uppercase","720000","0","5","1eede0d45f265579097b1aaa40af2706a91dd5734e27c7c96d2a8e1d80da0e96","720011.8000000715","651.3999999761581","77","1","arctic","","","","",""
"dual-task","null","null","null","","swim","swim","788.6000000238419","","a","null","88","88","1","arctic-dual-task","","a","lowercase","726000","0","5","1eede0d45f265579097b1aaa40af2706a91dd5734e27c7c96d2a8e1d80da0e96","726011.6000000238","788.6000000238419","88","1","arctic","","","","",""
"dual-task","null","null","null","","swim","swim","562.9000000953674","","n","null","88","88","1","arctic-dual-task","","n","lowercase","736000","0","5","1eede0d45f265579097b1aaa40af2706a91dd5734e27c7c96d2a8e1d80da0e96","736012.5","562.9000000953674","88","1","arctic","","","","",""
"dual-task","null","null","null","","swim","swim","484.7999999523163","","g","null","88","88","1","arctic-dual-task","","g","lowercase","746000","0","5","1eede0d45f265579097b1aaa40af2706a91dd5734e27c7c96d2a8e1d80da0e96","746012.7000000477","484.7999999523163","88","1","arctic","","","","",""
"dual-task","null","null","null","","swim","swim","606.2999999523163","","a","null","88","88","1","arctic-dual-task","","a","lowercase","758000","0","5","1eede0d45f265579097b1aaa40af2706a91dd5734e27c7c96d2a8e1d80da0e96","758005.2000000477","606.2999999523163","88","1","arctic","","","","",""
"dual-task","null","null","null","","swim","swim","732.5","","R","null","77","77","1","arctic-dual-task","","R","uppercase","764000","0","5","1eede0d45f265579097b1aaa40af2706a91dd5734e27c7c96d2a8e1d80da0e96","764012.1000000238","732.5","77","1","arctic","","","","",""
"dual-task","null","null","null","","swim","swim","706.5","","h","null","88","88","1","arctic-dual-task","","h","lowercase","774000","0","5","1eede0d45f265579097b1aaa40af2706a91dd5734e27c7c96d2a8e1d80da0e96","774002.6000000238","706.5","88","1","arctic","","","","",""
"dual-task","null","null","null","","swim","swim","734","","f","null","88","88","1","arctic-dual-task","","f","lowercase","786000","0","5","1eede0d45f265579097b1aaa40af2706a91dd5734e27c7c96d2a8e1d80da0e96","786011.4000000954","734","88","1","arctic","","","","",""
"audio-keyboard-response","62","1918015","0.0-7.0-2.0-1.0","1eede0d45f265579097b1aaa40af2706a91dd5734e27c7c96d2a8e1d80da0e96","swim","swim","null","","audio/story_arctic.mp3","","null","","","","","","","","","","","","","","","","","","","",""
"html-button-response","63","1919748","0.0-7.0-2.0-2.0","1eede0d45f265579097b1aaa40af2706a91dd5734e27c7c96d2a8e1d80da0e96","swim","swim","1731","","<p>This concludes the story. Thank you for listening.</p><p>You will now answer some questions about the content of the story.</p>","0","","","","","","","","","","","","","","","","","","","","",""
"survey-multi-choice","64","1926522","0.0-7.0-2.0-3.0-0.0","1eede0d45f265579097b1aaa40af2706a91dd5734e27c7c96d2a8e1d80da0e96","swim","swim","6771","","<b>What were the weather conditions in the Arctic like the winter of the narrator&#39;s expedition?</b>","","","","1","arctic-comprehension","","","","","","","","","","","","","{""Q0"":""There were more storms than any other winter in recorded history.""}","","","",""
"survey-multi-choice","65","1930987","0.0-7.0-2.0-3.0-0.1","1eede0d45f265579097b1aaa40af2706a91dd5734e27c7c96d2a8e1d80da0e96","swim","swim","4212","","<b>How did the dogs respond when they saw the bears?</b>","","","","1","arctic-comprehension","","","","","","","","","","","","","{""Q0"":""Approached them""}","","","",""
"survey-multi-choice","66","1934418","0.0-7.0-2.0-3.0-0.2","1eede0d45f265579097b1aaa40af2706a91dd5734e27c7c96d2a8e1d80da0e96","swim","swim","3175","","<b>How many sponsorships did the narrator receive to support her expedition?</b>","","","","1","arctic-comprehension","","","","","","","","","","","","","{""Q0"":""None""}","","","",""
"survey-multi-choice","67","1940104","0.0-7.0-2.0-3.0-0.3","1eede0d45f265579097b1aaa40af2706a91dd5734e27c7c96d2a8e1d80da0e96","swim","swim","5428","","<b>How did the narrator prepare for her expedition?</b>","","","","1","arctic-comprehension","","","","","","","","","","","","","{""Q0"":""Trained in Alaska learning how to dogsled""}","","","",""
"survey-multi-choice","68","1947656","0.0-7.0-2.0-3.0-0.4","1eede0d45f265579097b1aaa40af2706a91dd5734e27c7c96d2a8e1d80da0e96","swim","swim","7299","","<b>How did the narrator&#39;s encounter with the polar bears end?</b>","","","","1","arctic-comprehension","","","","","","","","","","","","","{""Q0"":""The bears walked back to their den.""}","","","",""
"survey-multi-choice","69","1951726","0.0-7.0-2.0-3.0-0.5","1eede0d45f265579097b1aaa40af2706a91dd5734e27c7c96d2a8e1d80da0e96","swim","swim","3817","","<b>What was the objective of the narrator&#39;s expedition?</b>","","","","1","arctic-comprehension","","","","","","","","","","","","","{""Q0"":""Dogsled across Arctic America""}","","","",""
"survey-multi-choice","70","1955646","0.0-7.0-2.0-3.0-0.6","1eede0d45f265579097b1aaa40af2706a91dd5734e27c7c96d2a8e1d80da0e96","swim","swim","3668","","<b>What did the narrator do for leisure while in her tent?</b>","","","","1","arctic-comprehension","","","","","","","","","","","","","{""Q0"":""Read""}","","","",""
"survey-multi-choice","71","1959162","0.0-7.0-2.0-3.0-0.7","1eede0d45f265579097b1aaa40af2706a91dd5734e27c7c96d2a8e1d80da0e96","swim","swim","3263","","<b>How did the narrator&#39;s neighbour respond when she told him about her expedition?</b>","","","","1","arctic-comprehension","","","","","","","","","","","","","{""Q0"":""He said she was going to fail.""}","","","",""
"survey-multi-choice","72","1964534","0.0-7.0-2.0-3.0-0.8","1eede0d45f265579097b1aaa40af2706a91dd5734e27c7c96d2a8e1d80da0e96","swim","swim","5119","","<b>What is the name of the narrator&#39;s neighbour?</b>","","","","1","arctic-comprehension","","","","","","","","","","","","","{""Q0"":""Dave""}","","","",""
"survey-multi-choice","73","1973468","0.0-7.0-2.0-3.0-0.9","1eede0d45f265579097b1aaa40af2706a91dd5734e27c7c96d2a8e1d80da0e96","swim","swim","8679","","<b>Which dog on the narrator&#39;s dog team never followed instructions?</b>","","","","1","arctic-comprehension","","","","","","","","","","","","","{""Q0"":""Robert""}","","","",""
"html-button-response","74","1974746","0.0-7.0-2.0-4.0","1eede0d45f265579097b1aaa40af2706a91dd5734e27c7c96d2a8e1d80da0e96","swim","swim","1025","","<p>Thank you for your responses.</p><p>You will now answer some questions about your impressions of the story.</p>","0","","","","","","","","","","","","","","","","","","","","",""
"html-button-response","75","1976922","0.0-7.0-2.0-5.0-0.0","1eede0d45f265579097b1aaa40af2706a91dd5734e27c7c96d2a8e1d80da0e96","swim","swim","2175","","A1","3","","","","arctic-engagement","","","","","","","","","","","","","","4","absorption","",""
"html-button-response","76","1979837","0.0-7.0-2.0-5.0-0.1","1eede0d45f265579097b1aaa40af2706a91dd5734e27c7c96d2a8e1d80da0e96","swim","swim","2663","","E6","4","","","","arctic-engagement","","","","","","","","","","","","","","5","enjoyment","",""
"html-button-response","77","1981873","0.0-7.0-2.0-5.0-0.2","1eede0d45f265579097b1aaa40af2706a91dd5734e27c7c96d2a8e1d80da0e96","swim","swim","1784","","MS2","4","","","","arctic-engagement","","","","","","","","","","","","","","5","mental-sim","",""
"html-button-response","78","1984400","0.0-7.0-2.0-5.0-0.3","1eede0d45f265579097b1aaa40af2706a91dd5734e27c7c96d2a8e1d80da0e96","swim","swim","2272","","EE4","4","","","","arctic-engagement","","","","","","","","","","","","","","5","emo-engage","",""
"html-button-response","79","1986630","0.0-7.0-2.0-5.0-0.4","1eede0d45f265579097b1aaa40af2706a91dd5734e27c7c96d2a8e1d80da0e96","swim","swim","1978","","A4","2","","","","arctic-engagement","","","","","","","","","","","","","","3","absorption","",""
"html-button-response","80","1988306","0.0-7.0-2.0-5.0-0.5","1eede0d45f265579097b1aaa40af2706a91dd5734e27c7c96d2a8e1d80da0e96","swim","swim","1423","","A2","5","","","","arctic-engagement","","","","","","","","","","","","","","6","absorption","",""
"html-button-response","81","1990264","0.0-7.0-2.0-5.0-0.6","1eede0d45f265579097b1aaa40af2706a91dd5734e27c7c96d2a8e1d80da0e96","swim","swim","1704","","MS3","4","","","","arctic-engagement","","","","","","","","","","","","","","5","mental-sim","",""
"html-button-response","82","1992386","0.0-7.0-2.0-5.0-0.7","1eede0d45f265579097b1aaa40af2706a91dd5734e27c7c96d2a8e1d80da0e96","swim","swim","1869","","A5","2","","","","arctic-engagement","","","","","","","","","","","","","","3","absorption","",""
"html-button-response","83","1993874","0.0-7.0-2.0-5.0-0.8","1eede0d45f265579097b1aaa40af2706a91dd5734e27c7c96d2a8e1d80da0e96","swim","swim","1235","","A3","3","","","","arctic-engagement","","","","","","","","","","","","","","4","absorption","",""
"html-button-response","84","1995496","0.0-7.0-2.0-5.0-0.9","1eede0d45f265579097b1aaa40af2706a91dd5734e27c7c96d2a8e1d80da0e96","swim","swim","1369","","EE3","1","","","","arctic-engagement","","","","","","","","","","","","","","2","emo-engage","",""
"html-button-response","85","1996937","0.0-7.0-2.0-5.0-0.10","1eede0d45f265579097b1aaa40af2706a91dd5734e27c7c96d2a8e1d80da0e96","swim","swim","1189","","E1","4","","","","arctic-engagement","","","","","","","","","","","","","","5","enjoyment","",""
"html-button-response","86","1998670","0.0-7.0-2.0-5.0-0.11","1eede0d45f265579097b1aaa40af2706a91dd5734e27c7c96d2a8e1d80da0e96","swim","swim","1478","","E7","3","","","","arctic-engagement","","","","","","","","","","","","","","4","enjoyment","",""
"html-button-response","87","2000448","0.0-7.0-2.0-5.0-0.12","1eede0d45f265579097b1aaa40af2706a91dd5734e27c7c96d2a8e1d80da0e96","swim","swim","1526","","EE5","3","","","","arctic-engagement","","","","","","","","","","","","","","4","emo-engage","",""
"html-button-response","88","2002156","0.0-7.0-2.0-5.0-0.13","1eede0d45f265579097b1aaa40af2706a91dd5734e27c7c96d2a8e1d80da0e96","swim","swim","1455","","EE2","1","","","","arctic-engagement","","","","","","","","","","","","","","2","emo-engage","",""
"html-button-response","89","2003847","0.0-7.0-2.0-5.0-0.14","1eede0d45f265579097b1aaa40af2706a91dd5734e27c7c96d2a8e1d80da0e96","swim","swim","1440","","E8","0","","","","arctic-engagement","","","","","","","","","","","","","","1","enjoyment","",""
"html-button-response","90","2005914","0.0-7.0-2.0-5.0-0.15","1eede0d45f265579097b1aaa40af2706a91dd5734e27c7c96d2a8e1d80da0e96","swim","swim","1815","","MS1","5","","","","arctic-engagement","","","","","","","","","","","","","","6","mental-sim","",""
"html-button-response","91","2007980","0.0-7.0-2.0-5.0-0.16","1eede0d45f265579097b1aaa40af2706a91dd5734e27c7c96d2a8e1d80da0e96","swim","swim","1815","","EE1","3","","","","arctic-engagement","","","","","","","","","","","","","","4","emo-engage","",""
"html-button-response","92","2010420","0.0-7.0-2.0-5.0-0.17","1eede0d45f265579097b1aaa40af2706a91dd5734e27c7c96d2a8e1d80da0e96","swim","swim","2187","","E10","3","","","","arctic-engagement","","","","","","","","","","","","","","4","enjoyment","",""
"html-button-response","93","2011621","0.0-8.0","1eede0d45f265579097b1aaa40af2706a91dd5734e27c7c96d2a8e1d80da0e96","swim","swim","949","","<p>Thank you for your responses.</p><p>You will now answer some demographic, hearing, and general health questions.</p>","0","","","","","","","","","","","","","","","","","","","","",""
"survey-multi-choice","94","2014312","0.0-9.0-0.0","1eede0d45f265579097b1aaa40af2706a91dd5734e27c7c96d2a8e1d80da0e96","swim","swim","2688","","","","","","","survey","","","","","","","","","","","","","{""Q0"":""Chrome""}","","","browser",""
"survey-text","95","2015941","0.0-9.0-1.0","1eede0d45f265579097b1aaa40af2706a91dd5734e27c7c96d2a8e1d80da0e96","swim","swim","1369.8999999761581","","","","","","","survey","","","","","","","","","","","","","{""AGE"":""36""}","","","age","36"
"survey-multi-choice","96","2018537","0.0-9.0-2.0","1eede0d45f265579097b1aaa40af2706a91dd5734e27c7c96d2a8e1d80da0e96","swim","swim","2340","","","","","","","survey","","","","","","","","","","","","","{""Q0"":""Female""}","","","gender","Female"
"survey-multi-choice","97","2020259","0.0-9.0-4.0","1eede0d45f265579097b1aaa40af2706a91dd5734e27c7c96d2a8e1d80da0e96","swim","swim","1470","","","","","","","survey","","","","","","","","","","","","","{""Q0"":""Right""}","","","handedness","Right"
"survey-multi-choice","98","2022973","0.0-9.0-5.0","1eede0d45f265579097b1aaa40af2706a91dd5734e27c7c96d2a8e1d80da0e96","swim","swim","2460","","","","","","","survey","","","","","","","","","","","","","{""Q0"":""Bachelor's Degree""}","","","education","Bachelor's Degree"
"survey-text","99","2030131","0.0-10.0-0.0","1eede0d45f265579097b1aaa40af2706a91dd5734e27c7c96d2a8e1d80da0e96","swim","swim","6901.899999976158","","","","","","","survey","","","","","","","","","","","","","{""L1"":""english""}","","","first-language","english"
"survey-text","100","2039785","0.0-10.0-1.0","1eede0d45f265579097b1aaa40af2706a91dd5734e27c7c96d2a8e1d80da0e96","swim","swim","9383.5","","","","","","","survey","","","","","","","","","","","","","{""L2name"":""Korean"",""L2fluency"":""2"",""L3name"":""Spanish"",""L3fluency"":""5"",""L4name"":"""",""L4fluency"":""""}","","","additional-languages","{""L2name"":""Korean"",""L2fluency"":""2"",""L3name"":""Spanish"",""L3fluency"":""5"",""L4name"":"""",""L4fluency"":""""}"
"survey-multi-choice","101","2041626","0.0-10.0-2.0","1eede0d45f265579097b1aaa40af2706a91dd5734e27c7c96d2a8e1d80da0e96","swim","swim","1583","","","","","","","survey","","","","","","","","","","","","","{""Q0"":""No""}","","","hearing-aid","No"
"survey-multi-choice","102","2043520","0.0-10.0-3.0","1eede0d45f265579097b1aaa40af2706a91dd5734e27c7c96d2a8e1d80da0e96","swim","swim","1641","","","","","","","survey","","","","","","","","","","","","","{""Q0"":""Never""}","","","ringing-ears","Never"
"survey-multi-choice","103","2045586","0.0-10.0-5.0","1eede0d45f265579097b1aaa40af2706a91dd5734e27c7c96d2a8e1d80da0e96","swim","swim","1814","","","","","","","survey","","","","","","","","","","","","","{""Q0"":""No""}","","","neuro-disease","No"
"survey-multi-choice","104","2047597","0.0-10.0-7.0","1eede0d45f265579097b1aaa40af2706a91dd5734e27c7c96d2a8e1d80da0e96","swim","swim","1759","","","","","","","survey","","","","","","","","","","","","","{""Q0"":""No""}","","","take-meds","No"
"survey-text","105","2049924","0.0-10.0-9.0","1eede0d45f265579097b1aaa40af2706a91dd5734e27c7c96d2a8e1d80da0e96","swim","swim","2067.600000023842","","","","","","","survey","","","","","","","","","","","","","{""HC"":""None""}","","","health-concerns","None"
"html-button-response","106","2053406","0.0-11.0-0.0","1eede0d45f265579097b1aaa40af2706a91dd5734e27c7c96d2a8e1d80da0e96","swim","swim","3229","","<p>How would you describe your musical skills/experiences?</p>","0","","","","survey","","","","","","","","","","","","","","","","music-skill","1"
"survey-multi-choice","107","2055385","0.0-11.0-1.0","1eede0d45f265579097b1aaa40af2706a91dd5734e27c7c96d2a8e1d80da0e96","swim","swim","1726","","","","","","","survey","","","","","","","","","","","","","{""Q0"":""No""}","","","music-instrument","No"
"html-button-response","108","2057118","0.0-12.0-0.0","1eede0d45f265579097b1aaa40af2706a91dd5734e27c7c96d2a8e1d80da0e96","swim","swim","1480","","<p>How would you describe your general hearing abilities?</p>","5","","","","survey","","","","","","","","","","","","","","","","ssq-01","6"
"html-button-response","109","2063394","0.0-12.0-1.0","1eede0d45f265579097b1aaa40af2706a91dd5734e27c7c96d2a8e1d80da0e96","swim","swim","6023","","<p>When you talk with someone at a place that strongly reverberates/echoes (e.g., in a church or train station),</br>can you understand what the person says?</p>","10","","","","survey","","","","","","","","","","","","","","","","ssq-02","10"
"html-button-response","110","2066029","0.0-12.0-2.0","1eede0d45f265579097b1aaa40af2706a91dd5734e27c7c96d2a8e1d80da0e96","swim","swim","2381","","<p>When you are with a group (~5 people) in a lively restaurant, can you follow the group's conversation?</p>","9","","","","survey","","","","","","","","","","","","","","","","ssq-03","9"
"html-button-response","111","2068975","0.0-12.0-3.0","1eede0d45f265579097b1aaa40af2706a91dd5734e27c7c96d2a8e1d80da0e96","swim","swim","2693","","<p>Based on the sound of a bus or truck, can you tell whether it is moving towards or away from you?</p>","5","","","","survey","","","","","","","","","","","","","","","","ssq-04","5"
"html-button-response","112","2072494","0.0-12.0-4.0","1eede0d45f265579097b1aaa40af2706a91dd5734e27c7c96d2a8e1d80da0e96","swim","swim","3267","","<p>When you are in an unknown environment, can you tell from which direction a brief sound originates?</p>","8","","","","survey","","","","","","","","","","","","","","","","ssq-05","8"
"html-button-response","113","2075644","0.0-12.0-5.0","1eede0d45f265579097b1aaa40af2706a91dd5734e27c7c96d2a8e1d80da0e96","swim","swim","2897","","<p>Are you able to ignore distracting sounds when you concentrate on a specific aspect of your acoustic surrounding?</p>","7","","","","survey","","","","","","","","","","","","","","","","ssq-06","7"
"fullscreen","114","2076896","0.0-13.0","1eede0d45f265579097b1aaa40af2706a91dd5734e27c7c96d2a8e1d80da0e96","swim","swim","","","","","","","","","true","","","","","","","","","","","","","","","",""
