"trial_type","trial_index","time_elapsed","internal_node_id","ParticipantID","firstStory","scramStory","rt","url","stimulus","button_pressed","key_press","correctRESP","correct","designation","success","letterStim","letterType","ONSET","TIMEOUT","CONDITION","Participant","ONSET_ACTUAL","RT","RESP","ACC","STORY","responses","response","type","surveyQuestion","QRESP"
"pavlovia","0","3","0.0-0.0","c3c36d49d8e190282b2107f10bae5d9053e9f92184fdd83cec6d22a8d150668c","arctic","arctic","","","","","","","","","","","","","","","","","","","","","","","","",""
"external-html","1","8996","0.0-1.0","c3c36d49d8e190282b2107f10bae5d9053e9f92184fdd83cec6d22a8d150668c","arctic","arctic","8858","consent/consent_updated.html","","","","","","","","","","","","","","","","","","","","","","",""
"html-button-response","2","53899","0.0-2.0-0.0","c3c36d49d8e190282b2107f10bae5d9053e9f92184fdd83cec6d22a8d150668c","arctic","arctic","44902","","<p>Before we begin the main task, you will complete a short volume calibration and headphone check.</p><p>Please make sure you are in a quiet listening environment, that you are wearing headphones, and that your computer's volume is turned on.<p></p>","0","","","","","","","","","","","","","","","","","","","","",""
"html-button-response","3","59066","0.0-2.0-1.0","c3c36d49d8e190282b2107f10bae5d9053e9f92184fdd83cec6d22a8d150668c","arctic","arctic","4904","","<p>The volume calibration will be first.</p><p>You will hear a thirty-second noise. Please adjust your computer's volume so that this noise is being presented at a comfortable level.<p></p>","0","","","","","","","","","","","","","","","","","","","","",""
"audio-button-response","4","67618","0.0-2.0-2.0","c3c36d49d8e190282b2107f10bae5d9053e9f92184fdd83cec6d22a8d150668c","arctic","arctic","8300","","audio/volumetest.mp3","0","","","","","","","","","","","","","","","","","","","","",""
"html-keyboard-response","5","77195","0.0-3.0-0.0","c3c36d49d8e190282b2107f10bae5d9053e9f92184fdd83cec6d22a8d150668c","arctic","arctic","9576","","<p>You will now complete a short headphone check.</p><p>On each trial, you will hear three tones. One of these tones will be quieter than the others. Your task is to identify whether the quiet tone occurred first, second, or third.</p><p>There are six trials in total.<p></p><p></p>(Press SPACEBAR to begin)","","32","","","","","","","","","","","","","","","","","","","",""
"html-keyboard-response","6","77959","0.0-3.0-1.0-0.0","c3c36d49d8e190282b2107f10bae5d9053e9f92184fdd83cec6d22a8d150668c","arctic","arctic","null","","<div style=""font-size:60px;"">+</div>","","null","","","","","","","","","","","","","","","","","","","",""
"audio-button-response","7","84506","0.0-3.0-1.0-1.0","c3c36d49d8e190282b2107f10bae5d9053e9f92184fdd83cec6d22a8d150668c","arctic","arctic","6546","","audio/t1_2.mp3","2","","0","0","headphone-test","","","","","","","","","","","","","","","","",""
"html-keyboard-response","8","85016","0.0-3.0-1.0-2.0","c3c36d49d8e190282b2107f10bae5d9053e9f92184fdd83cec6d22a8d150668c","arctic","arctic","null","","<p>Incorrect</p>","","null","","","","","","","","","","","","","","","","","","","",""
"html-keyboard-response","9","85516","0.0-3.0-1.0-0.1","c3c36d49d8e190282b2107f10bae5d9053e9f92184fdd83cec6d22a8d150668c","arctic","arctic","null","","<div style=""font-size:60px;"">+</div>","","null","","","","","","","","","","","","","","","","","","","",""
"audio-button-response","10","90034","0.0-3.0-1.0-1.1","c3c36d49d8e190282b2107f10bae5d9053e9f92184fdd83cec6d22a8d150668c","arctic","arctic","4517","","audio/t3_2.mp3","2","","2","1","headphone-test","","","","","","","","","","","","","","","","",""
"html-keyboard-response","11","90548","0.0-3.0-1.0-2.1","c3c36d49d8e190282b2107f10bae5d9053e9f92184fdd83cec6d22a8d150668c","arctic","arctic","null","","<p>Correct</p>","","null","","","","","","","","","","","","","","","","","","","",""
"html-keyboard-response","12","91053","0.0-3.0-1.0-0.2","c3c36d49d8e190282b2107f10bae5d9053e9f92184fdd83cec6d22a8d150668c","arctic","arctic","null","","<div style=""font-size:60px;"">+</div>","","null","","","","","","","","","","","","","","","","","","","",""
"audio-button-response","13","95082","0.0-3.0-1.0-1.2","c3c36d49d8e190282b2107f10bae5d9053e9f92184fdd83cec6d22a8d150668c","arctic","arctic","4028","","audio/t2_2.mp3","1","","1","1","headphone-test","","","","","","","","","","","","","","","","",""
"html-keyboard-response","14","95585","0.0-3.0-1.0-2.2","c3c36d49d8e190282b2107f10bae5d9053e9f92184fdd83cec6d22a8d150668c","arctic","arctic","null","","<p>Correct</p>","","null","","","","","","","","","","","","","","","","","","","",""
"html-keyboard-response","15","96102","0.0-3.0-1.0-0.3","c3c36d49d8e190282b2107f10bae5d9053e9f92184fdd83cec6d22a8d150668c","arctic","arctic","null","","<div style=""font-size:60px;"">+</div>","","null","","","","","","","","","","","","","","","","","","","",""
"audio-button-response","16","99962","0.0-3.0-1.0-1.3","c3c36d49d8e190282b2107f10bae5d9053e9f92184fdd83cec6d22a8d150668c","arctic","arctic","3860","","audio/t1_1.mp3","0","","0","1","headphone-test","","","","","","","","","","","","","","","","",""
"html-keyboard-response","17","100470","0.0-3.0-1.0-2.3","c3c36d49d8e190282b2107f10bae5d9053e9f92184fdd83cec6d22a8d150668c","arctic","arctic","null","","<p>Correct</p>","","null","","","","","","","","","","","","","","","","","","","",""
"html-keyboard-response","18","100972","0.0-3.0-1.0-0.4","c3c36d49d8e190282b2107f10bae5d9053e9f92184fdd83cec6d22a8d150668c","arctic","arctic","null","","<div style=""font-size:60px;"">+</div>","","null","","","","","","","","","","","","","","","","","","","",""
"audio-button-response","19","104970","0.0-3.0-1.0-1.4","c3c36d49d8e190282b2107f10bae5d9053e9f92184fdd83cec6d22a8d150668c","arctic","arctic","3997","","audio/t2_1.mp3","1","","1","1","headphone-test","","","","","","","","","","","","","","","","",""
"html-keyboard-response","20","105479","0.0-3.0-1.0-2.4","c3c36d49d8e190282b2107f10bae5d9053e9f92184fdd83cec6d22a8d150668c","arctic","arctic","null","","<p>Correct</p>","","null","","","","","","","","","","","","","","","","","","","",""
"html-keyboard-response","21","105979","0.0-3.0-1.0-0.5","c3c36d49d8e190282b2107f10bae5d9053e9f92184fdd83cec6d22a8d150668c","arctic","arctic","null","","<div style=""font-size:60px;"">+</div>","","null","","","","","","","","","","","","","","","","","","","",""
"audio-button-response","22","109762","0.0-3.0-1.0-1.5","c3c36d49d8e190282b2107f10bae5d9053e9f92184fdd83cec6d22a8d150668c","arctic","arctic","3782","","audio/t3_1.mp3","2","","2","1","headphone-test","","","","","","","","","","","","","","","","",""
"html-keyboard-response","23","110263","0.0-3.0-1.0-2.5","c3c36d49d8e190282b2107f10bae5d9053e9f92184fdd83cec6d22a8d150668c","arctic","arctic","null","","<p>Correct</p>","","null","","","","","","","","","","","","","","","","","","","",""
"fullscreen","24","113873","0.0-4.0","c3c36d49d8e190282b2107f10bae5d9053e9f92184fdd83cec6d22a8d150668c","arctic","arctic","","","","","","","","","true","","","","","","","","","","","","","","","",""
"html-button-response","25","126059","0.0-5.0-0.0","c3c36d49d8e190282b2107f10bae5d9053e9f92184fdd83cec6d22a8d150668c","arctic","arctic","12184","","<p>There are two blocks to this experiment.</p><p>In each block, you will hear a ~13.5 minute story. One of the stories will be scrambled. Please listen carefully to both stories and understand them as best you can.</p><p>After each story, you will be asked some questions to assess your comprehension.</p>","0","","","","","","","","","","","","","","","","","","","","",""
"html-button-response","26","139043","0.0-5.0-1.0","c3c36d49d8e190282b2107f10bae5d9053e9f92184fdd83cec6d22a8d150668c","arctic","arctic","12984","","<p>During each story, there will be an additional task.</p><p>A letter will occasionally appear on the screen.</br>Your job is to - as quickly as you can - decide whether the letter is lowercase or uppercase and press one of two keys on the keyboard:</p><p>If the letter is <b>lowercase</b>, press key &lt;<b>x</b>&gt;.</p><p>If the letter is <b>uppercase</b>, press key &lt;<b>m</b>&gt;.</p>","0","","","","","","","","","","","","","","","","","","","","",""
"html-keyboard-response","27","151154","0.0-5.0-2.0","c3c36d49d8e190282b2107f10bae5d9053e9f92184fdd83cec6d22a8d150668c","arctic","arctic","12111","","<p>Because we want your responses to be as quick as possible, please keep your index fingers over the keys while listening.</p><p>Each block lasts about 20 minutes.</p><p><b>Press &lt;x&gt; or &lt;m&gt; to start the first block!</b></p>","","88","","","","","","","","","","","","","","","","","","","",""
"html-keyboard-response","28","151657","0.0-6.0-0.0-0.0","c3c36d49d8e190282b2107f10bae5d9053e9f92184fdd83cec6d22a8d150668c","arctic","arctic","null","","<div style=""font-size:60px;"" tabindex=""0"">+</div>","","null","","","","","","","","","","","","","","","","","","","",""
"dual-task","null","null","null","","arctic","arctic","1093.3000000715256","","A","null","77","77","1","arctic-dual-task","","A","uppercase","10000","0","1","c3c36d49d8e190282b2107f10bae5d9053e9f92184fdd83cec6d22a8d150668c","10003.200000047684","1093.3000000715256","77","1","arctic","","","","",""
"dual-task","null","null","null","","arctic","arctic","543","","A","null","77","77","1","arctic-dual-task","","A","uppercase","24000","0","1","c3c36d49d8e190282b2107f10bae5d9053e9f92184fdd83cec6d22a8d150668c","24001.399999976158","543","77","1","arctic","","","","",""
"dual-task","null","null","null","","arctic","arctic","622.7000000476837","","d","null","88","88","1","arctic-dual-task","","d","lowercase","34000","0","1","c3c36d49d8e190282b2107f10bae5d9053e9f92184fdd83cec6d22a8d150668c","34001.799999952316","622.7000000476837","88","1","arctic","","","","",""
"dual-task","null","null","null","","arctic","arctic","682.2000000476837","","N","null","77","77","1","arctic-dual-task","","N","uppercase","44000","0","1","c3c36d49d8e190282b2107f10bae5d9053e9f92184fdd83cec6d22a8d150668c","44014.299999952316","682.2000000476837","77","1","arctic","","","","",""
"dual-task","null","null","null","","arctic","arctic","599.5","","n","null","88","88","1","arctic-dual-task","","n","lowercase","56000","0","1","c3c36d49d8e190282b2107f10bae5d9053e9f92184fdd83cec6d22a8d150668c","56009.299999952316","599.5","88","1","arctic","","","","",""
"dual-task","null","null","null","","arctic","arctic","564.1999999284744","","A","null","77","77","1","arctic-dual-task","","A","uppercase","64000","0","1","c3c36d49d8e190282b2107f10bae5d9053e9f92184fdd83cec6d22a8d150668c","64004.10000002384","564.1999999284744","77","1","arctic","","","","",""
"dual-task","null","null","null","","arctic","arctic","765","","t","null","88","88","1","arctic-dual-task","","t","lowercase","76000","0","1","c3c36d49d8e190282b2107f10bae5d9053e9f92184fdd83cec6d22a8d150668c","76003.20000004768","765","88","1","arctic","","","","",""
"dual-task","null","null","null","","arctic","arctic","593.8000000715256","","e","null","88","88","1","arctic-dual-task","","e","lowercase","86000","0","1","c3c36d49d8e190282b2107f10bae5d9053e9f92184fdd83cec6d22a8d150668c","86014.29999995232","593.8000000715256","88","1","arctic","","","","",""
"dual-task","null","null","null","","arctic","arctic","654.6999999284744","","N","null","77","77","1","arctic-dual-task","","N","uppercase","100000","0","1","c3c36d49d8e190282b2107f10bae5d9053e9f92184fdd83cec6d22a8d150668c","100009.39999997616","654.6999999284744","77","1","arctic","","","","",""
"dual-task","null","null","null","","arctic","arctic","588.8999999761581","","d","null","88","88","1","arctic-dual-task","","d","lowercase","110000","0","1","c3c36d49d8e190282b2107f10bae5d9053e9f92184fdd83cec6d22a8d150668c","110011.29999995232","588.8999999761581","88","1","arctic","","","","",""
"dual-task","null","null","null","","arctic","arctic","649.5999999046326","","D","null","77","77","1","arctic-dual-task","","D","uppercase","122000","0","1","c3c36d49d8e190282b2107f10bae5d9053e9f92184fdd83cec6d22a8d150668c","122006.60000002384","649.5999999046326","77","1","arctic","","","","",""
"dual-task","null","null","null","","arctic","arctic","621.1000000238419","","b","null","88","88","1","arctic-dual-task","","b","lowercase","128000","0","1","c3c36d49d8e190282b2107f10bae5d9053e9f92184fdd83cec6d22a8d150668c","128003","621.1000000238419","88","1","arctic","","","","",""
"dual-task","null","null","null","","arctic","arctic","657.6000000238419","","A","null","77","77","1","arctic-dual-task","","A","uppercase","140000","0","1","c3c36d49d8e190282b2107f10bae5d9053e9f92184fdd83cec6d22a8d150668c","140014.60000002384","657.6000000238419","77","1","arctic","","","","",""
"dual-task","null","null","null","","arctic","arctic","667.7000000476837","","q","null","88","88","1","arctic-dual-task","","q","lowercase","152000","0","1","c3c36d49d8e190282b2107f10bae5d9053e9f92184fdd83cec6d22a8d150668c","152012.5","667.7000000476837","88","1","arctic","","","","",""
"dual-task","null","null","null","","arctic","arctic","581.8000000715256","","E","null","77","77","1","arctic-dual-task","","E","uppercase","160000","0","1","c3c36d49d8e190282b2107f10bae5d9053e9f92184fdd83cec6d22a8d150668c","160010.20000004768","581.8000000715256","77","1","arctic","","","","",""
"dual-task","null","null","null","","arctic","arctic","768.1000000238419","","g","null","88","88","1","arctic-dual-task","","g","lowercase","172000","0","1","c3c36d49d8e190282b2107f10bae5d9053e9f92184fdd83cec6d22a8d150668c","172000.10000002384","768.1000000238419","88","1","arctic","","","","",""
"dual-task","null","null","null","","arctic","arctic","652.6000000238419","","r","null","88","88","1","arctic-dual-task","","r","lowercase","180000","0","1","c3c36d49d8e190282b2107f10bae5d9053e9f92184fdd83cec6d22a8d150668c","180011.39999997616","652.6000000238419","88","1","arctic","","","","",""
"dual-task","null","null","null","","arctic","arctic","793","","h","null","88","88","1","arctic-dual-task","","h","lowercase","188000","0","1","c3c36d49d8e190282b2107f10bae5d9053e9f92184fdd83cec6d22a8d150668c","188007","793","88","1","arctic","","","","",""
"dual-task","null","null","null","","arctic","arctic","614.3999999761581","","B","null","77","77","1","arctic-dual-task","","B","uppercase","196000","0","1","c3c36d49d8e190282b2107f10bae5d9053e9f92184fdd83cec6d22a8d150668c","196001.60000002384","614.3999999761581","77","1","arctic","","","","",""
"dual-task","null","null","null","","arctic","arctic","576.2000000476837","","B","null","77","77","1","arctic-dual-task","","B","uppercase","208000","0","1","c3c36d49d8e190282b2107f10bae5d9053e9f92184fdd83cec6d22a8d150668c","208007.79999995232","576.2000000476837","77","1","arctic","","","","",""
"dual-task","null","null","null","","arctic","arctic","656.8999999761581","","G","null","77","77","1","arctic-dual-task","","G","uppercase","218000","0","1","c3c36d49d8e190282b2107f10bae5d9053e9f92184fdd83cec6d22a8d150668c","218015.10000002384","656.8999999761581","77","1","arctic","","","","",""
"dual-task","null","null","null","","arctic","arctic","643.6999999284744","","g","null","88","88","1","arctic-dual-task","","g","lowercase","228000","0","1","c3c36d49d8e190282b2107f10bae5d9053e9f92184fdd83cec6d22a8d150668c","228012.10000002384","643.6999999284744","88","1","arctic","","","","",""
"dual-task","null","null","null","","arctic","arctic","653.8999999761581","","f","null","88","88","1","arctic-dual-task","","f","lowercase","242000","0","1","c3c36d49d8e190282b2107f10bae5d9053e9f92184fdd83cec6d22a8d150668c","242009.89999997616","653.8999999761581","88","1","arctic","","","","",""
"dual-task","null","null","null","","arctic","arctic","622.1999999284744","","r","null","88","88","1","arctic-dual-task","","r","lowercase","254000","0","1","c3c36d49d8e190282b2107f10bae5d9053e9f92184fdd83cec6d22a8d150668c","254009.60000002384","622.1999999284744","88","1","arctic","","","","",""
"dual-task","null","null","null","","arctic","arctic","556.1000000238419","","F","null","77","77","1","arctic-dual-task","","F","uppercase","260000","0","1","c3c36d49d8e190282b2107f10bae5d9053e9f92184fdd83cec6d22a8d150668c","260003.5","556.1000000238419","77","1","arctic","","","","",""
"dual-task","null","null","null","","arctic","arctic","639.5","","N","null","77","77","1","arctic-dual-task","","N","uppercase","270000","0","1","c3c36d49d8e190282b2107f10bae5d9053e9f92184fdd83cec6d22a8d150668c","270008.2999999523","639.5","77","1","arctic","","","","",""
"dual-task","null","null","null","","arctic","arctic","703.8000000715256","","H","null","77","77","1","arctic-dual-task","","H","uppercase","282000","0","1","c3c36d49d8e190282b2107f10bae5d9053e9f92184fdd83cec6d22a8d150668c","282007.89999997616","703.8000000715256","77","1","arctic","","","","",""
"dual-task","null","null","null","","arctic","arctic","563.3000000715256","","D","null","77","77","1","arctic-dual-task","","D","uppercase","290000","0","1","c3c36d49d8e190282b2107f10bae5d9053e9f92184fdd83cec6d22a8d150668c","290004.2999999523","563.3000000715256","77","1","arctic","","","","",""
"dual-task","null","null","null","","arctic","arctic","634","","F","null","77","77","1","arctic-dual-task","","F","uppercase","300000","0","1","c3c36d49d8e190282b2107f10bae5d9053e9f92184fdd83cec6d22a8d150668c","300005.60000002384","634","77","1","arctic","","","","",""
"dual-task","null","null","null","","arctic","arctic","679.5","","R","null","77","77","1","arctic-dual-task","","R","uppercase","312000","0","1","c3c36d49d8e190282b2107f10bae5d9053e9f92184fdd83cec6d22a8d150668c","312000.2000000477","679.5","77","1","arctic","","","","",""
"dual-task","null","null","null","","arctic","arctic","521.8000000715256","","e","null","88","88","1","arctic-dual-task","","e","lowercase","320000","0","1","c3c36d49d8e190282b2107f10bae5d9053e9f92184fdd83cec6d22a8d150668c","320005.7000000477","521.8000000715256","88","1","arctic","","","","",""
"dual-task","null","null","null","","arctic","arctic","594.8000000715256","","R","null","77","77","1","arctic-dual-task","","R","uppercase","332000","0","1","c3c36d49d8e190282b2107f10bae5d9053e9f92184fdd83cec6d22a8d150668c","332012.7000000477","594.8000000715256","77","1","arctic","","","","",""
"dual-task","null","null","null","","arctic","arctic","597.6999999284744","","H","null","77","77","1","arctic-dual-task","","H","uppercase","340000","0","1","c3c36d49d8e190282b2107f10bae5d9053e9f92184fdd83cec6d22a8d150668c","340001.7000000477","597.6999999284744","77","1","arctic","","","","",""
"dual-task","null","null","null","","arctic","arctic","699.2999999523163","","Q","null","77","77","1","arctic-dual-task","","Q","uppercase","352000","0","1","c3c36d49d8e190282b2107f10bae5d9053e9f92184fdd83cec6d22a8d150668c","352012.10000002384","699.2999999523163","77","1","arctic","","","","",""
"dual-task","null","null","null","","arctic","arctic","733.5","","g","null","88","88","1","arctic-dual-task","","g","lowercase","360000","0","1","c3c36d49d8e190282b2107f10bae5d9053e9f92184fdd83cec6d22a8d150668c","360001.89999997616","733.5","88","1","arctic","","","","",""
"dual-task","null","null","null","","arctic","arctic","665.5","","q","null","88","88","1","arctic-dual-task","","q","lowercase","368000","0","1","c3c36d49d8e190282b2107f10bae5d9053e9f92184fdd83cec6d22a8d150668c","368014","665.5","88","1","arctic","","","","",""
"dual-task","null","null","null","","arctic","arctic","610.1000000238419","","f","null","88","88","1","arctic-dual-task","","f","lowercase","382000","0","1","c3c36d49d8e190282b2107f10bae5d9053e9f92184fdd83cec6d22a8d150668c","382013.39999997616","610.1000000238419","88","1","arctic","","","","",""
"dual-task","null","null","null","","arctic","arctic","715","","t","null","88","88","1","arctic-dual-task","","t","lowercase","396000","0","1","c3c36d49d8e190282b2107f10bae5d9053e9f92184fdd83cec6d22a8d150668c","396012.60000002384","715","88","1","arctic","","","","",""
"dual-task","null","null","null","","arctic","arctic","760.7999999523163","","a","null","88","88","1","arctic-dual-task","","a","lowercase","406000","0","1","c3c36d49d8e190282b2107f10bae5d9053e9f92184fdd83cec6d22a8d150668c","406006.60000002384","760.7999999523163","88","1","arctic","","","","",""
"dual-task","null","null","null","","arctic","arctic","743.0999999046326","","g","null","88","88","1","arctic-dual-task","","g","lowercase","414000","0","1","c3c36d49d8e190282b2107f10bae5d9053e9f92184fdd83cec6d22a8d150668c","414000.2000000477","743.0999999046326","88","1","arctic","","","","",""
"dual-task","null","null","null","","arctic","arctic","691","","T","null","77","77","1","arctic-dual-task","","T","uppercase","422000","0","1","c3c36d49d8e190282b2107f10bae5d9053e9f92184fdd83cec6d22a8d150668c","422004.39999997616","691","77","1","arctic","","","","",""
"dual-task","null","null","null","","arctic","arctic","772","","G","null","77","77","1","arctic-dual-task","","G","uppercase","432000","0","1","c3c36d49d8e190282b2107f10bae5d9053e9f92184fdd83cec6d22a8d150668c","432011.2999999523","772","77","1","arctic","","","","",""
"dual-task","null","null","null","","arctic","arctic","611","","n","null","88","88","1","arctic-dual-task","","n","lowercase","440000","0","1","c3c36d49d8e190282b2107f10bae5d9053e9f92184fdd83cec6d22a8d150668c","440012.10000002384","611","88","1","arctic","","","","",""
"dual-task","null","null","null","","arctic","arctic","687.6999999284744","","h","null","88","88","1","arctic-dual-task","","h","lowercase","454000","0","1","c3c36d49d8e190282b2107f10bae5d9053e9f92184fdd83cec6d22a8d150668c","454015.60000002384","687.6999999284744","88","1","arctic","","","","",""
"dual-task","null","null","null","","arctic","arctic","651.5","","f","null","88","88","1","arctic-dual-task","","f","lowercase","462000","0","1","c3c36d49d8e190282b2107f10bae5d9053e9f92184fdd83cec6d22a8d150668c","462003.60000002384","651.5","88","1","arctic","","","","",""
"dual-task","null","null","null","","arctic","arctic","620.9000000953674","","H","null","77","77","1","arctic-dual-task","","H","uppercase","472000","0","1","c3c36d49d8e190282b2107f10bae5d9053e9f92184fdd83cec6d22a8d150668c","472002.2999999523","620.9000000953674","77","1","arctic","","","","",""
"dual-task","null","null","null","","arctic","arctic","695.3000000715256","","f","null","88","88","1","arctic-dual-task","","f","lowercase","480000","0","1","c3c36d49d8e190282b2107f10bae5d9053e9f92184fdd83cec6d22a8d150668c","480007.89999997616","695.3000000715256","88","1","arctic","","","","",""
"dual-task","null","null","null","","arctic","arctic","560.8000000715256","","F","null","77","77","1","arctic-dual-task","","F","uppercase","486000","0","1","c3c36d49d8e190282b2107f10bae5d9053e9f92184fdd83cec6d22a8d150668c","486014.39999997616","560.8000000715256","77","1","arctic","","","","",""
"dual-task","null","null","null","","arctic","arctic","633.9000000953674","","Q","null","77","77","1","arctic-dual-task","","Q","uppercase","496000","0","1","c3c36d49d8e190282b2107f10bae5d9053e9f92184fdd83cec6d22a8d150668c","496013.2999999523","633.9000000953674","77","1","arctic","","","","",""
"dual-task","null","null","null","","arctic","arctic","640.6000000238419","","d","null","88","88","1","arctic-dual-task","","d","lowercase","508000","0","1","c3c36d49d8e190282b2107f10bae5d9053e9f92184fdd83cec6d22a8d150668c","508006.39999997616","640.6000000238419","88","1","arctic","","","","",""
"dual-task","null","null","null","","arctic","arctic","602.5","","E","null","77","77","1","arctic-dual-task","","E","uppercase","514000","0","1","c3c36d49d8e190282b2107f10bae5d9053e9f92184fdd83cec6d22a8d150668c","514004.39999997616","602.5","77","1","arctic","","","","",""
"dual-task","null","null","null","","arctic","arctic","575.7000000476837","","b","null","88","88","1","arctic-dual-task","","b","lowercase","520000","0","1","c3c36d49d8e190282b2107f10bae5d9053e9f92184fdd83cec6d22a8d150668c","520007.39999997616","575.7000000476837","88","1","arctic","","","","",""
"dual-task","null","null","null","","arctic","arctic","875","","t","null","88","88","1","arctic-dual-task","","t","lowercase","530000","0","1","c3c36d49d8e190282b2107f10bae5d9053e9f92184fdd83cec6d22a8d150668c","530012.1000000238","875","88","1","arctic","","","","",""
"dual-task","null","null","null","","arctic","arctic","NA","","q","null","NA","88","0","arctic-dual-task","","q","lowercase","542000","1","1","c3c36d49d8e190282b2107f10bae5d9053e9f92184fdd83cec6d22a8d150668c","542004.2999999523","NA","NA","0","arctic","","","","",""
"dual-task","null","null","null","","arctic","arctic","618.7000000476837","","G","null","77","77","1","arctic-dual-task","","G","uppercase","554000","0","1","c3c36d49d8e190282b2107f10bae5d9053e9f92184fdd83cec6d22a8d150668c","554004.2999999523","618.7000000476837","77","1","arctic","","","","",""
"dual-task","null","null","null","","arctic","arctic","528.3999999761581","","Q","null","77","77","1","arctic-dual-task","","Q","uppercase","562000","0","1","c3c36d49d8e190282b2107f10bae5d9053e9f92184fdd83cec6d22a8d150668c","562006.2999999523","528.3999999761581","77","1","arctic","","","","",""
"dual-task","null","null","null","","arctic","arctic","584.8999999761581","","N","null","77","77","1","arctic-dual-task","","N","uppercase","570000","0","1","c3c36d49d8e190282b2107f10bae5d9053e9f92184fdd83cec6d22a8d150668c","570014","584.8999999761581","77","1","arctic","","","","",""
"dual-task","null","null","null","","arctic","arctic","632.2999999523163","","e","null","88","88","1","arctic-dual-task","","e","lowercase","578000","0","1","c3c36d49d8e190282b2107f10bae5d9053e9f92184fdd83cec6d22a8d150668c","578006.5","632.2999999523163","88","1","arctic","","","","",""
"dual-task","null","null","null","","arctic","arctic","639.6000000238419","","d","null","88","88","1","arctic-dual-task","","d","lowercase","586000","0","1","c3c36d49d8e190282b2107f10bae5d9053e9f92184fdd83cec6d22a8d150668c","586007.3999999762","639.6000000238419","88","1","arctic","","","","",""
"dual-task","null","null","null","","arctic","arctic","589.7999999523163","","r","null","88","88","1","arctic-dual-task","","r","lowercase","594000","0","1","c3c36d49d8e190282b2107f10bae5d9053e9f92184fdd83cec6d22a8d150668c","594009","589.7999999523163","88","1","arctic","","","","",""
"dual-task","null","null","null","","arctic","arctic","633.3999999761581","","e","null","88","88","1","arctic-dual-task","","e","lowercase","608000","0","1","c3c36d49d8e190282b2107f10bae5d9053e9f92184fdd83cec6d22a8d150668c","608005.2999999523","633.3999999761581","88","1","arctic","","","","",""
"dual-task","null","null","null","","arctic","arctic","587.2000000476837","","T","null","77","77","1","arctic-dual-task","","T","uppercase","618000","0","1","c3c36d49d8e190282b2107f10bae5d9053e9f92184fdd83cec6d22a8d150668c","618003.5","587.2000000476837","77","1","arctic","","","","",""
"dual-task","null","null","null","","arctic","arctic","572.2999999523163","","a","null","88","88","1","arctic-dual-task","","a","lowercase","626000","0","1","c3c36d49d8e190282b2107f10bae5d9053e9f92184fdd83cec6d22a8d150668c","626010.5","572.2999999523163","88","1","arctic","","","","",""
"dual-task","null","null","null","","arctic","arctic","810.2999999523163","","t","null","88","88","1","arctic-dual-task","","t","lowercase","638000","0","1","c3c36d49d8e190282b2107f10bae5d9053e9f92184fdd83cec6d22a8d150668c","638012.3999999762","810.2999999523163","88","1","arctic","","","","",""
"dual-task","null","null","null","","arctic","arctic","637.2000000476837","","D","null","77","77","1","arctic-dual-task","","D","uppercase","646000","0","1","c3c36d49d8e190282b2107f10bae5d9053e9f92184fdd83cec6d22a8d150668c","646001.5","637.2000000476837","77","1","arctic","","","","",""
"dual-task","null","null","null","","arctic","arctic","621.5","","h","null","88","88","1","arctic-dual-task","","h","lowercase","658000","0","1","c3c36d49d8e190282b2107f10bae5d9053e9f92184fdd83cec6d22a8d150668c","658009.2999999523","621.5","88","1","arctic","","","","",""
"dual-task","null","null","null","","arctic","arctic","560.8000000715256","","E","null","77","77","1","arctic-dual-task","","E","uppercase","670000","0","1","c3c36d49d8e190282b2107f10bae5d9053e9f92184fdd83cec6d22a8d150668c","670013.7000000477","560.8000000715256","77","1","arctic","","","","",""
"dual-task","null","null","null","","arctic","arctic","623.1999999284744","","H","null","77","77","1","arctic-dual-task","","H","uppercase","680000","0","1","c3c36d49d8e190282b2107f10bae5d9053e9f92184fdd83cec6d22a8d150668c","680007.5","623.1999999284744","77","1","arctic","","","","",""
"dual-task","null","null","null","","arctic","arctic","551.5","","a","null","88","88","1","arctic-dual-task","","a","lowercase","688000","0","1","c3c36d49d8e190282b2107f10bae5d9053e9f92184fdd83cec6d22a8d150668c","688015.1000000238","551.5","88","1","arctic","","","","",""
"dual-task","null","null","null","","arctic","arctic","622.3000000715256","","r","null","88","88","1","arctic-dual-task","","r","lowercase","702000","0","1","c3c36d49d8e190282b2107f10bae5d9053e9f92184fdd83cec6d22a8d150668c","702008.2000000477","622.3000000715256","88","1","arctic","","","","",""
"dual-task","null","null","null","","arctic","arctic","608.3999999761581","","n","null","88","88","1","arctic-dual-task","","n","lowercase","716000","0","1","c3c36d49d8e190282b2107f10bae5d9053e9f92184fdd83cec6d22a8d150668c","716014","608.3999999761581","88","1","arctic","","","","",""
"dual-task","null","null","null","","arctic","arctic","671.6999999284744","","B","null","77","77","1","arctic-dual-task","","B","uppercase","724000","0","1","c3c36d49d8e190282b2107f10bae5d9053e9f92184fdd83cec6d22a8d150668c","724014.7000000477","671.6999999284744","77","1","arctic","","","","",""
"dual-task","null","null","null","","arctic","arctic","565.5","","n","null","88","88","1","arctic-dual-task","","n","lowercase","734000","0","1","c3c36d49d8e190282b2107f10bae5d9053e9f92184fdd83cec6d22a8d150668c","734008.8999999762","565.5","88","1","arctic","","","","",""
"dual-task","null","null","null","","arctic","arctic","521.6000000238419","","b","null","88","88","1","arctic-dual-task","","b","lowercase","744000","0","1","c3c36d49d8e190282b2107f10bae5d9053e9f92184fdd83cec6d22a8d150668c","744004.7999999523","521.6000000238419","88","1","arctic","","","","",""
"dual-task","null","null","null","","arctic","arctic","530","","h","null","88","88","1","arctic-dual-task","","h","lowercase","754000","0","1","c3c36d49d8e190282b2107f10bae5d9053e9f92184fdd83cec6d22a8d150668c","754004.3999999762","530","88","1","arctic","","","","",""
"dual-task","null","null","null","","arctic","arctic","648.5999999046326","","Q","null","77","77","1","arctic-dual-task","","Q","uppercase","766000","0","1","c3c36d49d8e190282b2107f10bae5d9053e9f92184fdd83cec6d22a8d150668c","766006.2000000477","648.5999999046326","77","1","arctic","","","","",""
"dual-task","null","null","null","","arctic","arctic","547.1999999284744","","b","null","88","88","1","arctic-dual-task","","b","lowercase","778000","0","1","c3c36d49d8e190282b2107f10bae5d9053e9f92184fdd83cec6d22a8d150668c","778011.1000000238","547.1999999284744","88","1","arctic","","","","",""
"dual-task","null","null","null","","arctic","arctic","566.5","","G","null","77","77","1","arctic-dual-task","","G","uppercase","788000","0","1","c3c36d49d8e190282b2107f10bae5d9053e9f92184fdd83cec6d22a8d150668c","788007.8999999762","566.5","77","1","arctic","","","","",""
"audio-keyboard-response","29","949668","0.0-6.0-0.0-1.0","c3c36d49d8e190282b2107f10bae5d9053e9f92184fdd83cec6d22a8d150668c","arctic","arctic","null","","audio/story_arctic_scrambled.mp3","","null","","","","","","","","","","","","","","","","","","","",""
"html-button-response","30","953040","0.0-6.0-0.0-2.0","c3c36d49d8e190282b2107f10bae5d9053e9f92184fdd83cec6d22a8d150668c","arctic","arctic","3372","","<p>This concludes the story. Thank you for listening.</p><p>You will now answer some questions about the content of the story.</p>","0","","","","","","","","","","","","","","","","","","","","",""
"survey-multi-choice","31","962680","0.0-6.0-0.0-3.0-0.0","c3c36d49d8e190282b2107f10bae5d9053e9f92184fdd83cec6d22a8d150668c","arctic","arctic","9638","","<b>Which dog on the narrator&#39;s dog team never followed instructions?</b>","","","","0","arctic-comprehension","","","","","","","","","","","","","{""Q0"":""Douggie-dog""}","","","",""
"survey-multi-choice","32","968824","0.0-6.0-0.0-3.0-0.1","c3c36d49d8e190282b2107f10bae5d9053e9f92184fdd83cec6d22a8d150668c","arctic","arctic","5881","","<b>What is the name of the narrator&#39;s neighbour?</b>","","","","1","arctic-comprehension","","","","","","","","","","","","","{""Q0"":""Dave""}","","","",""
"survey-multi-choice","33","978536","0.0-6.0-0.0-3.0-0.2","c3c36d49d8e190282b2107f10bae5d9053e9f92184fdd83cec6d22a8d150668c","arctic","arctic","9460","","<b>How many sponsorships did the narrator receive to support her expedition?</b>","","","","1","arctic-comprehension","","","","","","","","","","","","","{""Q0"":""None""}","","","",""
"survey-multi-choice","34","989080","0.0-6.0-0.0-3.0-0.3","c3c36d49d8e190282b2107f10bae5d9053e9f92184fdd83cec6d22a8d150668c","arctic","arctic","10283","","<b>How did the narrator prepare for her expedition?</b>","","","","1","arctic-comprehension","","","","","","","","","","","","","{""Q0"":""Trained in Alaska learning how to dogsled""}","","","",""
"survey-multi-choice","35","994368","0.0-6.0-0.0-3.0-0.4","c3c36d49d8e190282b2107f10bae5d9053e9f92184fdd83cec6d22a8d150668c","arctic","arctic","5036","","<b>How did the dogs respond when they saw the bears?</b>","","","","1","arctic-comprehension","","","","","","","","","","","","","{""Q0"":""Approached them""}","","","",""
"survey-multi-choice","36","1001096","0.0-6.0-0.0-3.0-0.5","c3c36d49d8e190282b2107f10bae5d9053e9f92184fdd83cec6d22a8d150668c","arctic","arctic","6475","","<b>What was the objective of the narrator&#39;s expedition?</b>","","","","1","arctic-comprehension","","","","","","","","","","","","","{""Q0"":""Dogsled across Arctic America""}","","","",""
"survey-multi-choice","37","1007504","0.0-6.0-0.0-3.0-0.6","c3c36d49d8e190282b2107f10bae5d9053e9f92184fdd83cec6d22a8d150668c","arctic","arctic","6155","","<b>What did the narrator do for leisure while in her tent?</b>","","","","1","arctic-comprehension","","","","","","","","","","","","","{""Q0"":""Read""}","","","",""
"survey-multi-choice","38","1022433","0.0-6.0-0.0-3.0-0.7","c3c36d49d8e190282b2107f10bae5d9053e9f92184fdd83cec6d22a8d150668c","arctic","arctic","14676","","<b>How did the narrator&#39;s encounter with the polar bears end?</b>","","","","1","arctic-comprehension","","","","","","","","","","","","","{""Q0"":""The bears walked back to their den.""}","","","",""
"survey-multi-choice","39","1033472","0.0-6.0-0.0-3.0-0.8","c3c36d49d8e190282b2107f10bae5d9053e9f92184fdd83cec6d22a8d150668c","arctic","arctic","10787","","<b>How did the narrator&#39;s neighbour respond when she told him about her expedition?</b>","","","","1","arctic-comprehension","","","","","","","","","","","","","{""Q0"":""He said she was going to fail.""}","","","",""
"survey-multi-choice","40","1047664","0.0-6.0-0.0-3.0-0.9","c3c36d49d8e190282b2107f10bae5d9053e9f92184fdd83cec6d22a8d150668c","arctic","arctic","13939","","<b>What were the weather conditions in the Arctic like the winter of the narrator&#39;s expedition?</b>","","","","0","arctic-comprehension","","","","","","","","","","","","","{""Q0"":""It was the coldest winter in recorded history.""}","","","",""
"html-button-response","41","1050344","0.0-6.0-0.0-4.0","c3c36d49d8e190282b2107f10bae5d9053e9f92184fdd83cec6d22a8d150668c","arctic","arctic","2428","","<p>Thank you for your responses.</p><p>You will now answer some questions about your impressions of the story.</p>","0","","","","","","","","","","","","","","","","","","","","",""
"html-button-response","42","1053800","0.0-6.0-0.0-5.0-0.0","c3c36d49d8e190282b2107f10bae5d9053e9f92184fdd83cec6d22a8d150668c","arctic","arctic","3455","","E10","1","","","","arctic-engagement","","","","","","","","","","","","","","2","enjoyment","",""
"html-button-response","43","1056065","0.0-6.0-0.0-5.0-0.1","c3c36d49d8e190282b2107f10bae5d9053e9f92184fdd83cec6d22a8d150668c","arctic","arctic","2012","","E6","4","","","","arctic-engagement","","","","","","","","","","","","","","5","enjoyment","",""
"html-button-response","44","1058096","0.0-6.0-0.0-5.0-0.2","c3c36d49d8e190282b2107f10bae5d9053e9f92184fdd83cec6d22a8d150668c","arctic","arctic","1781","","E1","4","","","","arctic-engagement","","","","","","","","","","","","","","5","enjoyment","",""
"html-button-response","45","1062505","0.0-6.0-0.0-5.0-0.3","c3c36d49d8e190282b2107f10bae5d9053e9f92184fdd83cec6d22a8d150668c","arctic","arctic","4157","","A2","5","","","","arctic-engagement","","","","","","","","","","","","","","6","absorption","",""
"html-button-response","46","1064528","0.0-6.0-0.0-5.0-0.4","c3c36d49d8e190282b2107f10bae5d9053e9f92184fdd83cec6d22a8d150668c","arctic","arctic","1772","","EE3","3","","","","arctic-engagement","","","","","","","","","","","","","","4","emo-engage","",""
"html-button-response","47","1067816","0.0-6.0-0.0-5.0-0.5","c3c36d49d8e190282b2107f10bae5d9053e9f92184fdd83cec6d22a8d150668c","arctic","arctic","3036","","A1","2","","","","arctic-engagement","","","","","","","","","","","","","","3","absorption","",""
"html-button-response","48","1072440","0.0-6.0-0.0-5.0-0.6","c3c36d49d8e190282b2107f10bae5d9053e9f92184fdd83cec6d22a8d150668c","arctic","arctic","4373","","A4","4","","","","arctic-engagement","","","","","","","","","","","","","","5","absorption","",""
"html-button-response","49","1076256","0.0-6.0-0.0-5.0-0.7","c3c36d49d8e190282b2107f10bae5d9053e9f92184fdd83cec6d22a8d150668c","arctic","arctic","3564","","A3","4","","","","arctic-engagement","","","","","","","","","","","","","","5","absorption","",""
"html-button-response","50","1080088","0.0-6.0-0.0-5.0-0.8","c3c36d49d8e190282b2107f10bae5d9053e9f92184fdd83cec6d22a8d150668c","arctic","arctic","3580","","EE1","2","","","","arctic-engagement","","","","","","","","","","","","","","3","emo-engage","",""
"html-button-response","51","1084209","0.0-6.0-0.0-5.0-0.9","c3c36d49d8e190282b2107f10bae5d9053e9f92184fdd83cec6d22a8d150668c","arctic","arctic","3868","","A5","3","","","","arctic-engagement","","","","","","","","","","","","","","4","absorption","",""
"html-button-response","52","1087520","0.0-6.0-0.0-5.0-0.10","c3c36d49d8e190282b2107f10bae5d9053e9f92184fdd83cec6d22a8d150668c","arctic","arctic","3060","","EE2","5","","","","arctic-engagement","","","","","","","","","","","","","","6","emo-engage","",""
"html-button-response","53","1089608","0.0-6.0-0.0-5.0-0.11","c3c36d49d8e190282b2107f10bae5d9053e9f92184fdd83cec6d22a8d150668c","arctic","arctic","1837","","E7","5","","","","arctic-engagement","","","","","","","","","","","","","","6","enjoyment","",""
"html-button-response","54","1092928","0.0-6.0-0.0-5.0-0.12","c3c36d49d8e190282b2107f10bae5d9053e9f92184fdd83cec6d22a8d150668c","arctic","arctic","3066","","E8","3","","","","arctic-engagement","","","","","","","","","","","","","","4","enjoyment","",""
"html-button-response","55","1100480","0.0-6.0-0.0-5.0-0.13","c3c36d49d8e190282b2107f10bae5d9053e9f92184fdd83cec6d22a8d150668c","arctic","arctic","7301","","MS1","4","","","","arctic-engagement","","","","","","","","","","","","","","5","mental-sim","",""
"html-button-response","56","1103392","0.0-6.0-0.0-5.0-0.14","c3c36d49d8e190282b2107f10bae5d9053e9f92184fdd83cec6d22a8d150668c","arctic","arctic","2661","","MS3","5","","","","arctic-engagement","","","","","","","","","","","","","","6","mental-sim","",""
"html-button-response","57","1107320","0.0-6.0-0.0-5.0-0.15","c3c36d49d8e190282b2107f10bae5d9053e9f92184fdd83cec6d22a8d150668c","arctic","arctic","3677","","EE5","4","","","","arctic-engagement","","","","","","","","","","","","","","5","emo-engage","",""
"html-button-response","58","1111505","0.0-6.0-0.0-5.0-0.16","c3c36d49d8e190282b2107f10bae5d9053e9f92184fdd83cec6d22a8d150668c","arctic","arctic","3932","","MS2","4","","","","arctic-engagement","","","","","","","","","","","","","","5","mental-sim","",""
"html-button-response","59","1116176","0.0-6.0-0.0-5.0-0.17","c3c36d49d8e190282b2107f10bae5d9053e9f92184fdd83cec6d22a8d150668c","arctic","arctic","4420","","EE4","2","","","","arctic-engagement","","","","","","","","","","","","","","3","emo-engage","",""
"html-keyboard-response","60","1131824","0.0-6.0-1.0","c3c36d49d8e190282b2107f10bae5d9053e9f92184fdd83cec6d22a8d150668c","arctic","arctic","15386","","<p>Thank you for your responses. You will now listen to the second story.</p><p>Remember, as you listen to the story you will see letters appear on the screen.</br>As quickly as possible, press <b>&lt;x&gt;</b> if the letter is lowercase and <b>&lt;m&gt;</b> if the letter is uppercase.</p><p>Press <b>&lt;x&gt;</b> or <b>&lt;m&gt;</b> to begin listening!</p>","","88","","","","","","","","","","","","","","","","","","","",""
"html-keyboard-response","61","1132325","0.0-6.0-2.0-0.0","c3c36d49d8e190282b2107f10bae5d9053e9f92184fdd83cec6d22a8d150668c","arctic","arctic","null","","<div style=""font-size:60px;"" tabindex=""0"">+</div>","","null","","","","","","","","","","","","","","","","","","","",""
"dual-task","null","null","null","","arctic","arctic","783.8999999761581","","T","null","77","77","1","swim-dual-task","","T","uppercase","10000","0","1","c3c36d49d8e190282b2107f10bae5d9053e9f92184fdd83cec6d22a8d150668c","10001.799999952316","783.8999999761581","77","1","swim","","","","",""
"dual-task","null","null","null","","arctic","arctic","617.3000000715256","","G","null","77","77","1","swim-dual-task","","G","uppercase","18000","0","1","c3c36d49d8e190282b2107f10bae5d9053e9f92184fdd83cec6d22a8d150668c","18000.199999928474","617.3000000715256","77","1","swim","","","","",""
"dual-task","null","null","null","","arctic","arctic","593.5","","F","null","77","77","1","swim-dual-task","","F","uppercase","28000","0","1","c3c36d49d8e190282b2107f10bae5d9053e9f92184fdd83cec6d22a8d150668c","28008.199999928474","593.5","77","1","swim","","","","",""
"dual-task","null","null","null","","arctic","arctic","646.8999999761581","","h","null","88","88","1","swim-dual-task","","h","lowercase","40000","0","1","c3c36d49d8e190282b2107f10bae5d9053e9f92184fdd83cec6d22a8d150668c","40011","646.8999999761581","88","1","swim","","","","",""
"dual-task","null","null","null","","arctic","arctic","639.2000000476837","","A","null","77","77","1","swim-dual-task","","A","uppercase","54000","0","1","c3c36d49d8e190282b2107f10bae5d9053e9f92184fdd83cec6d22a8d150668c","54010.299999952316","639.2000000476837","77","1","swim","","","","",""
"dual-task","null","null","null","","arctic","arctic","575.5","","D","null","77","77","1","swim-dual-task","","D","uppercase","62000","0","1","c3c36d49d8e190282b2107f10bae5d9053e9f92184fdd83cec6d22a8d150668c","62002","575.5","77","1","swim","","","","",""
"dual-task","null","null","null","","arctic","arctic","592.8000000715256","","q","null","88","88","1","swim-dual-task","","q","lowercase","72000","0","1","c3c36d49d8e190282b2107f10bae5d9053e9f92184fdd83cec6d22a8d150668c","72000.60000002384","592.8000000715256","88","1","swim","","","","",""
"dual-task","null","null","null","","arctic","arctic","629.2000000476837","","T","null","77","77","1","swim-dual-task","","T","uppercase","82000","0","1","c3c36d49d8e190282b2107f10bae5d9053e9f92184fdd83cec6d22a8d150668c","82004.39999997616","629.2000000476837","77","1","swim","","","","",""
"dual-task","null","null","null","","arctic","arctic","548.3000000715256","","G","null","77","77","1","swim-dual-task","","G","uppercase","94000","0","1","c3c36d49d8e190282b2107f10bae5d9053e9f92184fdd83cec6d22a8d150668c","94004.5","548.3000000715256","77","1","swim","","","","",""
"dual-task","null","null","null","","arctic","arctic","534.2000000476837","","t","null","88","88","1","swim-dual-task","","t","lowercase","108000","0","1","c3c36d49d8e190282b2107f10bae5d9053e9f92184fdd83cec6d22a8d150668c","108011.19999992847","534.2000000476837","88","1","swim","","","","",""
"dual-task","null","null","null","","arctic","arctic","662.5","","h","null","88","88","1","swim-dual-task","","h","lowercase","116000","0","1","c3c36d49d8e190282b2107f10bae5d9053e9f92184fdd83cec6d22a8d150668c","116010.69999992847","662.5","88","1","swim","","","","",""
"dual-task","null","null","null","","arctic","arctic","593","","A","null","77","77","1","swim-dual-task","","A","uppercase","124000","0","1","c3c36d49d8e190282b2107f10bae5d9053e9f92184fdd83cec6d22a8d150668c","124015.5","593","77","1","swim","","","","",""
"dual-task","null","null","null","","arctic","arctic","560.2999999523163","","b","null","88","88","1","swim-dual-task","","b","lowercase","136000","0","1","c3c36d49d8e190282b2107f10bae5d9053e9f92184fdd83cec6d22a8d150668c","136000.89999997616","560.2999999523163","88","1","swim","","","","",""
"dual-task","null","null","null","","arctic","arctic","478.2000000476837","","a","null","88","88","1","swim-dual-task","","a","lowercase","150000","0","1","c3c36d49d8e190282b2107f10bae5d9053e9f92184fdd83cec6d22a8d150668c","150011.19999992847","478.2000000476837","88","1","swim","","","","",""
"dual-task","null","null","null","","arctic","arctic","653.6999999284744","","g","null","88","88","1","swim-dual-task","","g","lowercase","162000","0","1","c3c36d49d8e190282b2107f10bae5d9053e9f92184fdd83cec6d22a8d150668c","162011.5","653.6999999284744","88","1","swim","","","","",""
"dual-task","null","null","null","","arctic","arctic","606.5999999046326","","Q","null","77","77","1","swim-dual-task","","Q","uppercase","174000","0","1","c3c36d49d8e190282b2107f10bae5d9053e9f92184fdd83cec6d22a8d150668c","174002.5","606.5999999046326","77","1","swim","","","","",""
"dual-task","null","null","null","","arctic","arctic","582.7000000476837","","E","null","77","77","1","swim-dual-task","","E","uppercase","184000","0","1","c3c36d49d8e190282b2107f10bae5d9053e9f92184fdd83cec6d22a8d150668c","184010.29999995232","582.7000000476837","77","1","swim","","","","",""
"dual-task","null","null","null","","arctic","arctic","610.0999999046326","","d","null","88","88","1","swim-dual-task","","d","lowercase","196000","0","1","c3c36d49d8e190282b2107f10bae5d9053e9f92184fdd83cec6d22a8d150668c","196006.39999997616","610.0999999046326","88","1","swim","","","","",""
"dual-task","null","null","null","","arctic","arctic","569.8999999761581","","n","null","88","88","1","swim-dual-task","","n","lowercase","210000","0","1","c3c36d49d8e190282b2107f10bae5d9053e9f92184fdd83cec6d22a8d150668c","210007.60000002384","569.8999999761581","88","1","swim","","","","",""
"dual-task","null","null","null","","arctic","arctic","641.7999999523163","","E","null","77","77","1","swim-dual-task","","E","uppercase","220000","0","1","c3c36d49d8e190282b2107f10bae5d9053e9f92184fdd83cec6d22a8d150668c","220007.39999997616","641.7999999523163","77","1","swim","","","","",""
"dual-task","null","null","null","","arctic","arctic","653.9000000953674","","e","null","88","88","1","swim-dual-task","","e","lowercase","230000","0","1","c3c36d49d8e190282b2107f10bae5d9053e9f92184fdd83cec6d22a8d150668c","230011.19999992847","653.9000000953674","88","1","swim","","","","",""
"dual-task","null","null","null","","arctic","arctic","599.3999999761581","","f","null","88","88","1","swim-dual-task","","f","lowercase","238000","0","1","c3c36d49d8e190282b2107f10bae5d9053e9f92184fdd83cec6d22a8d150668c","238001.5","599.3999999761581","88","1","swim","","","","",""
"dual-task","null","null","null","","arctic","arctic","585.8999999761581","","b","null","88","88","1","swim-dual-task","","b","lowercase","246000","0","1","c3c36d49d8e190282b2107f10bae5d9053e9f92184fdd83cec6d22a8d150668c","246007.29999995232","585.8999999761581","88","1","swim","","","","",""
"dual-task","null","null","null","","arctic","arctic","699.2000000476837","","Q","null","77","77","1","swim-dual-task","","Q","uppercase","258000","0","1","c3c36d49d8e190282b2107f10bae5d9053e9f92184fdd83cec6d22a8d150668c","258004.79999995232","699.2000000476837","77","1","swim","","","","",""
"dual-task","null","null","null","","arctic","arctic","577.5","","E","null","77","77","1","swim-dual-task","","E","uppercase","268000","0","1","c3c36d49d8e190282b2107f10bae5d9053e9f92184fdd83cec6d22a8d150668c","268014.7999999523","577.5","77","1","swim","","","","",""
"dual-task","null","null","null","","arctic","arctic","549.1000000238419","","b","null","88","88","1","swim-dual-task","","b","lowercase","282000","0","1","c3c36d49d8e190282b2107f10bae5d9053e9f92184fdd83cec6d22a8d150668c","282004","549.1000000238419","88","1","swim","","","","",""
"dual-task","null","null","null","","arctic","arctic","667.5","","H","null","77","77","1","swim-dual-task","","H","uppercase","288000","0","1","c3c36d49d8e190282b2107f10bae5d9053e9f92184fdd83cec6d22a8d150668c","288013.1999999285","667.5","77","1","swim","","","","",""
"dual-task","null","null","null","","arctic","arctic","631","","G","null","77","77","1","swim-dual-task","","G","uppercase","302000","0","1","c3c36d49d8e190282b2107f10bae5d9053e9f92184fdd83cec6d22a8d150668c","302009.89999997616","631","77","1","swim","","","","",""
"dual-task","null","null","null","","arctic","arctic","631.0999999046326","","T","null","77","77","1","swim-dual-task","","T","uppercase","312000","0","1","c3c36d49d8e190282b2107f10bae5d9053e9f92184fdd83cec6d22a8d150668c","312001.5","631.0999999046326","77","1","swim","","","","",""
"dual-task","null","null","null","","arctic","arctic","649.5","","e","null","88","88","1","swim-dual-task","","e","lowercase","322000","0","1","c3c36d49d8e190282b2107f10bae5d9053e9f92184fdd83cec6d22a8d150668c","322007.2999999523","649.5","88","1","swim","","","","",""
"dual-task","null","null","null","","arctic","arctic","571.8999999761581","","B","null","77","77","1","swim-dual-task","","B","uppercase","330000","0","1","c3c36d49d8e190282b2107f10bae5d9053e9f92184fdd83cec6d22a8d150668c","330004.7999999523","571.8999999761581","77","1","swim","","","","",""
"dual-task","null","null","null","","arctic","arctic","588.6999999284744","","Q","null","77","77","1","swim-dual-task","","Q","uppercase","340000","0","1","c3c36d49d8e190282b2107f10bae5d9053e9f92184fdd83cec6d22a8d150668c","340004","588.6999999284744","77","1","swim","","","","",""
"dual-task","null","null","null","","arctic","arctic","565","","F","null","77","77","1","swim-dual-task","","F","uppercase","350000","0","1","c3c36d49d8e190282b2107f10bae5d9053e9f92184fdd83cec6d22a8d150668c","350011.6999999285","565","77","1","swim","","","","",""
"dual-task","null","null","null","","arctic","arctic","715","","q","null","88","88","1","swim-dual-task","","q","lowercase","362000","0","1","c3c36d49d8e190282b2107f10bae5d9053e9f92184fdd83cec6d22a8d150668c","362013.6999999285","715","88","1","swim","","","","",""
"dual-task","null","null","null","","arctic","arctic","609.1000000238419","","d","null","88","88","1","swim-dual-task","","d","lowercase","372000","0","1","c3c36d49d8e190282b2107f10bae5d9053e9f92184fdd83cec6d22a8d150668c","372007.5","609.1000000238419","88","1","swim","","","","",""
"dual-task","null","null","null","","arctic","arctic","755.1999999284744","","a","null","88","88","1","swim-dual-task","","a","lowercase","380000","0","1","c3c36d49d8e190282b2107f10bae5d9053e9f92184fdd83cec6d22a8d150668c","380013.60000002384","755.1999999284744","88","1","swim","","","","",""
"dual-task","null","null","null","","arctic","arctic","544.8000000715256","","R","null","77","77","1","swim-dual-task","","R","uppercase","390000","0","1","c3c36d49d8e190282b2107f10bae5d9053e9f92184fdd83cec6d22a8d150668c","390007.6999999285","544.8000000715256","77","1","swim","","","","",""
"dual-task","null","null","null","","arctic","arctic","602.3000000715256","","H","null","77","77","1","swim-dual-task","","H","uppercase","396000","0","1","c3c36d49d8e190282b2107f10bae5d9053e9f92184fdd83cec6d22a8d150668c","396014.1999999285","602.3000000715256","77","1","swim","","","","",""
"dual-task","null","null","null","","arctic","arctic","570.8999999761581","","N","null","77","77","1","swim-dual-task","","N","uppercase","406000","0","1","c3c36d49d8e190282b2107f10bae5d9053e9f92184fdd83cec6d22a8d150668c","406005.39999997616","570.8999999761581","77","1","swim","","","","",""
"dual-task","null","null","null","","arctic","arctic","667","","n","null","88","88","1","swim-dual-task","","n","lowercase","416000","0","1","c3c36d49d8e190282b2107f10bae5d9053e9f92184fdd83cec6d22a8d150668c","416013.60000002384","667","88","1","swim","","","","",""
"dual-task","null","null","null","","arctic","arctic","930.7000000476837","","d","null","88","88","1","swim-dual-task","","d","lowercase","422000","0","1","c3c36d49d8e190282b2107f10bae5d9053e9f92184fdd83cec6d22a8d150668c","422013.60000002384","930.7000000476837","88","1","swim","","","","",""
"dual-task","null","null","null","","arctic","arctic","750.2000000476837","","N","null","77","77","1","swim-dual-task","","N","uppercase","428000","0","1","c3c36d49d8e190282b2107f10bae5d9053e9f92184fdd83cec6d22a8d150668c","428002.39999997616","750.2000000476837","77","1","swim","","","","",""
"dual-task","null","null","null","","arctic","arctic","589","","f","null","88","88","1","swim-dual-task","","f","lowercase","438000","0","1","c3c36d49d8e190282b2107f10bae5d9053e9f92184fdd83cec6d22a8d150668c","438011.39999997616","589","88","1","swim","","","","",""
"dual-task","null","null","null","","arctic","arctic","592.8000000715256","","F","null","77","77","1","swim-dual-task","","F","uppercase","444000","0","1","c3c36d49d8e190282b2107f10bae5d9053e9f92184fdd83cec6d22a8d150668c","444007.6999999285","592.8000000715256","77","1","swim","","","","",""
"dual-task","null","null","null","","arctic","arctic","593.5","","n","null","88","88","1","swim-dual-task","","n","lowercase","452000","0","1","c3c36d49d8e190282b2107f10bae5d9053e9f92184fdd83cec6d22a8d150668c","452006.7999999523","593.5","88","1","swim","","","","",""
"dual-task","null","null","null","","arctic","arctic","585.8999999761581","","A","null","77","77","1","swim-dual-task","","A","uppercase","460000","0","1","c3c36d49d8e190282b2107f10bae5d9053e9f92184fdd83cec6d22a8d150668c","460006.39999997616","585.8999999761581","77","1","swim","","","","",""
"dual-task","null","null","null","","arctic","arctic","612.8999999761581","","D","null","77","77","1","swim-dual-task","","D","uppercase","474000","0","1","c3c36d49d8e190282b2107f10bae5d9053e9f92184fdd83cec6d22a8d150668c","474003.39999997616","612.8999999761581","77","1","swim","","","","",""
"dual-task","null","null","null","","arctic","arctic","630.8999999761581","","H","null","77","77","1","swim-dual-task","","H","uppercase","486000","0","1","c3c36d49d8e190282b2107f10bae5d9053e9f92184fdd83cec6d22a8d150668c","486001.39999997616","630.8999999761581","77","1","swim","","","","",""
"dual-task","null","null","null","","arctic","arctic","992.6999999284744","","e","null","88","88","1","swim-dual-task","","e","lowercase","494000","0","1","c3c36d49d8e190282b2107f10bae5d9053e9f92184fdd83cec6d22a8d150668c","494007.5","992.6999999284744","88","1","swim","","","","",""
"dual-task","null","null","null","","arctic","arctic","565.6000000238419","","Q","null","77","77","1","swim-dual-task","","Q","uppercase","508000","0","1","c3c36d49d8e190282b2107f10bae5d9053e9f92184fdd83cec6d22a8d150668c","508010.60000002384","565.6000000238419","77","1","swim","","","","",""
"dual-task","null","null","null","","arctic","arctic","594.3999999761581","","B","null","77","77","1","swim-dual-task","","B","uppercase","522000","0","1","c3c36d49d8e190282b2107f10bae5d9053e9f92184fdd83cec6d22a8d150668c","522005.6999999285","594.3999999761581","77","1","swim","","","","",""
"dual-task","null","null","null","","arctic","arctic","607.1000000238419","","G","null","77","77","1","swim-dual-task","","G","uppercase","532000","0","1","c3c36d49d8e190282b2107f10bae5d9053e9f92184fdd83cec6d22a8d150668c","532001.2999999523","607.1000000238419","77","1","swim","","","","",""
"dual-task","null","null","null","","arctic","arctic","564.2999999523163","","q","null","88","88","1","swim-dual-task","","q","lowercase","544000","0","1","c3c36d49d8e190282b2107f10bae5d9053e9f92184fdd83cec6d22a8d150668c","544003.6999999285","564.2999999523163","88","1","swim","","","","",""
"dual-task","null","null","null","","arctic","arctic","593.1000000238419","","r","null","88","88","1","swim-dual-task","","r","lowercase","558000","0","1","c3c36d49d8e190282b2107f10bae5d9053e9f92184fdd83cec6d22a8d150668c","558007","593.1000000238419","88","1","swim","","","","",""
"dual-task","null","null","null","","arctic","arctic","614","","R","null","77","77","1","swim-dual-task","","R","uppercase","564000","0","1","c3c36d49d8e190282b2107f10bae5d9053e9f92184fdd83cec6d22a8d150668c","564002","614","77","1","swim","","","","",""
"dual-task","null","null","null","","arctic","arctic","1094.6999999284744","","r","null","88","88","1","swim-dual-task","","r","lowercase","574000","0","1","c3c36d49d8e190282b2107f10bae5d9053e9f92184fdd83cec6d22a8d150668c","574009.3999999762","1094.6999999284744","88","1","swim","","","","",""
"dual-task","null","null","null","","arctic","arctic","747.5","","h","null","88","88","1","swim-dual-task","","h","lowercase","582000","0","1","c3c36d49d8e190282b2107f10bae5d9053e9f92184fdd83cec6d22a8d150668c","582004.5","747.5","88","1","swim","","","","",""
"dual-task","null","null","null","","arctic","arctic","568.8000000715256","","g","null","88","88","1","swim-dual-task","","g","lowercase","592000","0","1","c3c36d49d8e190282b2107f10bae5d9053e9f92184fdd83cec6d22a8d150668c","592007","568.8000000715256","88","1","swim","","","","",""
"dual-task","null","null","null","","arctic","arctic","572.8999999761581","","A","null","77","77","1","swim-dual-task","","A","uppercase","606000","0","1","c3c36d49d8e190282b2107f10bae5d9053e9f92184fdd83cec6d22a8d150668c","606003","572.8999999761581","77","1","swim","","","","",""
"dual-task","null","null","null","","arctic","arctic","552.8999999761581","","e","null","88","88","1","swim-dual-task","","e","lowercase","612000","0","1","c3c36d49d8e190282b2107f10bae5d9053e9f92184fdd83cec6d22a8d150668c","612007","552.8999999761581","88","1","swim","","","","",""
"dual-task","null","null","null","","arctic","arctic","577.8999999761581","","E","null","77","77","1","swim-dual-task","","E","uppercase","620000","0","1","c3c36d49d8e190282b2107f10bae5d9053e9f92184fdd83cec6d22a8d150668c","620006","577.8999999761581","77","1","swim","","","","",""
"dual-task","null","null","null","","arctic","arctic","571.7000000476837","","t","null","88","88","1","swim-dual-task","","t","lowercase","628000","0","1","c3c36d49d8e190282b2107f10bae5d9053e9f92184fdd83cec6d22a8d150668c","628004.1999999285","571.7000000476837","88","1","swim","","","","",""
"dual-task","null","null","null","","arctic","arctic","618.6000000238419","","b","null","88","88","1","swim-dual-task","","b","lowercase","636000","0","1","c3c36d49d8e190282b2107f10bae5d9053e9f92184fdd83cec6d22a8d150668c","636012.2999999523","618.6000000238419","88","1","swim","","","","",""
"dual-task","null","null","null","","arctic","arctic","594.6999999284744","","d","null","88","88","1","swim-dual-task","","d","lowercase","646000","0","1","c3c36d49d8e190282b2107f10bae5d9053e9f92184fdd83cec6d22a8d150668c","646013.1000000238","594.6999999284744","88","1","swim","","","","",""
"dual-task","null","null","null","","arctic","arctic","550.2999999523163","","T","null","77","77","1","swim-dual-task","","T","uppercase","656000","0","1","c3c36d49d8e190282b2107f10bae5d9053e9f92184fdd83cec6d22a8d150668c","656009.6000000238","550.2999999523163","77","1","swim","","","","",""
"dual-task","null","null","null","","arctic","arctic","668.0999999046326","","N","null","77","77","1","swim-dual-task","","N","uppercase","664000","0","1","c3c36d49d8e190282b2107f10bae5d9053e9f92184fdd83cec6d22a8d150668c","664011.6000000238","668.0999999046326","77","1","swim","","","","",""
"dual-task","null","null","null","","arctic","arctic","551.2000000476837","","g","null","88","88","1","swim-dual-task","","g","lowercase","676000","0","1","c3c36d49d8e190282b2107f10bae5d9053e9f92184fdd83cec6d22a8d150668c","676016.5","551.2000000476837","88","1","swim","","","","",""
"dual-task","null","null","null","","arctic","arctic","702.1000000238419","","r","null","88","88","1","swim-dual-task","","r","lowercase","688000","0","1","c3c36d49d8e190282b2107f10bae5d9053e9f92184fdd83cec6d22a8d150668c","688009.6000000238","702.1000000238419","88","1","swim","","","","",""
"dual-task","null","null","null","","arctic","arctic","836.5","","q","null","88","88","1","swim-dual-task","","q","lowercase","694000","0","1","c3c36d49d8e190282b2107f10bae5d9053e9f92184fdd83cec6d22a8d150668c","694011.2999999523","836.5","88","1","swim","","","","",""
"dual-task","null","null","null","","arctic","arctic","664.7999999523163","","n","null","88","88","1","swim-dual-task","","n","lowercase","704000","0","1","c3c36d49d8e190282b2107f10bae5d9053e9f92184fdd83cec6d22a8d150668c","704006.8999999762","664.7999999523163","88","1","swim","","","","",""
"dual-task","null","null","null","","arctic","arctic","591.1000000238419","","D","null","77","77","1","swim-dual-task","","D","uppercase","712000","0","1","c3c36d49d8e190282b2107f10bae5d9053e9f92184fdd83cec6d22a8d150668c","712008.2999999523","591.1000000238419","77","1","swim","","","","",""
"dual-task","null","null","null","","arctic","arctic","611.1999999284744","","f","null","88","88","1","swim-dual-task","","f","lowercase","722000","0","1","c3c36d49d8e190282b2107f10bae5d9053e9f92184fdd83cec6d22a8d150668c","722012.5","611.1999999284744","88","1","swim","","","","",""
"dual-task","null","null","null","","arctic","arctic","567.5","","a","null","88","88","1","swim-dual-task","","a","lowercase","734000","0","1","c3c36d49d8e190282b2107f10bae5d9053e9f92184fdd83cec6d22a8d150668c","734016.2999999523","567.5","88","1","swim","","","","",""
"dual-task","null","null","null","","arctic","arctic","800.8999999761581","","t","null","88","88","1","swim-dual-task","","t","lowercase","746000","0","1","c3c36d49d8e190282b2107f10bae5d9053e9f92184fdd83cec6d22a8d150668c","746006.6999999285","800.8999999761581","88","1","swim","","","","",""
"dual-task","null","null","null","","arctic","arctic","549.2000000476837","","t","null","88","88","1","swim-dual-task","","t","lowercase","760000","0","1","c3c36d49d8e190282b2107f10bae5d9053e9f92184fdd83cec6d22a8d150668c","760002.2999999523","549.2000000476837","88","1","swim","","","","",""
"dual-task","null","null","null","","arctic","arctic","560.5","","R","null","77","77","1","swim-dual-task","","R","uppercase","766000","0","1","c3c36d49d8e190282b2107f10bae5d9053e9f92184fdd83cec6d22a8d150668c","766007","560.5","77","1","swim","","","","",""
"dual-task","null","null","null","","arctic","arctic","552.2000000476837","","D","null","77","77","1","swim-dual-task","","D","uppercase","778000","0","1","c3c36d49d8e190282b2107f10bae5d9053e9f92184fdd83cec6d22a8d150668c","778007.1999999285","552.2000000476837","77","1","swim","","","","",""
"dual-task","null","null","null","","arctic","arctic","657.3000000715256","","H","null","77","77","1","swim-dual-task","","H","uppercase","788000","0","1","c3c36d49d8e190282b2107f10bae5d9053e9f92184fdd83cec6d22a8d150668c","788006.1000000238","657.3000000715256","77","1","swim","","","","",""
"dual-task","null","null","null","","arctic","arctic","522.3999999761581","","B","null","77","77","1","swim-dual-task","","B","uppercase","794000","0","1","c3c36d49d8e190282b2107f10bae5d9053e9f92184fdd83cec6d22a8d150668c","794005","522.3999999761581","77","1","swim","","","","",""
"audio-keyboard-response","62","1942367","0.0-6.0-2.0-1.0","c3c36d49d8e190282b2107f10bae5d9053e9f92184fdd83cec6d22a8d150668c","arctic","arctic","null","","audio/story_swim.mp3","","null","","","","","","","","","","","","","","","","","","","",""
"html-button-response","63","1946661","0.0-6.0-2.0-2.0","c3c36d49d8e190282b2107f10bae5d9053e9f92184fdd83cec6d22a8d150668c","arctic","arctic","4292","","<p>This concludes the story. Thank you for listening.</p><p>You will now answer some questions about the content of the story.</p>","0","","","","","","","","","","","","","","","","","","","","",""
"survey-multi-choice","64","1950869","0.0-6.0-2.0-3.0-0.0","c3c36d49d8e190282b2107f10bae5d9053e9f92184fdd83cec6d22a8d150668c","arctic","arctic","4205","","<b>How many astronaut candidates reported for duty at the Johnson Space Center?</b>","","","","1","swim-comprehension","","","","","","","","","","","","","{""Q0"":""Forty-four""}","","","",""
"survey-multi-choice","65","1958557","0.0-6.0-2.0-3.0-0.1","c3c36d49d8e190282b2107f10bae5d9053e9f92184fdd83cec6d22a8d150668c","arctic","arctic","7433","","<b>How many times did the astronaut candidates have to complete the final exercise to pass?</b>","","","","1","swim-comprehension","","","","","","","","","","","","","{""Q0"":""Two""}","","","",""
"survey-multi-choice","66","1963678","0.0-6.0-2.0-3.0-0.2","c3c36d49d8e190282b2107f10bae5d9053e9f92184fdd83cec6d22a8d150668c","arctic","arctic","4866","","<b>How many astronaut candidates passed the first swim test?</b>","","","","1","swim-comprehension","","","","","","","","","","","","","{""Q0"":""All of them""}","","","",""
"survey-multi-choice","67","1976733","0.0-6.0-2.0-3.0-0.3","c3c36d49d8e190282b2107f10bae5d9053e9f92184fdd83cec6d22a8d150668c","arctic","arctic","12791","","<b>What was the final step of the first swim test in the pool?</b>","","","","1","swim-comprehension","","","","","","","","","","","","","{""Q0"":""Tread water with hands above the water""}","","","",""
"survey-multi-choice","68","1984637","0.0-6.0-2.0-3.0-0.4","c3c36d49d8e190282b2107f10bae5d9053e9f92184fdd83cec6d22a8d150668c","arctic","arctic","7652","","<b>Where is the home of naval aviation?</b>","","","","1","swim-comprehension","","","","","","","","","","","","","{""Q0"":""Pensacola""}","","","",""
"survey-multi-choice","69","1991197","0.0-6.0-2.0-3.0-0.5","c3c36d49d8e190282b2107f10bae5d9053e9f92184fdd83cec6d22a8d150668c","arctic","arctic","6308","","<b>How often does the narrator swim, now that he is a good swimmer?</b>","","","","1","swim-comprehension","","","","","","","","","","","","","{""Q0"":""Never swam again in his life""}","","","",""
"survey-multi-choice","70","1996237","0.0-6.0-2.0-3.0-0.6","c3c36d49d8e190282b2107f10bae5d9053e9f92184fdd83cec6d22a8d150668c","arctic","arctic","4788","","<b>How did the narrator train for his swim test?</b>","","","","1","swim-comprehension","","","","","","","","","","","","","{""Q0"":""Took his kids to the pool every day""}","","","",""
"survey-multi-choice","71","2005525","0.0-6.0-2.0-3.0-0.7","c3c36d49d8e190282b2107f10bae5d9053e9f92184fdd83cec6d22a8d150668c","arctic","arctic","9036","","<b>What were the astronaut candidates trained to do at the naval air station?</b>","","","","1","swim-comprehension","","","","","","","","","","","","","{""Q0"":""Eject out of aircraft and survive in water long enough to be rescued""}","","","",""
"survey-multi-choice","72","2009181","0.0-6.0-2.0-3.0-0.8","c3c36d49d8e190282b2107f10bae5d9053e9f92184fdd83cec6d22a8d150668c","arctic","arctic","3403","","<b>What is the narrator afraid of, aside from the water?</b>","","","","1","swim-comprehension","","","","","","","","","","","","","{""Q0"":""Heights""}","","","",""
"survey-multi-choice","73","2015213","0.0-6.0-2.0-3.0-0.9","c3c36d49d8e190282b2107f10bae5d9053e9f92184fdd83cec6d22a8d150668c","arctic","arctic","5779","","<b>What gave the narrator his greatest feeling of accomplishment?</b>","","","","1","swim-comprehension","","","","","","","","","","","","","{""Q0"":""Passing the water survival course""}","","","",""
"html-button-response","74","2017157","0.0-6.0-2.0-4.0","c3c36d49d8e190282b2107f10bae5d9053e9f92184fdd83cec6d22a8d150668c","arctic","arctic","1692","","<p>Thank you for your responses.</p><p>You will now answer some questions about your impressions of the story.</p>","0","","","","","","","","","","","","","","","","","","","","",""
"html-button-response","75","2018950","0.0-6.0-2.0-5.0-0.0","c3c36d49d8e190282b2107f10bae5d9053e9f92184fdd83cec6d22a8d150668c","arctic","arctic","1791","","EE3","5","","","","swim-engagement","","","","","","","","","","","","","","6","emo-engage","",""
"html-button-response","76","2021606","0.0-6.0-2.0-5.0-0.1","c3c36d49d8e190282b2107f10bae5d9053e9f92184fdd83cec6d22a8d150668c","arctic","arctic","2405","","A3","5","","","","swim-engagement","","","","","","","","","","","","","","6","absorption","",""
"html-button-response","77","2023133","0.0-6.0-2.0-5.0-0.2","c3c36d49d8e190282b2107f10bae5d9053e9f92184fdd83cec6d22a8d150668c","arctic","arctic","1275","","E6","5","","","","swim-engagement","","","","","","","","","","","","","","6","enjoyment","",""
"html-button-response","78","2025461","0.0-6.0-2.0-5.0-0.3","c3c36d49d8e190282b2107f10bae5d9053e9f92184fdd83cec6d22a8d150668c","arctic","arctic","2076","","E10","5","","","","swim-engagement","","","","","","","","","","","","","","6","enjoyment","",""
"html-button-response","79","2028957","0.0-6.0-2.0-5.0-0.4","c3c36d49d8e190282b2107f10bae5d9053e9f92184fdd83cec6d22a8d150668c","arctic","arctic","3244","","A4","6","","","","swim-engagement","","","","","","","","","","","","","","7","absorption","",""
"html-button-response","80","2031037","0.0-6.0-2.0-5.0-0.5","c3c36d49d8e190282b2107f10bae5d9053e9f92184fdd83cec6d22a8d150668c","arctic","arctic","1828","","EE5","5","","","","swim-engagement","","","","","","","","","","","","","","6","emo-engage","",""
"html-button-response","81","2035069","0.0-6.0-2.0-5.0-0.6","c3c36d49d8e190282b2107f10bae5d9053e9f92184fdd83cec6d22a8d150668c","arctic","arctic","3779","","A2","5","","","","swim-engagement","","","","","","","","","","","","","","6","absorption","",""
"html-button-response","82","2038141","0.0-6.0-2.0-5.0-0.7","c3c36d49d8e190282b2107f10bae5d9053e9f92184fdd83cec6d22a8d150668c","arctic","arctic","2820","","E1","4","","","","swim-engagement","","","","","","","","","","","","","","5","enjoyment","",""
"html-button-response","83","2039982","0.0-6.0-2.0-5.0-0.8","c3c36d49d8e190282b2107f10bae5d9053e9f92184fdd83cec6d22a8d150668c","arctic","arctic","1588","","E7","5","","","","swim-engagement","","","","","","","","","","","","","","6","enjoyment","",""
"html-button-response","84","2043302","0.0-6.0-2.0-5.0-0.9","c3c36d49d8e190282b2107f10bae5d9053e9f92184fdd83cec6d22a8d150668c","arctic","arctic","3067","","EE2","4","","","","swim-engagement","","","","","","","","","","","","","","5","emo-engage","",""
"html-button-response","85","2046541","0.0-6.0-2.0-5.0-0.10","c3c36d49d8e190282b2107f10bae5d9053e9f92184fdd83cec6d22a8d150668c","arctic","arctic","2987","","A1","2","","","","swim-engagement","","","","","","","","","","","","","","3","absorption","",""
"html-button-response","86","2051189","0.0-6.0-2.0-5.0-0.11","c3c36d49d8e190282b2107f10bae5d9053e9f92184fdd83cec6d22a8d150668c","arctic","arctic","4396","","MS3","6","","","","swim-engagement","","","","","","","","","","","","","","7","mental-sim","",""
"html-button-response","87","2057413","0.0-6.0-2.0-5.0-0.12","c3c36d49d8e190282b2107f10bae5d9053e9f92184fdd83cec6d22a8d150668c","arctic","arctic","5972","","E8","3","","","","swim-engagement","","","","","","","","","","","","","","4","enjoyment","",""
"html-button-response","88","2059709","0.0-6.0-2.0-5.0-0.13","c3c36d49d8e190282b2107f10bae5d9053e9f92184fdd83cec6d22a8d150668c","arctic","arctic","2044","","EE4","5","","","","swim-engagement","","","","","","","","","","","","","","6","emo-engage","",""
"html-button-response","89","2062741","0.0-6.0-2.0-5.0-0.14","c3c36d49d8e190282b2107f10bae5d9053e9f92184fdd83cec6d22a8d150668c","arctic","arctic","2780","","A5","4","","","","swim-engagement","","","","","","","","","","","","","","5","absorption","",""
"html-button-response","90","2067494","0.0-6.0-2.0-5.0-0.15","c3c36d49d8e190282b2107f10bae5d9053e9f92184fdd83cec6d22a8d150668c","arctic","arctic","4499","","MS1","5","","","","swim-engagement","","","","","","","","","","","","","","6","mental-sim","",""
"html-button-response","91","2072101","0.0-6.0-2.0-5.0-0.16","c3c36d49d8e190282b2107f10bae5d9053e9f92184fdd83cec6d22a8d150668c","arctic","arctic","4356","","EE1","5","","","","swim-engagement","","","","","","","","","","","","","","6","emo-engage","",""
"html-button-response","92","2075437","0.0-6.0-2.0-5.0-0.17","c3c36d49d8e190282b2107f10bae5d9053e9f92184fdd83cec6d22a8d150668c","arctic","arctic","3084","","MS2","6","","","","swim-engagement","","","","","","","","","","","","","","7","mental-sim","",""
"html-button-response","93","2078581","0.0-8.0","c3c36d49d8e190282b2107f10bae5d9053e9f92184fdd83cec6d22a8d150668c","arctic","arctic","2892","","<p>Thank you for your responses.</p><p>You will now answer some demographic, hearing, and general health questions.</p>","0","","","","","","","","","","","","","","","","","","","","",""
"survey-multi-choice","94","2083045","0.0-9.0-0.0","c3c36d49d8e190282b2107f10bae5d9053e9f92184fdd83cec6d22a8d150668c","arctic","arctic","4460","","","","","","","survey","","","","","","","","","","","","","{""Q0"":""Chrome""}","","","browser",""
"survey-text","95","2086301","0.0-9.0-1.0","c3c36d49d8e190282b2107f10bae5d9053e9f92184fdd83cec6d22a8d150668c","arctic","arctic","3001.899999976158","","","","","","","survey","","","","","","","","","","","","","{""AGE"":""31""}","","","age","31"
"survey-multi-choice","96","2088197","0.0-9.0-2.0","c3c36d49d8e190282b2107f10bae5d9053e9f92184fdd83cec6d22a8d150668c","arctic","arctic","1641","","","","","","","survey","","","","","","","","","","","","","{""Q0"":""Male""}","","","gender","Male"
"survey-multi-choice","97","2091365","0.0-9.0-4.0","c3c36d49d8e190282b2107f10bae5d9053e9f92184fdd83cec6d22a8d150668c","arctic","arctic","2916","","","","","","","survey","","","","","","","","","","","","","{""Q0"":""Right""}","","","handedness","Right"
"survey-multi-choice","98","2094077","0.0-9.0-5.0","c3c36d49d8e190282b2107f10bae5d9053e9f92184fdd83cec6d22a8d150668c","arctic","arctic","2455","","","","","","","survey","","","","","","","","","","","","","{""Q0"":""High school""}","","","education","High school"
"survey-text","99","2099597","0.0-10.0-0.0","c3c36d49d8e190282b2107f10bae5d9053e9f92184fdd83cec6d22a8d150668c","arctic","arctic","5267.299999952316","","","","","","","survey","","","","","","","","","","","","","{""L1"":""English""}","","","first-language","English"
"survey-text","100","2130653","0.0-10.0-1.0","c3c36d49d8e190282b2107f10bae5d9053e9f92184fdd83cec6d22a8d150668c","arctic","arctic","30800.799999952316","","","","","","","survey","","","","","","","","","","","","","{""L2name"":""German"",""L2fluency"":""5"",""L3name"":""Japanese"",""L3fluency"":""6"",""L4name"":"""",""L4fluency"":""""}","","","additional-languages","{""L2name"":""German"",""L2fluency"":""5"",""L3name"":""Japanese"",""L3fluency"":""6"",""L4name"":"""",""L4fluency"":""""}"
"survey-multi-choice","101","2133445","0.0-10.0-2.0","c3c36d49d8e190282b2107f10bae5d9053e9f92184fdd83cec6d22a8d150668c","arctic","arctic","2540","","","","","","","survey","","","","","","","","","","","","","{""Q0"":""No""}","","","hearing-aid","No"
"survey-multi-choice","102","2136581","0.0-10.0-3.0","c3c36d49d8e190282b2107f10bae5d9053e9f92184fdd83cec6d22a8d150668c","arctic","arctic","2884","","","","","","","survey","","","","","","","","","","","","","{""Q0"":""Never""}","","","ringing-ears","Never"
"survey-multi-choice","103","2139277","0.0-10.0-5.0","c3c36d49d8e190282b2107f10bae5d9053e9f92184fdd83cec6d22a8d150668c","arctic","arctic","2443","","","","","","","survey","","","","","","","","","","","","","{""Q0"":""No""}","","","neuro-disease","No"
"survey-multi-choice","104","2141957","0.0-10.0-7.0","c3c36d49d8e190282b2107f10bae5d9053e9f92184fdd83cec6d22a8d150668c","arctic","arctic","2428","","","","","","","survey","","","","","","","","","","","","","{""Q0"":""No""}","","","take-meds","No"
"survey-text","105","2150837","0.0-10.0-9.0","c3c36d49d8e190282b2107f10bae5d9053e9f92184fdd83cec6d22a8d150668c","arctic","arctic","8618","","","","","","","survey","","","","","","","","","","","","","{""HC"":""N/A""}","","","health-concerns","N/A"
"html-button-response","106","2154885","0.0-11.0-0.0","c3c36d49d8e190282b2107f10bae5d9053e9f92184fdd83cec6d22a8d150668c","arctic","arctic","3796","","<p>How would you describe your musical skills/experiences?</p>","5","","","","survey","","","","","","","","","","","","","","","","music-skill","6"
"survey-multi-choice","107","2157245","0.0-11.0-1.0","c3c36d49d8e190282b2107f10bae5d9053e9f92184fdd83cec6d22a8d150668c","arctic","arctic","2108","","","","","","","survey","","","","","","","","","","","","","{""Q0"":""Yes""}","","","music-instrument","Yes"
"survey-text","108","2166813","0.0-11.0-2.0-0.0","c3c36d49d8e190282b2107f10bae5d9053e9f92184fdd83cec6d22a8d150668c","arctic","arctic","9316.300000071526","","","","","","","survey","","","","","","","","","","","","","{""MEXP"":""17""}","","","music-training-yrs","17"
"html-button-response","109","2169813","0.0-12.0-0.0","c3c36d49d8e190282b2107f10bae5d9053e9f92184fdd83cec6d22a8d150668c","arctic","arctic","2749","","<p>How would you describe your general hearing abilities?</p>","4","","","","survey","","","","","","","","","","","","","","","","ssq-01","5"
"html-button-response","110","2176542","0.0-12.0-1.0","c3c36d49d8e190282b2107f10bae5d9053e9f92184fdd83cec6d22a8d150668c","arctic","arctic","6477","","<p>When you talk with someone at a place that strongly reverberates/echoes (e.g., in a church or train station),</br>can you understand what the person says?</p>","9","","","","survey","","","","","","","","","","","","","","","","ssq-02","9"
"html-button-response","111","2180445","0.0-12.0-2.0","c3c36d49d8e190282b2107f10bae5d9053e9f92184fdd83cec6d22a8d150668c","arctic","arctic","3651","","<p>When you are with a group (~5 people) in a lively restaurant, can you follow the group's conversation?</p>","9","","","","survey","","","","","","","","","","","","","","","","ssq-03","9"
"html-button-response","112","2185006","0.0-12.0-3.0","c3c36d49d8e190282b2107f10bae5d9053e9f92184fdd83cec6d22a8d150668c","arctic","arctic","4308","","<p>Based on the sound of a bus or truck, can you tell whether it is moving towards or away from you?</p>","9","","","","survey","","","","","","","","","","","","","","","","ssq-04","9"
"html-button-response","113","2189261","0.0-12.0-4.0","c3c36d49d8e190282b2107f10bae5d9053e9f92184fdd83cec6d22a8d150668c","arctic","arctic","4004","","<p>When you are in an unknown environment, can you tell from which direction a brief sound originates?</p>","9","","","","survey","","","","","","","","","","","","","","","","ssq-05","9"
"html-button-response","114","2196045","0.0-12.0-5.0","c3c36d49d8e190282b2107f10bae5d9053e9f92184fdd83cec6d22a8d150668c","arctic","arctic","6531","","<p>Are you able to ignore distracting sounds when you concentrate on a specific aspect of your acoustic surrounding?</p>","7","","","","survey","","","","","","","","","","","","","","","","ssq-06","7"
"fullscreen","115","2197297","0.0-13.0","c3c36d49d8e190282b2107f10bae5d9053e9f92184fdd83cec6d22a8d150668c","arctic","arctic","","","","","","","","","true","","","","","","","","","","","","","","","",""
