"trial_type","trial_index","time_elapsed","internal_node_id","ParticipantID","firstStory","scramStory","rt","url","stimulus","button_pressed","key_press","correctRESP","correct","designation","success","letterStim","letterType","ONSET","TIMEOUT","CONDITION","Participant","ONSET_ACTUAL","RT","RESP","ACC","STORY","responses","response","type","surveyQuestion","QRESP"
"pavlovia","0","2","0.0-0.0","01d92d17ed0ea9d99d2bac6381808c7ee69318be66dd3daf29c6bf4568786f8d","swim","arctic","","","","","","","","","","","","","","","","","","","","","","","","",""
"external-html","1","51205","0.0-1.0","01d92d17ed0ea9d99d2bac6381808c7ee69318be66dd3daf29c6bf4568786f8d","swim","arctic","51075","consent/consent_updated.html","","","","","","","","","","","","","","","","","","","","","","",""
"html-button-response","2","53087","0.0-2.0-0.0","01d92d17ed0ea9d99d2bac6381808c7ee69318be66dd3daf29c6bf4568786f8d","swim","arctic","1881","","<p>Before we begin the main task, you will complete a short volume calibration and headphone check.</p><p>Please make sure you are in a quiet listening environment, that you are wearing headphones, and that your computer's volume is turned on.<p></p>","0","","","","","","","","","","","","","","","","","","","","",""
"html-button-response","3","56719","0.0-2.0-1.0","01d92d17ed0ea9d99d2bac6381808c7ee69318be66dd3daf29c6bf4568786f8d","swim","arctic","3380","","<p>The volume calibration will be first.</p><p>You will hear a thirty-second noise. Please adjust your computer's volume so that this noise is being presented at a comfortable level.<p></p>","0","","","","","","","","","","","","","","","","","","","","",""
"audio-button-response","4","60586","0.0-2.0-2.0","01d92d17ed0ea9d99d2bac6381808c7ee69318be66dd3daf29c6bf4568786f8d","swim","arctic","3615","","audio/volumetest.mp3","0","","","","","","","","","","","","","","","","","","","","",""
"html-keyboard-response","5","83179","0.0-3.0-0.0","01d92d17ed0ea9d99d2bac6381808c7ee69318be66dd3daf29c6bf4568786f8d","swim","arctic","22592","","<p>You will now complete a short headphone check.</p><p>On each trial, you will hear three tones. One of these tones will be quieter than the others. Your task is to identify whether the quiet tone occurred first, second, or third.</p><p>There are six trials in total.<p></p><p></p>(Press SPACEBAR to begin)","","32","","","","","","","","","","","","","","","","","","","",""
"html-keyboard-response","6","83937","0.0-3.0-1.0-0.0","01d92d17ed0ea9d99d2bac6381808c7ee69318be66dd3daf29c6bf4568786f8d","swim","arctic","null","","<div style=""font-size:60px;"">+</div>","","null","","","","","","","","","","","","","","","","","","","",""
"audio-button-response","7","88184","0.0-3.0-1.0-1.0","01d92d17ed0ea9d99d2bac6381808c7ee69318be66dd3daf29c6bf4568786f8d","swim","arctic","4246","","audio/t2_2.mp3","1","","1","1","headphone-test","","","","","","","","","","","","","","","","",""
"html-keyboard-response","8","88686","0.0-3.0-1.0-2.0","01d92d17ed0ea9d99d2bac6381808c7ee69318be66dd3daf29c6bf4568786f8d","swim","arctic","null","","<p>Correct</p>","","null","","","","","","","","","","","","","","","","","","","",""
"html-keyboard-response","9","89186","0.0-3.0-1.0-0.1","01d92d17ed0ea9d99d2bac6381808c7ee69318be66dd3daf29c6bf4568786f8d","swim","arctic","null","","<div style=""font-size:60px;"">+</div>","","null","","","","","","","","","","","","","","","","","","","",""
"audio-button-response","10","93323","0.0-3.0-1.0-1.1","01d92d17ed0ea9d99d2bac6381808c7ee69318be66dd3daf29c6bf4568786f8d","swim","arctic","4136","","audio/t1_1.mp3","0","","0","1","headphone-test","","","","","","","","","","","","","","","","",""
"html-keyboard-response","11","93825","0.0-3.0-1.0-2.1","01d92d17ed0ea9d99d2bac6381808c7ee69318be66dd3daf29c6bf4568786f8d","swim","arctic","null","","<p>Correct</p>","","null","","","","","","","","","","","","","","","","","","","",""
"html-keyboard-response","12","94335","0.0-3.0-1.0-0.2","01d92d17ed0ea9d99d2bac6381808c7ee69318be66dd3daf29c6bf4568786f8d","swim","arctic","null","","<div style=""font-size:60px;"">+</div>","","null","","","","","","","","","","","","","","","","","","","",""
"audio-button-response","13","98454","0.0-3.0-1.0-1.2","01d92d17ed0ea9d99d2bac6381808c7ee69318be66dd3daf29c6bf4568786f8d","swim","arctic","4118","","audio/t3_2.mp3","2","","2","1","headphone-test","","","","","","","","","","","","","","","","",""
"html-keyboard-response","14","98966","0.0-3.0-1.0-2.2","01d92d17ed0ea9d99d2bac6381808c7ee69318be66dd3daf29c6bf4568786f8d","swim","arctic","null","","<p>Correct</p>","","null","","","","","","","","","","","","","","","","","","","",""
"html-keyboard-response","15","99466","0.0-3.0-1.0-0.3","01d92d17ed0ea9d99d2bac6381808c7ee69318be66dd3daf29c6bf4568786f8d","swim","arctic","null","","<div style=""font-size:60px;"">+</div>","","null","","","","","","","","","","","","","","","","","","","",""
"audio-button-response","16","103518","0.0-3.0-1.0-1.3","01d92d17ed0ea9d99d2bac6381808c7ee69318be66dd3daf29c6bf4568786f8d","swim","arctic","4050","","audio/t2_1.mp3","1","","1","1","headphone-test","","","","","","","","","","","","","","","","",""
"html-keyboard-response","17","104020","0.0-3.0-1.0-2.3","01d92d17ed0ea9d99d2bac6381808c7ee69318be66dd3daf29c6bf4568786f8d","swim","arctic","null","","<p>Correct</p>","","null","","","","","","","","","","","","","","","","","","","",""
"html-keyboard-response","18","104520","0.0-3.0-1.0-0.4","01d92d17ed0ea9d99d2bac6381808c7ee69318be66dd3daf29c6bf4568786f8d","swim","arctic","null","","<div style=""font-size:60px;"">+</div>","","null","","","","","","","","","","","","","","","","","","","",""
"audio-button-response","19","108205","0.0-3.0-1.0-1.4","01d92d17ed0ea9d99d2bac6381808c7ee69318be66dd3daf29c6bf4568786f8d","swim","arctic","3684","","audio/t3_1.mp3","2","","2","1","headphone-test","","","","","","","","","","","","","","","","",""
"html-keyboard-response","20","108709","0.0-3.0-1.0-2.4","01d92d17ed0ea9d99d2bac6381808c7ee69318be66dd3daf29c6bf4568786f8d","swim","arctic","null","","<p>Correct</p>","","null","","","","","","","","","","","","","","","","","","","",""
"html-keyboard-response","21","109220","0.0-3.0-1.0-0.5","01d92d17ed0ea9d99d2bac6381808c7ee69318be66dd3daf29c6bf4568786f8d","swim","arctic","null","","<div style=""font-size:60px;"">+</div>","","null","","","","","","","","","","","","","","","","","","","",""
"audio-button-response","22","113803","0.0-3.0-1.0-1.5","01d92d17ed0ea9d99d2bac6381808c7ee69318be66dd3daf29c6bf4568786f8d","swim","arctic","4583","","audio/t1_2.mp3","0","","0","1","headphone-test","","","","","","","","","","","","","","","","",""
"html-keyboard-response","23","114305","0.0-3.0-1.0-2.5","01d92d17ed0ea9d99d2bac6381808c7ee69318be66dd3daf29c6bf4568786f8d","swim","arctic","null","","<p>Correct</p>","","null","","","","","","","","","","","","","","","","","","","",""
"fullscreen","24","116671","0.0-4.0","01d92d17ed0ea9d99d2bac6381808c7ee69318be66dd3daf29c6bf4568786f8d","swim","arctic","","","","","","","","","true","","","","","","","","","","","","","","","",""
"html-button-response","25","124651","0.0-5.0-0.0","01d92d17ed0ea9d99d2bac6381808c7ee69318be66dd3daf29c6bf4568786f8d","swim","arctic","7980","","<p>There are two blocks to this experiment.</p><p>In each block, you will hear a ~13.5 minute story. One of the stories will be scrambled. Please listen carefully to both stories and understand them as best you can.</p><p>After each story, you will be asked some questions to assess your comprehension.</p>","0","","","","","","","","","","","","","","","","","","","","",""
"html-button-response","26","161321","0.0-5.0-1.0","01d92d17ed0ea9d99d2bac6381808c7ee69318be66dd3daf29c6bf4568786f8d","swim","arctic","36669","","<p>During each story, there will be an additional task.</p><p>A letter will occasionally appear on the screen.</br>Your job is to - as quickly as you can - decide whether the letter is lowercase or uppercase and press one of two keys on the keyboard:</p><p>If the letter is <b>lowercase</b>, press key &lt;<b>x</b>&gt;.</p><p>If the letter is <b>uppercase</b>, press key &lt;<b>m</b>&gt;.</p>","0","","","","","","","","","","","","","","","","","","","","",""
"html-keyboard-response","27","169631","0.0-5.0-2.0","01d92d17ed0ea9d99d2bac6381808c7ee69318be66dd3daf29c6bf4568786f8d","swim","arctic","8310","","<p>Because we want your responses to be as quick as possible, please keep your index fingers over the keys while listening.</p><p>Each block lasts about 20 minutes.</p><p><b>Press &lt;x&gt; or &lt;m&gt; to start the first block!</b></p>","","88","","","","","","","","","","","","","","","","","","","",""
"html-keyboard-response","28","170133","0.0-7.0-0.0-0.0","01d92d17ed0ea9d99d2bac6381808c7ee69318be66dd3daf29c6bf4568786f8d","swim","arctic","null","","<div style=""font-size:60px;"" tabindex=""0"">+</div>","","null","","","","","","","","","","","","","","","","","","","",""
"dual-task","null","null","null","","swim","arctic","NA","","T","null","NA","77","0","swim-dual-task","","T","uppercase","16000","1","4","01d92d17ed0ea9d99d2bac6381808c7ee69318be66dd3daf29c6bf4568786f8d","16001.59999999404","NA","NA","0","swim","","","","",""
"dual-task","null","null","null","","swim","arctic","NA","","D","null","NA","77","0","swim-dual-task","","D","uppercase","22000","1","4","01d92d17ed0ea9d99d2bac6381808c7ee69318be66dd3daf29c6bf4568786f8d","22006.90000000596","NA","NA","0","swim","","","","",""
"dual-task","null","null","null","","swim","arctic","NA","","E","null","NA","77","0","swim-dual-task","","E","uppercase","36000","1","4","01d92d17ed0ea9d99d2bac6381808c7ee69318be66dd3daf29c6bf4568786f8d","36004.29999998212","NA","NA","0","swim","","","","",""
"dual-task","null","null","null","","swim","arctic","NA","","f","null","NA","88","0","swim-dual-task","","f","lowercase","46000","1","4","01d92d17ed0ea9d99d2bac6381808c7ee69318be66dd3daf29c6bf4568786f8d","46010.19999998808","NA","NA","0","swim","","","","",""
"dual-task","null","null","null","","swim","arctic","NA","","r","null","NA","88","0","swim-dual-task","","r","lowercase","52000","1","4","01d92d17ed0ea9d99d2bac6381808c7ee69318be66dd3daf29c6bf4568786f8d","51999.90000000596","NA","NA","0","swim","","","","",""
"dual-task","null","null","null","","swim","arctic","NA","","R","null","NA","77","0","swim-dual-task","","R","uppercase","60000","1","4","01d92d17ed0ea9d99d2bac6381808c7ee69318be66dd3daf29c6bf4568786f8d","60014.90000000596","NA","NA","0","swim","","","","",""
"dual-task","null","null","null","","swim","arctic","NA","","t","null","NA","88","0","swim-dual-task","","t","lowercase","70000","1","4","01d92d17ed0ea9d99d2bac6381808c7ee69318be66dd3daf29c6bf4568786f8d","70011.59999999404","NA","NA","0","swim","","","","",""
"dual-task","null","null","null","","swim","arctic","NA","","F","null","NA","77","0","swim-dual-task","","F","uppercase","84000","1","4","01d92d17ed0ea9d99d2bac6381808c7ee69318be66dd3daf29c6bf4568786f8d","84002.19999998808","NA","NA","0","swim","","","","",""
"dual-task","null","null","null","","swim","arctic","NA","","N","null","NA","77","0","swim-dual-task","","N","uppercase","90000","1","4","01d92d17ed0ea9d99d2bac6381808c7ee69318be66dd3daf29c6bf4568786f8d","90007.09999999404","NA","NA","0","swim","","","","",""
"dual-task","null","null","null","","swim","arctic","NA","","H","null","NA","77","0","swim-dual-task","","H","uppercase","102000","1","4","01d92d17ed0ea9d99d2bac6381808c7ee69318be66dd3daf29c6bf4568786f8d","102008.69999998808","NA","NA","0","swim","","","","",""
"dual-task","null","null","null","","swim","arctic","941.6999999880791","","B","null","88","77","0","swim-dual-task","","B","uppercase","114000","0","4","01d92d17ed0ea9d99d2bac6381808c7ee69318be66dd3daf29c6bf4568786f8d","114000.40000000596","941.6999999880791","88","0","swim","","","","",""
"dual-task","null","null","null","","swim","arctic","765.9000000059605","","h","null","88","88","1","swim-dual-task","","h","lowercase","122000","0","4","01d92d17ed0ea9d99d2bac6381808c7ee69318be66dd3daf29c6bf4568786f8d","122002.79999998212","765.9000000059605","88","1","swim","","","","",""
"dual-task","null","null","null","","swim","arctic","514.5999999940395","","Q","null","77","77","1","swim-dual-task","","Q","uppercase","130000","0","4","01d92d17ed0ea9d99d2bac6381808c7ee69318be66dd3daf29c6bf4568786f8d","130001.79999998212","514.5999999940395","77","1","swim","","","","",""
"dual-task","null","null","null","","swim","arctic","738.8000000119209","","G","null","77","77","1","swim-dual-task","","G","uppercase","142000","0","4","01d92d17ed0ea9d99d2bac6381808c7ee69318be66dd3daf29c6bf4568786f8d","142001.5","738.8000000119209","77","1","swim","","","","",""
"dual-task","null","null","null","","swim","arctic","NA","","A","null","NA","77","0","swim-dual-task","","A","uppercase","148000","1","4","01d92d17ed0ea9d99d2bac6381808c7ee69318be66dd3daf29c6bf4568786f8d","148011.29999998212","NA","NA","0","swim","","","","",""
"dual-task","null","null","null","","swim","arctic","1198.0999999940395","","d","null","88","88","1","swim-dual-task","","d","lowercase","158000","0","4","01d92d17ed0ea9d99d2bac6381808c7ee69318be66dd3daf29c6bf4568786f8d","158010.29999998212","1198.0999999940395","88","1","swim","","","","",""
"dual-task","null","null","null","","swim","arctic","1146.6000000238419","","b","null","88","88","1","swim-dual-task","","b","lowercase","166000","0","4","01d92d17ed0ea9d99d2bac6381808c7ee69318be66dd3daf29c6bf4568786f8d","166000.19999998808","1146.6000000238419","88","1","swim","","","","",""
"dual-task","null","null","null","","swim","arctic","955.7000000178814","","n","null","88","88","1","swim-dual-task","","n","lowercase","180000","0","4","01d92d17ed0ea9d99d2bac6381808c7ee69318be66dd3daf29c6bf4568786f8d","180000.59999999404","955.7000000178814","88","1","swim","","","","",""
"dual-task","null","null","null","","swim","arctic","963","","t","null","88","88","1","swim-dual-task","","t","lowercase","192000","0","4","01d92d17ed0ea9d99d2bac6381808c7ee69318be66dd3daf29c6bf4568786f8d","192009.90000000596","963","88","1","swim","","","","",""
"dual-task","null","null","null","","swim","arctic","NA","","T","null","NA","77","0","swim-dual-task","","T","uppercase","200000","1","4","01d92d17ed0ea9d99d2bac6381808c7ee69318be66dd3daf29c6bf4568786f8d","200013.19999998808","NA","NA","0","swim","","","","",""
"dual-task","null","null","null","","swim","arctic","909.7999999821186","","e","null","88","88","1","swim-dual-task","","e","lowercase","206000","0","4","01d92d17ed0ea9d99d2bac6381808c7ee69318be66dd3daf29c6bf4568786f8d","206000.90000000596","909.7999999821186","88","1","swim","","","","",""
"dual-task","null","null","null","","swim","arctic","NA","","H","null","NA","77","0","swim-dual-task","","H","uppercase","216000","1","4","01d92d17ed0ea9d99d2bac6381808c7ee69318be66dd3daf29c6bf4568786f8d","216005.79999998212","NA","NA","0","swim","","","","",""
"dual-task","null","null","null","","swim","arctic","723.8000000119209","","A","null","77","77","1","swim-dual-task","","A","uppercase","222000","0","4","01d92d17ed0ea9d99d2bac6381808c7ee69318be66dd3daf29c6bf4568786f8d","222014","723.8000000119209","77","1","swim","","","","",""
"dual-task","null","null","null","","swim","arctic","644.3000000119209","","a","null","88","88","1","swim-dual-task","","a","lowercase","232000","0","4","01d92d17ed0ea9d99d2bac6381808c7ee69318be66dd3daf29c6bf4568786f8d","232001.59999999404","644.3000000119209","88","1","swim","","","","",""
"dual-task","null","null","null","","swim","arctic","556.0999999940395","","D","null","77","77","1","swim-dual-task","","D","uppercase","244000","0","4","01d92d17ed0ea9d99d2bac6381808c7ee69318be66dd3daf29c6bf4568786f8d","244013.59999999404","556.0999999940395","77","1","swim","","","","",""
"dual-task","null","null","null","","swim","arctic","696.3000000119209","","d","null","88","88","1","swim-dual-task","","d","lowercase","250000","0","4","01d92d17ed0ea9d99d2bac6381808c7ee69318be66dd3daf29c6bf4568786f8d","250013.5","696.3000000119209","88","1","swim","","","","",""
"dual-task","null","null","null","","swim","arctic","NA","","N","null","NA","77","0","swim-dual-task","","N","uppercase","262000","1","4","01d92d17ed0ea9d99d2bac6381808c7ee69318be66dd3daf29c6bf4568786f8d","262006.29999998212","NA","NA","0","swim","","","","",""
"dual-task","null","null","null","","swim","arctic","NA","","e","null","NA","88","0","swim-dual-task","","e","lowercase","272000","1","4","01d92d17ed0ea9d99d2bac6381808c7ee69318be66dd3daf29c6bf4568786f8d","272015","NA","NA","0","swim","","","","",""
"dual-task","null","null","null","","swim","arctic","712.1999999880791","","N","null","77","77","1","swim-dual-task","","N","uppercase","278000","0","4","01d92d17ed0ea9d99d2bac6381808c7ee69318be66dd3daf29c6bf4568786f8d","278000.2999999821","712.1999999880791","77","1","swim","","","","",""
"dual-task","null","null","null","","swim","arctic","1018.7000000178814","","E","null","77","77","1","swim-dual-task","","E","uppercase","292000","0","4","01d92d17ed0ea9d99d2bac6381808c7ee69318be66dd3daf29c6bf4568786f8d","292002.1999999881","1018.7000000178814","77","1","swim","","","","",""
"dual-task","null","null","null","","swim","arctic","1016.3000000119209","","Q","null","77","77","1","swim-dual-task","","Q","uppercase","304000","0","4","01d92d17ed0ea9d99d2bac6381808c7ee69318be66dd3daf29c6bf4568786f8d","304007","1016.3000000119209","77","1","swim","","","","",""
"dual-task","null","null","null","","swim","arctic","660.4000000059605","","b","null","88","88","1","swim-dual-task","","b","lowercase","316000","0","4","01d92d17ed0ea9d99d2bac6381808c7ee69318be66dd3daf29c6bf4568786f8d","316008.09999999404","660.4000000059605","88","1","swim","","","","",""
"dual-task","null","null","null","","swim","arctic","731.5","","Q","null","77","77","1","swim-dual-task","","Q","uppercase","324000","0","4","01d92d17ed0ea9d99d2bac6381808c7ee69318be66dd3daf29c6bf4568786f8d","324012","731.5","77","1","swim","","","","",""
"dual-task","null","null","null","","swim","arctic","718.4000000059605","","h","null","88","88","1","swim-dual-task","","h","lowercase","336000","0","4","01d92d17ed0ea9d99d2bac6381808c7ee69318be66dd3daf29c6bf4568786f8d","336014.59999999404","718.4000000059605","88","1","swim","","","","",""
"dual-task","null","null","null","","swim","arctic","576.2999999821186","","q","null","88","88","1","swim-dual-task","","q","lowercase","346000","0","4","01d92d17ed0ea9d99d2bac6381808c7ee69318be66dd3daf29c6bf4568786f8d","346012.40000000596","576.2999999821186","88","1","swim","","","","",""
"dual-task","null","null","null","","swim","arctic","824","","A","null","77","77","1","swim-dual-task","","A","uppercase","360000","0","4","01d92d17ed0ea9d99d2bac6381808c7ee69318be66dd3daf29c6bf4568786f8d","360014","824","77","1","swim","","","","",""
"dual-task","null","null","null","","swim","arctic","592.1999999880791","","f","null","88","88","1","swim-dual-task","","f","lowercase","368000","0","4","01d92d17ed0ea9d99d2bac6381808c7ee69318be66dd3daf29c6bf4568786f8d","368000.40000000596","592.1999999880791","88","1","swim","","","","",""
"dual-task","null","null","null","","swim","arctic","684.4000000059605","","h","null","88","88","1","swim-dual-task","","h","lowercase","378000","0","4","01d92d17ed0ea9d99d2bac6381808c7ee69318be66dd3daf29c6bf4568786f8d","378001.6999999881","684.4000000059605","88","1","swim","","","","",""
"dual-task","null","null","null","","swim","arctic","827.0999999940395","","H","null","77","77","1","swim-dual-task","","H","uppercase","386000","0","4","01d92d17ed0ea9d99d2bac6381808c7ee69318be66dd3daf29c6bf4568786f8d","386010.59999999404","827.0999999940395","77","1","swim","","","","",""
"dual-task","null","null","null","","swim","arctic","753.5","","E","null","77","77","1","swim-dual-task","","E","uppercase","398000","0","4","01d92d17ed0ea9d99d2bac6381808c7ee69318be66dd3daf29c6bf4568786f8d","398014.59999999404","753.5","77","1","swim","","","","",""
"dual-task","null","null","null","","swim","arctic","1772.5","","g","null","88","88","1","swim-dual-task","","g","lowercase","408000","0","4","01d92d17ed0ea9d99d2bac6381808c7ee69318be66dd3daf29c6bf4568786f8d","408007.5","1772.5","88","1","swim","","","","",""
"dual-task","null","null","null","","swim","arctic","1697.800000011921","","F","null","77","77","1","swim-dual-task","","F","uppercase","418000","0","4","01d92d17ed0ea9d99d2bac6381808c7ee69318be66dd3daf29c6bf4568786f8d","418003.6999999881","1697.800000011921","77","1","swim","","","","",""
"dual-task","null","null","null","","swim","arctic","1123.5999999940395","","D","null","77","77","1","swim-dual-task","","D","uppercase","426000","0","4","01d92d17ed0ea9d99d2bac6381808c7ee69318be66dd3daf29c6bf4568786f8d","426013.09999999404","1123.5999999940395","77","1","swim","","","","",""
"dual-task","null","null","null","","swim","arctic","735.0999999940395","","G","null","77","77","1","swim-dual-task","","G","uppercase","432000","0","4","01d92d17ed0ea9d99d2bac6381808c7ee69318be66dd3daf29c6bf4568786f8d","432008.59999999404","735.0999999940395","77","1","swim","","","","",""
"dual-task","null","null","null","","swim","arctic","936.3999999761581","","G","null","77","77","1","swim-dual-task","","G","uppercase","440000","0","4","01d92d17ed0ea9d99d2bac6381808c7ee69318be66dd3daf29c6bf4568786f8d","440005.2999999821","936.3999999761581","77","1","swim","","","","",""
"dual-task","null","null","null","","swim","arctic","638.7999999821186","","R","null","77","77","1","swim-dual-task","","R","uppercase","448000","0","4","01d92d17ed0ea9d99d2bac6381808c7ee69318be66dd3daf29c6bf4568786f8d","448001.7999999821","638.7999999821186","77","1","swim","","","","",""
"dual-task","null","null","null","","swim","arctic","484.30000001192093","","D","null","77","77","1","swim-dual-task","","D","uppercase","458000","0","4","01d92d17ed0ea9d99d2bac6381808c7ee69318be66dd3daf29c6bf4568786f8d","458013.59999999404","484.30000001192093","77","1","swim","","","","",""
"dual-task","null","null","null","","swim","arctic","650.5","","g","null","88","88","1","swim-dual-task","","g","lowercase","472000","0","4","01d92d17ed0ea9d99d2bac6381808c7ee69318be66dd3daf29c6bf4568786f8d","472008.7999999821","650.5","88","1","swim","","","","",""
"dual-task","null","null","null","","swim","arctic","762.6999999880791","","g","null","88","88","1","swim-dual-task","","g","lowercase","484000","0","4","01d92d17ed0ea9d99d2bac6381808c7ee69318be66dd3daf29c6bf4568786f8d","484001","762.6999999880791","88","1","swim","","","","",""
"dual-task","null","null","null","","swim","arctic","830.4000000059605","","d","null","88","88","1","swim-dual-task","","d","lowercase","492000","0","4","01d92d17ed0ea9d99d2bac6381808c7ee69318be66dd3daf29c6bf4568786f8d","492013.5","830.4000000059605","88","1","swim","","","","",""
"dual-task","null","null","null","","swim","arctic","642.5999999940395","","b","null","88","88","1","swim-dual-task","","b","lowercase","502000","0","4","01d92d17ed0ea9d99d2bac6381808c7ee69318be66dd3daf29c6bf4568786f8d","502014.5","642.5999999940395","88","1","swim","","","","",""
"dual-task","null","null","null","","swim","arctic","524.6999999880791","","B","null","77","77","1","swim-dual-task","","B","uppercase","514000","0","4","01d92d17ed0ea9d99d2bac6381808c7ee69318be66dd3daf29c6bf4568786f8d","514003.40000000596","524.6999999880791","77","1","swim","","","","",""
"dual-task","null","null","null","","swim","arctic","546.8000000119209","","r","null","88","88","1","swim-dual-task","","r","lowercase","526000","0","4","01d92d17ed0ea9d99d2bac6381808c7ee69318be66dd3daf29c6bf4568786f8d","526010.1999999881","546.8000000119209","88","1","swim","","","","",""
"dual-task","null","null","null","","swim","arctic","591.4000000059605","","q","null","88","88","1","swim-dual-task","","q","lowercase","538000","0","4","01d92d17ed0ea9d99d2bac6381808c7ee69318be66dd3daf29c6bf4568786f8d","538008.599999994","591.4000000059605","88","1","swim","","","","",""
"dual-task","null","null","null","","swim","arctic","542.6999999880791","","Q","null","77","77","1","swim-dual-task","","Q","uppercase","548000","0","4","01d92d17ed0ea9d99d2bac6381808c7ee69318be66dd3daf29c6bf4568786f8d","548004.400000006","542.6999999880791","77","1","swim","","","","",""
"dual-task","null","null","null","","swim","arctic","570.8000000119209","","R","null","77","77","1","swim-dual-task","","R","uppercase","560000","0","4","01d92d17ed0ea9d99d2bac6381808c7ee69318be66dd3daf29c6bf4568786f8d","560001","570.8000000119209","77","1","swim","","","","",""
"dual-task","null","null","null","","swim","arctic","1015.3999999761581","","f","null","88","88","1","swim-dual-task","","f","lowercase","570000","0","4","01d92d17ed0ea9d99d2bac6381808c7ee69318be66dd3daf29c6bf4568786f8d","570007.2999999821","1015.3999999761581","88","1","swim","","","","",""
"dual-task","null","null","null","","swim","arctic","690.7999999821186","","a","null","88","88","1","swim-dual-task","","a","lowercase","576000","0","4","01d92d17ed0ea9d99d2bac6381808c7ee69318be66dd3daf29c6bf4568786f8d","576004.2999999821","690.7999999821186","88","1","swim","","","","",""
"dual-task","null","null","null","","swim","arctic","530.8000000119209","","r","null","88","88","1","swim-dual-task","","r","lowercase","584000","0","4","01d92d17ed0ea9d99d2bac6381808c7ee69318be66dd3daf29c6bf4568786f8d","584002.900000006","530.8000000119209","88","1","swim","","","","",""
"dual-task","null","null","null","","swim","arctic","513.2000000178814","","R","null","77","77","1","swim-dual-task","","R","uppercase","596000","0","4","01d92d17ed0ea9d99d2bac6381808c7ee69318be66dd3daf29c6bf4568786f8d","596001.599999994","513.2000000178814","77","1","swim","","","","",""
"dual-task","null","null","null","","swim","arctic","708.2999999821186","","e","null","88","88","1","swim-dual-task","","e","lowercase","608000","0","4","01d92d17ed0ea9d99d2bac6381808c7ee69318be66dd3daf29c6bf4568786f8d","608005.400000006","708.2999999821186","88","1","swim","","","","",""
"dual-task","null","null","null","","swim","arctic","694.3000000119209","","n","null","88","88","1","swim-dual-task","","n","lowercase","618000","0","4","01d92d17ed0ea9d99d2bac6381808c7ee69318be66dd3daf29c6bf4568786f8d","618000.5","694.3000000119209","88","1","swim","","","","",""
"dual-task","null","null","null","","swim","arctic","460.5","","q","null","88","88","1","swim-dual-task","","q","lowercase","626000","0","4","01d92d17ed0ea9d99d2bac6381808c7ee69318be66dd3daf29c6bf4568786f8d","626014.599999994","460.5","88","1","swim","","","","",""
"dual-task","null","null","null","","swim","arctic","704.0999999940395","","h","null","88","88","1","swim-dual-task","","h","lowercase","638000","0","4","01d92d17ed0ea9d99d2bac6381808c7ee69318be66dd3daf29c6bf4568786f8d","638010.400000006","704.0999999940395","88","1","swim","","","","",""
"dual-task","null","null","null","","swim","arctic","541.2999999821186","","t","null","88","88","1","swim-dual-task","","t","lowercase","644000","0","4","01d92d17ed0ea9d99d2bac6381808c7ee69318be66dd3daf29c6bf4568786f8d","644010.1999999881","541.2999999821186","88","1","swim","","","","",""
"dual-task","null","null","null","","swim","arctic","548.4000000059605","","b","null","88","88","1","swim-dual-task","","b","lowercase","658000","0","4","01d92d17ed0ea9d99d2bac6381808c7ee69318be66dd3daf29c6bf4568786f8d","658005.599999994","548.4000000059605","88","1","swim","","","","",""
"dual-task","null","null","null","","swim","arctic","545.3000000119209","","B","null","77","77","1","swim-dual-task","","B","uppercase","668000","0","4","01d92d17ed0ea9d99d2bac6381808c7ee69318be66dd3daf29c6bf4568786f8d","668004","545.3000000119209","77","1","swim","","","","",""
"dual-task","null","null","null","","swim","arctic","NA","","n","null","NA","88","0","swim-dual-task","","n","lowercase","678000","1","4","01d92d17ed0ea9d99d2bac6381808c7ee69318be66dd3daf29c6bf4568786f8d","678004.900000006","NA","NA","0","swim","","","","",""
"dual-task","null","null","null","","swim","arctic","877.6000000238419","","a","null","88","88","1","swim-dual-task","","a","lowercase","686000","0","4","01d92d17ed0ea9d99d2bac6381808c7ee69318be66dd3daf29c6bf4568786f8d","686001.099999994","877.6000000238419","88","1","swim","","","","",""
"dual-task","null","null","null","","swim","arctic","534.4000000059605","","A","null","77","77","1","swim-dual-task","","A","uppercase","698000","0","4","01d92d17ed0ea9d99d2bac6381808c7ee69318be66dd3daf29c6bf4568786f8d","698001.6999999881","534.4000000059605","77","1","swim","","","","",""
"dual-task","null","null","null","","swim","arctic","1061.199999988079","","r","null","88","88","1","swim-dual-task","","r","lowercase","706000","0","4","01d92d17ed0ea9d99d2bac6381808c7ee69318be66dd3daf29c6bf4568786f8d","706000.400000006","1061.199999988079","88","1","swim","","","","",""
"dual-task","null","null","null","","swim","arctic","594.0999999940395","","d","null","88","88","1","swim-dual-task","","d","lowercase","714000","0","4","01d92d17ed0ea9d99d2bac6381808c7ee69318be66dd3daf29c6bf4568786f8d","714007.7999999821","594.0999999940395","88","1","swim","","","","",""
"dual-task","null","null","null","","swim","arctic","406.09999999403954","","n","null","88","88","1","swim-dual-task","","n","lowercase","728000","0","4","01d92d17ed0ea9d99d2bac6381808c7ee69318be66dd3daf29c6bf4568786f8d","728000.900000006","406.09999999403954","88","1","swim","","","","",""
"dual-task","null","null","null","","swim","arctic","644.2999999821186","","F","null","77","77","1","swim-dual-task","","F","uppercase","738000","0","4","01d92d17ed0ea9d99d2bac6381808c7ee69318be66dd3daf29c6bf4568786f8d","738007.400000006","644.2999999821186","77","1","swim","","","","",""
"dual-task","null","null","null","","swim","arctic","793.8000000119209","","f","null","88","88","1","swim-dual-task","","f","lowercase","750000","0","4","01d92d17ed0ea9d99d2bac6381808c7ee69318be66dd3daf29c6bf4568786f8d","750011.6999999881","793.8000000119209","88","1","swim","","","","",""
"dual-task","null","null","null","","swim","arctic","476","","q","null","88","88","1","swim-dual-task","","q","lowercase","758000","0","4","01d92d17ed0ea9d99d2bac6381808c7ee69318be66dd3daf29c6bf4568786f8d","758013.2999999821","476","88","1","swim","","","","",""
"dual-task","null","null","null","","swim","arctic","658.8999999761581","","G","null","88","77","0","swim-dual-task","","G","uppercase","764000","0","4","01d92d17ed0ea9d99d2bac6381808c7ee69318be66dd3daf29c6bf4568786f8d","764001.7999999821","658.8999999761581","88","0","swim","","","","",""
"dual-task","null","null","null","","swim","arctic","659.5","","e","null","77","88","0","swim-dual-task","","e","lowercase","774000","0","4","01d92d17ed0ea9d99d2bac6381808c7ee69318be66dd3daf29c6bf4568786f8d","774002.6999999881","659.5","77","0","swim","","","","",""
"dual-task","null","null","null","","swim","arctic","515.2999999821186","","g","null","88","88","1","swim-dual-task","","g","lowercase","780000","0","4","01d92d17ed0ea9d99d2bac6381808c7ee69318be66dd3daf29c6bf4568786f8d","780004.2999999821","515.2999999821186","88","1","swim","","","","",""
"dual-task","null","null","null","","swim","arctic","435.30000001192093","","B","null","77","77","1","swim-dual-task","","B","uppercase","786000","0","4","01d92d17ed0ea9d99d2bac6381808c7ee69318be66dd3daf29c6bf4568786f8d","786007.099999994","435.30000001192093","77","1","swim","","","","",""
"dual-task","null","null","null","","swim","arctic","NA","","T","null","NA","77","0","swim-dual-task","","T","uppercase","796000","1","4","01d92d17ed0ea9d99d2bac6381808c7ee69318be66dd3daf29c6bf4568786f8d","796015.6999999881","NA","NA","0","swim","","","","",""
"audio-keyboard-response","29","980272","0.0-7.0-0.0-1.0","01d92d17ed0ea9d99d2bac6381808c7ee69318be66dd3daf29c6bf4568786f8d","swim","arctic","null","","audio/story_swim.mp3","","null","","","","","","","","","","","","","","","","","","","",""
"html-button-response","30","982542","0.0-7.0-0.0-2.0","01d92d17ed0ea9d99d2bac6381808c7ee69318be66dd3daf29c6bf4568786f8d","swim","arctic","2269","","<p>This concludes the story. Thank you for listening.</p><p>You will now answer some questions about the content of the story.</p>","0","","","","","","","","","","","","","","","","","","","","",""
"survey-multi-choice","31","988707","0.0-7.0-0.0-3.0-0.0","01d92d17ed0ea9d99d2bac6381808c7ee69318be66dd3daf29c6bf4568786f8d","swim","arctic","6161","","<b>Where is the home of naval aviation?</b>","","","","1","swim-comprehension","","","","","","","","","","","","","{""Q0"":""Pensacola""}","","","",""
"survey-multi-choice","32","1000055","0.0-7.0-0.0-3.0-0.1","01d92d17ed0ea9d99d2bac6381808c7ee69318be66dd3daf29c6bf4568786f8d","swim","arctic","11097","","<b>What gave the narrator his greatest feeling of accomplishment?</b>","","","","1","swim-comprehension","","","","","","","","","","","","","{""Q0"":""Passing the water survival course""}","","","",""
"survey-multi-choice","33","1008834","0.0-7.0-0.0-3.0-0.2","01d92d17ed0ea9d99d2bac6381808c7ee69318be66dd3daf29c6bf4568786f8d","swim","arctic","8526","","<b>How many times did the astronaut candidates have to complete the final exercise to pass?</b>","","","","1","swim-comprehension","","","","","","","","","","","","","{""Q0"":""Two""}","","","",""
"survey-multi-choice","34","1016263","0.0-7.0-0.0-3.0-0.3","01d92d17ed0ea9d99d2bac6381808c7ee69318be66dd3daf29c6bf4568786f8d","swim","arctic","7176","","<b>What was the final step of the first swim test in the pool?</b>","","","","1","swim-comprehension","","","","","","","","","","","","","{""Q0"":""Tread water with hands above the water""}","","","",""
"survey-multi-choice","35","1027300","0.0-7.0-0.0-3.0-0.4","01d92d17ed0ea9d99d2bac6381808c7ee69318be66dd3daf29c6bf4568786f8d","swim","arctic","10784","","<b>What were the astronaut candidates trained to do at the naval air station?</b>","","","","1","swim-comprehension","","","","","","","","","","","","","{""Q0"":""Eject out of aircraft and survive in water long enough to be rescued""}","","","",""
"survey-multi-choice","36","1033406","0.0-7.0-0.0-3.0-0.5","01d92d17ed0ea9d99d2bac6381808c7ee69318be66dd3daf29c6bf4568786f8d","swim","arctic","5854","","<b>How often does the narrator swim, now that he is a good swimmer?</b>","","","","1","swim-comprehension","","","","","","","","","","","","","{""Q0"":""Never swam again in his life""}","","","",""
"survey-multi-choice","37","1037388","0.0-7.0-0.0-3.0-0.6","01d92d17ed0ea9d99d2bac6381808c7ee69318be66dd3daf29c6bf4568786f8d","swim","arctic","3730","","<b>How many astronaut candidates passed the first swim test?</b>","","","","1","swim-comprehension","","","","","","","","","","","","","{""Q0"":""All of them""}","","","",""
"survey-multi-choice","38","1042205","0.0-7.0-0.0-3.0-0.7","01d92d17ed0ea9d99d2bac6381808c7ee69318be66dd3daf29c6bf4568786f8d","swim","arctic","4564","","<b>What is the narrator afraid of, aside from the water?</b>","","","","1","swim-comprehension","","","","","","","","","","","","","{""Q0"":""Heights""}","","","",""
"survey-multi-choice","39","1049504","0.0-7.0-0.0-3.0-0.8","01d92d17ed0ea9d99d2bac6381808c7ee69318be66dd3daf29c6bf4568786f8d","swim","arctic","7045","","<b>How many astronaut candidates reported for duty at the Johnson Space Center?</b>","","","","1","swim-comprehension","","","","","","","","","","","","","{""Q0"":""Forty-four""}","","","",""
"survey-multi-choice","40","1056422","0.0-7.0-0.0-3.0-0.9","01d92d17ed0ea9d99d2bac6381808c7ee69318be66dd3daf29c6bf4568786f8d","swim","arctic","6666","","<b>How did the narrator train for his swim test?</b>","","","","0","swim-comprehension","","","","","","","","","","","","","{""Q0"":""Signed up for a swim class""}","","","",""
"html-button-response","41","1057924","0.0-7.0-0.0-4.0","01d92d17ed0ea9d99d2bac6381808c7ee69318be66dd3daf29c6bf4568786f8d","swim","arctic","1249","","<p>Thank you for your responses.</p><p>You will now answer some questions about your impressions of the story.</p>","0","","","","","","","","","","","","","","","","","","","","",""
"html-button-response","42","1060151","0.0-7.0-0.0-5.0-0.0","01d92d17ed0ea9d99d2bac6381808c7ee69318be66dd3daf29c6bf4568786f8d","swim","arctic","2227","","E7","5","","","","swim-engagement","","","","","","","","","","","","","","6","enjoyment","",""
"html-button-response","43","1062215","0.0-7.0-0.0-5.0-0.1","01d92d17ed0ea9d99d2bac6381808c7ee69318be66dd3daf29c6bf4568786f8d","swim","arctic","1812","","A5","3","","","","swim-engagement","","","","","","","","","","","","","","4","absorption","",""
"html-button-response","44","1065987","0.0-7.0-0.0-5.0-0.2","01d92d17ed0ea9d99d2bac6381808c7ee69318be66dd3daf29c6bf4568786f8d","swim","arctic","3519","","A2","4","","","","swim-engagement","","","","","","","","","","","","","","5","absorption","",""
"html-button-response","45","1067785","0.0-7.0-0.0-5.0-0.3","01d92d17ed0ea9d99d2bac6381808c7ee69318be66dd3daf29c6bf4568786f8d","swim","arctic","1546","","E1","6","","","","swim-engagement","","","","","","","","","","","","","","7","enjoyment","",""
"html-button-response","46","1069385","0.0-7.0-0.0-5.0-0.4","01d92d17ed0ea9d99d2bac6381808c7ee69318be66dd3daf29c6bf4568786f8d","swim","arctic","1349","","EE5","5","","","","swim-engagement","","","","","","","","","","","","","","6","emo-engage","",""
"html-button-response","47","1070481","0.0-7.0-0.0-5.0-0.5","01d92d17ed0ea9d99d2bac6381808c7ee69318be66dd3daf29c6bf4568786f8d","swim","arctic","846","","E6","5","","","","swim-engagement","","","","","","","","","","","","","","6","enjoyment","",""
"html-button-response","48","1071631","0.0-7.0-0.0-5.0-0.6","01d92d17ed0ea9d99d2bac6381808c7ee69318be66dd3daf29c6bf4568786f8d","swim","arctic","899","","A1","5","","","","swim-engagement","","","","","","","","","","","","","","6","absorption","",""
"html-button-response","49","1073141","0.0-7.0-0.0-5.0-0.7","01d92d17ed0ea9d99d2bac6381808c7ee69318be66dd3daf29c6bf4568786f8d","swim","arctic","1259","","A3","5","","","","swim-engagement","","","","","","","","","","","","","","6","absorption","",""
"html-button-response","50","1075198","0.0-7.0-0.0-5.0-0.8","01d92d17ed0ea9d99d2bac6381808c7ee69318be66dd3daf29c6bf4568786f8d","swim","arctic","1804","","MS1","6","","","","swim-engagement","","","","","","","","","","","","","","7","mental-sim","",""
"html-button-response","51","1079863","0.0-7.0-0.0-5.0-0.9","01d92d17ed0ea9d99d2bac6381808c7ee69318be66dd3daf29c6bf4568786f8d","swim","arctic","4414","","MS2","6","","","","swim-engagement","","","","","","","","","","","","","","7","mental-sim","",""
"html-button-response","52","1081627","0.0-7.0-0.0-5.0-0.10","01d92d17ed0ea9d99d2bac6381808c7ee69318be66dd3daf29c6bf4568786f8d","swim","arctic","1512","","EE2","5","","","","swim-engagement","","","","","","","","","","","","","","6","emo-engage","",""
"html-button-response","53","1083483","0.0-7.0-0.0-5.0-0.11","01d92d17ed0ea9d99d2bac6381808c7ee69318be66dd3daf29c6bf4568786f8d","swim","arctic","1605","","EE4","5","","","","swim-engagement","","","","","","","","","","","","","","6","emo-engage","",""
"html-button-response","54","1084546","0.0-7.0-0.0-5.0-0.12","01d92d17ed0ea9d99d2bac6381808c7ee69318be66dd3daf29c6bf4568786f8d","swim","arctic","812","","E8","5","","","","swim-engagement","","","","","","","","","","","","","","6","enjoyment","",""
"html-button-response","55","1085705","0.0-7.0-0.0-5.0-0.13","01d92d17ed0ea9d99d2bac6381808c7ee69318be66dd3daf29c6bf4568786f8d","swim","arctic","908","","E10","6","","","","swim-engagement","","","","","","","","","","","","","","7","enjoyment","",""
"html-button-response","56","1088892","0.0-7.0-0.0-5.0-0.14","01d92d17ed0ea9d99d2bac6381808c7ee69318be66dd3daf29c6bf4568786f8d","swim","arctic","2935","","MS3","4","","","","swim-engagement","","","","","","","","","","","","","","5","mental-sim","",""
"html-button-response","57","1090483","0.0-7.0-0.0-5.0-0.15","01d92d17ed0ea9d99d2bac6381808c7ee69318be66dd3daf29c6bf4568786f8d","swim","arctic","1340","","A4","5","","","","swim-engagement","","","","","","","","","","","","","","6","absorption","",""
"html-button-response","58","1093632","0.0-7.0-0.0-5.0-0.16","01d92d17ed0ea9d99d2bac6381808c7ee69318be66dd3daf29c6bf4568786f8d","swim","arctic","2896","","EE1","6","","","","swim-engagement","","","","","","","","","","","","","","7","emo-engage","",""
"html-button-response","59","1095161","0.0-7.0-0.0-5.0-0.17","01d92d17ed0ea9d99d2bac6381808c7ee69318be66dd3daf29c6bf4568786f8d","swim","arctic","1277","","EE3","6","","","","swim-engagement","","","","","","","","","","","","","","7","emo-engage","",""
"html-keyboard-response","60","1097923","0.0-7.0-1.0","01d92d17ed0ea9d99d2bac6381808c7ee69318be66dd3daf29c6bf4568786f8d","swim","arctic","2511","","<p>Thank you for your responses. You will now listen to the second story.</p><p>Remember, as you listen to the story you will see letters appear on the screen.</br>As quickly as possible, press <b>&lt;x&gt;</b> if the letter is lowercase and <b>&lt;m&gt;</b> if the letter is uppercase.</p><p>Press <b>&lt;x&gt;</b> or <b>&lt;m&gt;</b> to begin listening!</p>","","88","","","","","","","","","","","","","","","","","","","",""
"html-keyboard-response","61","1098424","0.0-7.0-2.0-0.0","01d92d17ed0ea9d99d2bac6381808c7ee69318be66dd3daf29c6bf4568786f8d","swim","arctic","null","","<div style=""font-size:60px;"" tabindex=""0"">+</div>","","null","","","","","","","","","","","","","","","","","","","",""
"dual-task","null","null","null","","swim","arctic","1563.300000011921","","h","null","88","88","1","arctic-dual-task","","h","lowercase","16000","0","4","01d92d17ed0ea9d99d2bac6381808c7ee69318be66dd3daf29c6bf4568786f8d","15999.800000011921","1563.300000011921","88","1","arctic","","","","",""
"dual-task","null","null","null","","swim","arctic","1370","","g","null","88","88","1","arctic-dual-task","","g","lowercase","22000","0","4","01d92d17ed0ea9d99d2bac6381808c7ee69318be66dd3daf29c6bf4568786f8d","22012.90000000596","1370","88","1","arctic","","","","",""
"dual-task","null","null","null","","swim","arctic","1728.2999999821186","","t","null","88","88","1","arctic-dual-task","","t","lowercase","30000","0","4","01d92d17ed0ea9d99d2bac6381808c7ee69318be66dd3daf29c6bf4568786f8d","30004.69999998808","1728.2999999821186","88","1","arctic","","","","",""
"dual-task","null","null","null","","swim","arctic","596.2000000178814","","b","null","88","88","1","arctic-dual-task","","b","lowercase","40000","0","4","01d92d17ed0ea9d99d2bac6381808c7ee69318be66dd3daf29c6bf4568786f8d","40012.5","596.2000000178814","88","1","arctic","","","","",""
"dual-task","null","null","null","","swim","arctic","672.9000000059605","","t","null","88","88","1","arctic-dual-task","","t","lowercase","52000","0","4","01d92d17ed0ea9d99d2bac6381808c7ee69318be66dd3daf29c6bf4568786f8d","52007.19999998808","672.9000000059605","88","1","arctic","","","","",""
"dual-task","null","null","null","","swim","arctic","675.5","","T","null","77","77","1","arctic-dual-task","","T","uppercase","60000","0","4","01d92d17ed0ea9d99d2bac6381808c7ee69318be66dd3daf29c6bf4568786f8d","60013.90000000596","675.5","77","1","arctic","","","","",""
"dual-task","null","null","null","","swim","arctic","535.1999999880791","","B","null","77","77","1","arctic-dual-task","","B","uppercase","66000","0","4","01d92d17ed0ea9d99d2bac6381808c7ee69318be66dd3daf29c6bf4568786f8d","66008.59999999404","535.1999999880791","77","1","arctic","","","","",""
"dual-task","null","null","null","","swim","arctic","523.9000000059605","","D","null","77","77","1","arctic-dual-task","","D","uppercase","74000","0","4","01d92d17ed0ea9d99d2bac6381808c7ee69318be66dd3daf29c6bf4568786f8d","74014.69999998808","523.9000000059605","77","1","arctic","","","","",""
"dual-task","null","null","null","","swim","arctic","465.09999999403954","","G","null","77","77","1","arctic-dual-task","","G","uppercase","80000","0","4","01d92d17ed0ea9d99d2bac6381808c7ee69318be66dd3daf29c6bf4568786f8d","80008.09999999404","465.09999999403954","77","1","arctic","","","","",""
"dual-task","null","null","null","","swim","arctic","761.6999999880791","","r","null","88","88","1","arctic-dual-task","","r","lowercase","94000","0","4","01d92d17ed0ea9d99d2bac6381808c7ee69318be66dd3daf29c6bf4568786f8d","94010.19999998808","761.6999999880791","88","1","arctic","","","","",""
"dual-task","null","null","null","","swim","arctic","580.0999999940395","","F","null","77","77","1","arctic-dual-task","","F","uppercase","106000","0","4","01d92d17ed0ea9d99d2bac6381808c7ee69318be66dd3daf29c6bf4568786f8d","106011.80000001192","580.0999999940395","77","1","arctic","","","","",""
"dual-task","null","null","null","","swim","arctic","502.2999999821186","","d","null","88","88","1","arctic-dual-task","","d","lowercase","118000","0","4","01d92d17ed0ea9d99d2bac6381808c7ee69318be66dd3daf29c6bf4568786f8d","118009.69999998808","502.2999999821186","88","1","arctic","","","","",""
"dual-task","null","null","null","","swim","arctic","677.3000000119209","","b","null","88","88","1","arctic-dual-task","","b","lowercase","130000","0","4","01d92d17ed0ea9d99d2bac6381808c7ee69318be66dd3daf29c6bf4568786f8d","130006","677.3000000119209","88","1","arctic","","","","",""
"dual-task","null","null","null","","swim","arctic","608.5999999940395","","F","null","77","77","1","arctic-dual-task","","F","uppercase","142000","0","4","01d92d17ed0ea9d99d2bac6381808c7ee69318be66dd3daf29c6bf4568786f8d","142003.30000001192","608.5999999940395","77","1","arctic","","","","",""
"dual-task","null","null","null","","swim","arctic","711.6999999880791","","q","null","88","88","1","arctic-dual-task","","q","lowercase","156000","0","4","01d92d17ed0ea9d99d2bac6381808c7ee69318be66dd3daf29c6bf4568786f8d","156004.30000001192","711.6999999880791","88","1","arctic","","","","",""
"dual-task","null","null","null","","swim","arctic","664.3000000119209","","g","null","88","88","1","arctic-dual-task","","g","lowercase","162000","0","4","01d92d17ed0ea9d99d2bac6381808c7ee69318be66dd3daf29c6bf4568786f8d","162013.40000000596","664.3000000119209","88","1","arctic","","","","",""
"dual-task","null","null","null","","swim","arctic","574.5","","Q","null","77","77","1","arctic-dual-task","","Q","uppercase","176000","0","4","01d92d17ed0ea9d99d2bac6381808c7ee69318be66dd3daf29c6bf4568786f8d","176002.5","574.5","77","1","arctic","","","","",""
"dual-task","null","null","null","","swim","arctic","996.5","","R","null","77","77","1","arctic-dual-task","","R","uppercase","184000","0","4","01d92d17ed0ea9d99d2bac6381808c7ee69318be66dd3daf29c6bf4568786f8d","184014.19999998808","996.5","77","1","arctic","","","","",""
"dual-task","null","null","null","","swim","arctic","782.5999999940395","","T","null","77","77","1","arctic-dual-task","","T","uppercase","192000","0","4","01d92d17ed0ea9d99d2bac6381808c7ee69318be66dd3daf29c6bf4568786f8d","192015.30000001192","782.5999999940395","77","1","arctic","","","","",""
"dual-task","null","null","null","","swim","arctic","542.2999999821186","","n","null","88","88","1","arctic-dual-task","","n","lowercase","206000","0","4","01d92d17ed0ea9d99d2bac6381808c7ee69318be66dd3daf29c6bf4568786f8d","206000.59999999404","542.2999999821186","88","1","arctic","","","","",""
"dual-task","null","null","null","","swim","arctic","665.4000000059605","","t","null","88","88","1","arctic-dual-task","","t","lowercase","216000","0","4","01d92d17ed0ea9d99d2bac6381808c7ee69318be66dd3daf29c6bf4568786f8d","216001.90000000596","665.4000000059605","88","1","arctic","","","","",""
"dual-task","null","null","null","","swim","arctic","567.2000000178814","","q","null","88","88","1","arctic-dual-task","","q","lowercase","226000","0","4","01d92d17ed0ea9d99d2bac6381808c7ee69318be66dd3daf29c6bf4568786f8d","226003.5","567.2000000178814","88","1","arctic","","","","",""
"dual-task","null","null","null","","swim","arctic","614.1999999880791","","T","null","77","77","1","arctic-dual-task","","T","uppercase","238000","0","4","01d92d17ed0ea9d99d2bac6381808c7ee69318be66dd3daf29c6bf4568786f8d","238008.90000000596","614.1999999880791","77","1","arctic","","","","",""
"dual-task","null","null","null","","swim","arctic","649.3000000119209","","h","null","88","88","1","arctic-dual-task","","h","lowercase","252000","0","4","01d92d17ed0ea9d99d2bac6381808c7ee69318be66dd3daf29c6bf4568786f8d","252013.90000000596","649.3000000119209","88","1","arctic","","","","",""
"dual-task","null","null","null","","swim","arctic","734.7000000178814","","B","null","77","77","1","arctic-dual-task","","B","uppercase","262000","0","4","01d92d17ed0ea9d99d2bac6381808c7ee69318be66dd3daf29c6bf4568786f8d","262011.19999998808","734.7000000178814","77","1","arctic","","","","",""
"dual-task","null","null","null","","swim","arctic","546.0999999940395","","R","null","77","77","1","arctic-dual-task","","R","uppercase","272000","0","4","01d92d17ed0ea9d99d2bac6381808c7ee69318be66dd3daf29c6bf4568786f8d","272002.40000000596","546.0999999940395","77","1","arctic","","","","",""
"dual-task","null","null","null","","swim","arctic","711.7000000178814","","d","null","88","88","1","arctic-dual-task","","d","lowercase","280000","0","4","01d92d17ed0ea9d99d2bac6381808c7ee69318be66dd3daf29c6bf4568786f8d","280003.5","711.7000000178814","88","1","arctic","","","","",""
"dual-task","null","null","null","","swim","arctic","730.0999999940395","","F","null","77","77","1","arctic-dual-task","","F","uppercase","288000","0","4","01d92d17ed0ea9d99d2bac6381808c7ee69318be66dd3daf29c6bf4568786f8d","288014.6999999881","730.0999999940395","77","1","arctic","","","","",""
"dual-task","null","null","null","","swim","arctic","736.7999999821186","","H","null","77","77","1","arctic-dual-task","","H","uppercase","294000","0","4","01d92d17ed0ea9d99d2bac6381808c7ee69318be66dd3daf29c6bf4568786f8d","294004.1999999881","736.7999999821186","77","1","arctic","","","","",""
"dual-task","null","null","null","","swim","arctic","514.3999999761581","","a","null","88","88","1","arctic-dual-task","","a","lowercase","302000","0","4","01d92d17ed0ea9d99d2bac6381808c7ee69318be66dd3daf29c6bf4568786f8d","302003.1999999881","514.3999999761581","88","1","arctic","","","","",""
"dual-task","null","null","null","","swim","arctic","648.1000000238419","","A","null","77","77","1","arctic-dual-task","","A","uppercase","308000","0","4","01d92d17ed0ea9d99d2bac6381808c7ee69318be66dd3daf29c6bf4568786f8d","308007.09999999404","648.1000000238419","77","1","arctic","","","","",""
"dual-task","null","null","null","","swim","arctic","430.40000000596046","","H","null","77","77","1","arctic-dual-task","","H","uppercase","318000","0","4","01d92d17ed0ea9d99d2bac6381808c7ee69318be66dd3daf29c6bf4568786f8d","318007.09999999404","430.40000000596046","77","1","arctic","","","","",""
"dual-task","null","null","null","","swim","arctic","527","","g","null","88","88","1","arctic-dual-task","","g","lowercase","324000","0","4","01d92d17ed0ea9d99d2bac6381808c7ee69318be66dd3daf29c6bf4568786f8d","324008.40000000596","527","88","1","arctic","","","","",""
"dual-task","null","null","null","","swim","arctic","626.2000000178814","","B","null","77","77","1","arctic-dual-task","","B","uppercase","330000","0","4","01d92d17ed0ea9d99d2bac6381808c7ee69318be66dd3daf29c6bf4568786f8d","330007.1999999881","626.2000000178814","77","1","arctic","","","","",""
"dual-task","null","null","null","","swim","arctic","520.3999999761581","","a","null","88","88","1","arctic-dual-task","","a","lowercase","338000","0","4","01d92d17ed0ea9d99d2bac6381808c7ee69318be66dd3daf29c6bf4568786f8d","338011.09999999404","520.3999999761581","88","1","arctic","","","","",""
"dual-task","null","null","null","","swim","arctic","517.8000000119209","","G","null","77","77","1","arctic-dual-task","","G","uppercase","348000","0","4","01d92d17ed0ea9d99d2bac6381808c7ee69318be66dd3daf29c6bf4568786f8d","348006.90000000596","517.8000000119209","77","1","arctic","","","","",""
"dual-task","null","null","null","","swim","arctic","1005.5999999940395","","h","null","77","88","0","arctic-dual-task","","h","lowercase","362000","0","4","01d92d17ed0ea9d99d2bac6381808c7ee69318be66dd3daf29c6bf4568786f8d","362009.3000000119","1005.5999999940395","77","0","arctic","","","","",""
"dual-task","null","null","null","","swim","arctic","642.2999999821186","","A","null","77","77","1","arctic-dual-task","","A","uppercase","374000","0","4","01d92d17ed0ea9d99d2bac6381808c7ee69318be66dd3daf29c6bf4568786f8d","374002.59999999404","642.2999999821186","77","1","arctic","","","","",""
"dual-task","null","null","null","","swim","arctic","796.0999999940395","","E","null","77","77","1","arctic-dual-task","","E","uppercase","384000","0","4","01d92d17ed0ea9d99d2bac6381808c7ee69318be66dd3daf29c6bf4568786f8d","384008.3000000119","796.0999999940395","77","1","arctic","","","","",""
"dual-task","null","null","null","","swim","arctic","676.4000000059605","","N","null","77","77","1","arctic-dual-task","","N","uppercase","390000","0","4","01d92d17ed0ea9d99d2bac6381808c7ee69318be66dd3daf29c6bf4568786f8d","390012","676.4000000059605","77","1","arctic","","","","",""
"dual-task","null","null","null","","swim","arctic","503.7999999821186","","r","null","88","88","1","arctic-dual-task","","r","lowercase","402000","0","4","01d92d17ed0ea9d99d2bac6381808c7ee69318be66dd3daf29c6bf4568786f8d","402007.1999999881","503.7999999821186","88","1","arctic","","","","",""
"dual-task","null","null","null","","swim","arctic","515.4000000059605","","E","null","77","77","1","arctic-dual-task","","E","uppercase","410000","0","4","01d92d17ed0ea9d99d2bac6381808c7ee69318be66dd3daf29c6bf4568786f8d","410011.3000000119","515.4000000059605","77","1","arctic","","","","",""
"dual-task","null","null","null","","swim","arctic","743.5999999940395","","n","null","88","88","1","arctic-dual-task","","n","lowercase","416000","0","4","01d92d17ed0ea9d99d2bac6381808c7ee69318be66dd3daf29c6bf4568786f8d","416006.40000000596","743.5999999940395","88","1","arctic","","","","",""
"dual-task","null","null","null","","swim","arctic","983.6999999880791","","G","null","77","77","1","arctic-dual-task","","G","uppercase","426000","0","4","01d92d17ed0ea9d99d2bac6381808c7ee69318be66dd3daf29c6bf4568786f8d","426001.09999999404","983.6999999880791","77","1","arctic","","","","",""
"dual-task","null","null","null","","swim","arctic","1325.0999999940395","","H","null","77","77","1","arctic-dual-task","","H","uppercase","434000","0","4","01d92d17ed0ea9d99d2bac6381808c7ee69318be66dd3daf29c6bf4568786f8d","434008.90000000596","1325.0999999940395","77","1","arctic","","","","",""
"dual-task","null","null","null","","swim","arctic","521.6999999880791","","b","null","88","88","1","arctic-dual-task","","b","lowercase","444000","0","4","01d92d17ed0ea9d99d2bac6381808c7ee69318be66dd3daf29c6bf4568786f8d","444015.90000000596","521.6999999880791","88","1","arctic","","","","",""
"dual-task","null","null","null","","swim","arctic","652.5999999940395","","d","null","88","88","1","arctic-dual-task","","d","lowercase","458000","0","4","01d92d17ed0ea9d99d2bac6381808c7ee69318be66dd3daf29c6bf4568786f8d","458005.90000000596","652.5999999940395","88","1","arctic","","","","",""
"dual-task","null","null","null","","swim","arctic","717","","A","null","77","77","1","arctic-dual-task","","A","uppercase","466000","0","4","01d92d17ed0ea9d99d2bac6381808c7ee69318be66dd3daf29c6bf4568786f8d","466022.40000000596","717","77","1","arctic","","","","",""
"dual-task","null","null","null","","swim","arctic","645.0999999940395","","R","null","77","77","1","arctic-dual-task","","R","uppercase","478000","0","4","01d92d17ed0ea9d99d2bac6381808c7ee69318be66dd3daf29c6bf4568786f8d","478002.1999999881","645.0999999940395","77","1","arctic","","","","",""
"dual-task","null","null","null","","swim","arctic","NA","","H","null","NA","77","0","arctic-dual-task","","H","uppercase","492000","1","4","01d92d17ed0ea9d99d2bac6381808c7ee69318be66dd3daf29c6bf4568786f8d","492000","NA","NA","0","arctic","","","","",""
"dual-task","null","null","null","","swim","arctic","606.5","","Q","null","77","77","1","arctic-dual-task","","Q","uppercase","506000","0","4","01d92d17ed0ea9d99d2bac6381808c7ee69318be66dd3daf29c6bf4568786f8d","506015.8000000119","606.5","77","1","arctic","","","","",""
"dual-task","null","null","null","","swim","arctic","696.5999999940395","","a","null","88","88","1","arctic-dual-task","","a","lowercase","520000","0","4","01d92d17ed0ea9d99d2bac6381808c7ee69318be66dd3daf29c6bf4568786f8d","520010.90000000596","696.5999999940395","88","1","arctic","","","","",""
"dual-task","null","null","null","","swim","arctic","809.1000000238419","","N","null","77","77","1","arctic-dual-task","","N","uppercase","532000","0","4","01d92d17ed0ea9d99d2bac6381808c7ee69318be66dd3daf29c6bf4568786f8d","532009.5","809.1000000238419","77","1","arctic","","","","",""
"dual-task","null","null","null","","swim","arctic","716","","e","null","88","88","1","arctic-dual-task","","e","lowercase","544000","0","4","01d92d17ed0ea9d99d2bac6381808c7ee69318be66dd3daf29c6bf4568786f8d","544002.900000006","716","88","1","arctic","","","","",""
"dual-task","null","null","null","","swim","arctic","685.6999999880791","","b","null","88","88","1","arctic-dual-task","","b","lowercase","550000","0","4","01d92d17ed0ea9d99d2bac6381808c7ee69318be66dd3daf29c6bf4568786f8d","550013.8000000119","685.6999999880791","88","1","arctic","","","","",""
"dual-task","null","null","null","","swim","arctic","585.2000000178814","","d","null","88","88","1","arctic-dual-task","","d","lowercase","558000","0","4","01d92d17ed0ea9d99d2bac6381808c7ee69318be66dd3daf29c6bf4568786f8d","558012.599999994","585.2000000178814","88","1","arctic","","","","",""
"dual-task","null","null","null","","swim","arctic","499.80000001192093","","n","null","88","88","1","arctic-dual-task","","n","lowercase","566000","0","4","01d92d17ed0ea9d99d2bac6381808c7ee69318be66dd3daf29c6bf4568786f8d","566016.3000000119","499.80000001192093","88","1","arctic","","","","",""
"dual-task","null","null","null","","swim","arctic","472.59999999403954","","a","null","88","88","1","arctic-dual-task","","a","lowercase","580000","0","4","01d92d17ed0ea9d99d2bac6381808c7ee69318be66dd3daf29c6bf4568786f8d","580012.900000006","472.59999999403954","88","1","arctic","","","","",""
"dual-task","null","null","null","","swim","arctic","682.1999999880791","","Q","null","77","77","1","arctic-dual-task","","Q","uppercase","588000","0","4","01d92d17ed0ea9d99d2bac6381808c7ee69318be66dd3daf29c6bf4568786f8d","588005.400000006","682.1999999880791","77","1","arctic","","","","",""
"dual-task","null","null","null","","swim","arctic","709.1999999880791","","N","null","77","77","1","arctic-dual-task","","N","uppercase","598000","0","4","01d92d17ed0ea9d99d2bac6381808c7ee69318be66dd3daf29c6bf4568786f8d","598011.6999999881","709.1999999880791","77","1","arctic","","","","",""
"dual-task","null","null","null","","swim","arctic","965.1000000238419","","G","null","88","77","0","arctic-dual-task","","G","uppercase","606000","0","4","01d92d17ed0ea9d99d2bac6381808c7ee69318be66dd3daf29c6bf4568786f8d","606013.099999994","965.1000000238419","88","0","arctic","","","","",""
"dual-task","null","null","null","","swim","arctic","549.1999999880791","","D","null","77","77","1","arctic-dual-task","","D","uppercase","616000","0","4","01d92d17ed0ea9d99d2bac6381808c7ee69318be66dd3daf29c6bf4568786f8d","616016.5","549.1999999880791","77","1","arctic","","","","",""
"dual-task","null","null","null","","swim","arctic","567.1000000238419","","q","null","88","88","1","arctic-dual-task","","q","lowercase","630000","0","4","01d92d17ed0ea9d99d2bac6381808c7ee69318be66dd3daf29c6bf4568786f8d","630010.8000000119","567.1000000238419","88","1","arctic","","","","",""
"dual-task","null","null","null","","swim","arctic","680","","f","null","88","88","1","arctic-dual-task","","f","lowercase","640000","0","4","01d92d17ed0ea9d99d2bac6381808c7ee69318be66dd3daf29c6bf4568786f8d","640015.599999994","680","88","1","arctic","","","","",""
"dual-task","null","null","null","","swim","arctic","743.1000000238419","","Q","null","77","77","1","arctic-dual-task","","Q","uppercase","652000","0","4","01d92d17ed0ea9d99d2bac6381808c7ee69318be66dd3daf29c6bf4568786f8d","652009.599999994","743.1000000238419","77","1","arctic","","","","",""
"dual-task","null","null","null","","swim","arctic","680.9000000059605","","A","null","77","77","1","arctic-dual-task","","A","uppercase","666000","0","4","01d92d17ed0ea9d99d2bac6381808c7ee69318be66dd3daf29c6bf4568786f8d","666008.5","680.9000000059605","77","1","arctic","","","","",""
"dual-task","null","null","null","","swim","arctic","562.2999999821186","","E","null","77","77","1","arctic-dual-task","","E","uppercase","676000","0","4","01d92d17ed0ea9d99d2bac6381808c7ee69318be66dd3daf29c6bf4568786f8d","676003.1999999881","562.2999999821186","77","1","arctic","","","","",""
"dual-task","null","null","null","","swim","arctic","647.1999999880791","","f","null","88","88","1","arctic-dual-task","","f","lowercase","684000","0","4","01d92d17ed0ea9d99d2bac6381808c7ee69318be66dd3daf29c6bf4568786f8d","684009.1999999881","647.1999999880791","88","1","arctic","","","","",""
"dual-task","null","null","null","","swim","arctic","569.1999999880791","","N","null","77","77","1","arctic-dual-task","","N","uppercase","694000","0","4","01d92d17ed0ea9d99d2bac6381808c7ee69318be66dd3daf29c6bf4568786f8d","694004.400000006","569.1999999880791","77","1","arctic","","","","",""
"dual-task","null","null","null","","swim","arctic","896.6999999880791","","e","null","88","88","1","arctic-dual-task","","e","lowercase","706000","0","4","01d92d17ed0ea9d99d2bac6381808c7ee69318be66dd3daf29c6bf4568786f8d","706014.3000000119","896.6999999880791","88","1","arctic","","","","",""
"dual-task","null","null","null","","swim","arctic","474.89999997615814","","q","null","88","88","1","arctic-dual-task","","q","lowercase","714000","0","4","01d92d17ed0ea9d99d2bac6381808c7ee69318be66dd3daf29c6bf4568786f8d","714002.6999999881","474.89999997615814","88","1","arctic","","","","",""
"dual-task","null","null","null","","swim","arctic","700.7999999821186","","r","null","88","88","1","arctic-dual-task","","r","lowercase","728000","0","4","01d92d17ed0ea9d99d2bac6381808c7ee69318be66dd3daf29c6bf4568786f8d","728012.8000000119","700.7999999821186","88","1","arctic","","","","",""
"dual-task","null","null","null","","swim","arctic","766.1000000238419","","f","null","88","88","1","arctic-dual-task","","f","lowercase","742000","0","4","01d92d17ed0ea9d99d2bac6381808c7ee69318be66dd3daf29c6bf4568786f8d","742004.599999994","766.1000000238419","88","1","arctic","","","","",""
"dual-task","null","null","null","","swim","arctic","710","","T","null","77","77","1","arctic-dual-task","","T","uppercase","756000","0","4","01d92d17ed0ea9d99d2bac6381808c7ee69318be66dd3daf29c6bf4568786f8d","756001.400000006","710","77","1","arctic","","","","",""
"dual-task","null","null","null","","swim","arctic","1134.300000011921","","e","null","88","88","1","arctic-dual-task","","e","lowercase","762000","0","4","01d92d17ed0ea9d99d2bac6381808c7ee69318be66dd3daf29c6bf4568786f8d","762003.900000006","1134.300000011921","88","1","arctic","","","","",""
"dual-task","null","null","null","","swim","arctic","1276.5","","f","null","77","88","0","arctic-dual-task","","f","lowercase","770000","0","4","01d92d17ed0ea9d99d2bac6381808c7ee69318be66dd3daf29c6bf4568786f8d","770008.3000000119","1276.5","77","0","arctic","","","","",""
"dual-task","null","null","null","","swim","arctic","671.3000000119209","","D","null","77","77","1","arctic-dual-task","","D","uppercase","776000","0","4","01d92d17ed0ea9d99d2bac6381808c7ee69318be66dd3daf29c6bf4568786f8d","776008.099999994","671.3000000119209","77","1","arctic","","","","",""
"dual-task","null","null","null","","swim","arctic","574.7999999821186","","n","null","88","88","1","arctic-dual-task","","n","lowercase","784000","0","4","01d92d17ed0ea9d99d2bac6381808c7ee69318be66dd3daf29c6bf4568786f8d","784001.1999999881","574.7999999821186","88","1","arctic","","","","",""
"audio-keyboard-response","62","1896524","0.0-7.0-2.0-1.0","01d92d17ed0ea9d99d2bac6381808c7ee69318be66dd3daf29c6bf4568786f8d","swim","arctic","null","","audio/story_arctic_scrambled.mp3","","null","","","","","","","","","","","","","","","","","","","",""
"html-button-response","63","1900524","0.0-7.0-2.0-2.0","01d92d17ed0ea9d99d2bac6381808c7ee69318be66dd3daf29c6bf4568786f8d","swim","arctic","3999","","<p>This concludes the story. Thank you for listening.</p><p>You will now answer some questions about the content of the story.</p>","0","","","","","","","","","","","","","","","","","","","","",""
"survey-multi-choice","64","1904332","0.0-7.0-2.0-3.0-0.0","01d92d17ed0ea9d99d2bac6381808c7ee69318be66dd3daf29c6bf4568786f8d","swim","arctic","3807","","<b>What was the objective of the narrator&#39;s expedition?</b>","","","","1","arctic-comprehension","","","","","","","","","","","","","{""Q0"":""Dogsled across Arctic America""}","","","",""
"survey-multi-choice","65","1907358","0.0-7.0-2.0-3.0-0.1","01d92d17ed0ea9d99d2bac6381808c7ee69318be66dd3daf29c6bf4568786f8d","swim","arctic","2774","","<b>Which dog on the narrator&#39;s dog team never followed instructions?</b>","","","","1","arctic-comprehension","","","","","","","","","","","","","{""Q0"":""Robert""}","","","",""
"survey-multi-choice","66","1910798","0.0-7.0-2.0-3.0-0.2","01d92d17ed0ea9d99d2bac6381808c7ee69318be66dd3daf29c6bf4568786f8d","swim","arctic","3189","","<b>What is the name of the narrator&#39;s neighbour?</b>","","","","1","arctic-comprehension","","","","","","","","","","","","","{""Q0"":""Dave""}","","","",""
"survey-multi-choice","67","1921456","0.0-7.0-2.0-3.0-0.3","01d92d17ed0ea9d99d2bac6381808c7ee69318be66dd3daf29c6bf4568786f8d","swim","arctic","10405","","<b>How did the narrator&#39;s neighbour respond when she told him about her expedition?</b>","","","","1","arctic-comprehension","","","","","","","","","","","","","{""Q0"":""He said she was going to fail.""}","","","",""
"survey-multi-choice","68","1930389","0.0-7.0-2.0-3.0-0.4","01d92d17ed0ea9d99d2bac6381808c7ee69318be66dd3daf29c6bf4568786f8d","swim","arctic","8681","","<b>How did the narrator prepare for her expedition?</b>","","","","1","arctic-comprehension","","","","","","","","","","","","","{""Q0"":""Trained in Alaska learning how to dogsled""}","","","",""
"survey-multi-choice","69","1935999","0.0-7.0-2.0-3.0-0.5","01d92d17ed0ea9d99d2bac6381808c7ee69318be66dd3daf29c6bf4568786f8d","swim","arctic","5357","","<b>How many sponsorships did the narrator receive to support her expedition?</b>","","","","1","arctic-comprehension","","","","","","","","","","","","","{""Q0"":""None""}","","","",""
"survey-multi-choice","70","1942710","0.0-7.0-2.0-3.0-0.6","01d92d17ed0ea9d99d2bac6381808c7ee69318be66dd3daf29c6bf4568786f8d","swim","arctic","6459","","<b>What were the weather conditions in the Arctic like the winter of the narrator&#39;s expedition?</b>","","","","1","arctic-comprehension","","","","","","","","","","","","","{""Q0"":""There were more storms than any other winter in recorded history.""}","","","",""
"survey-multi-choice","71","1948538","0.0-7.0-2.0-3.0-0.7","01d92d17ed0ea9d99d2bac6381808c7ee69318be66dd3daf29c6bf4568786f8d","swim","arctic","5575","","<b>How did the narrator&#39;s encounter with the polar bears end?</b>","","","","1","arctic-comprehension","","","","","","","","","","","","","{""Q0"":""The bears walked back to their den.""}","","","",""
"survey-multi-choice","72","1952401","0.0-7.0-2.0-3.0-0.8","01d92d17ed0ea9d99d2bac6381808c7ee69318be66dd3daf29c6bf4568786f8d","swim","arctic","3610","","<b>How did the dogs respond when they saw the bears?</b>","","","","0","arctic-comprehension","","","","","","","","","","","","","{""Q0"":""Barked aggressively""}","","","",""
"survey-multi-choice","73","1956151","0.0-7.0-2.0-3.0-0.9","01d92d17ed0ea9d99d2bac6381808c7ee69318be66dd3daf29c6bf4568786f8d","swim","arctic","3497","","<b>What did the narrator do for leisure while in her tent?</b>","","","","1","arctic-comprehension","","","","","","","","","","","","","{""Q0"":""Read""}","","","",""
"html-button-response","74","1957210","0.0-7.0-2.0-4.0","01d92d17ed0ea9d99d2bac6381808c7ee69318be66dd3daf29c6bf4568786f8d","swim","arctic","809","","<p>Thank you for your responses.</p><p>You will now answer some questions about your impressions of the story.</p>","0","","","","","","","","","","","","","","","","","","","","",""
"html-button-response","75","1958705","0.0-7.0-2.0-5.0-0.0","01d92d17ed0ea9d99d2bac6381808c7ee69318be66dd3daf29c6bf4568786f8d","swim","arctic","1494","","E8","4","","","","arctic-engagement","","","","","","","","","","","","","","5","enjoyment","",""
"html-button-response","76","1959704","0.0-7.0-2.0-5.0-0.1","01d92d17ed0ea9d99d2bac6381808c7ee69318be66dd3daf29c6bf4568786f8d","swim","arctic","749","","A5","3","","","","arctic-engagement","","","","","","","","","","","","","","4","absorption","",""
"html-button-response","77","1961760","0.0-7.0-2.0-5.0-0.2","01d92d17ed0ea9d99d2bac6381808c7ee69318be66dd3daf29c6bf4568786f8d","swim","arctic","1803","","E10","1","","","","arctic-engagement","","","","","","","","","","","","","","2","enjoyment","",""
"html-button-response","78","1963923","0.0-7.0-2.0-5.0-0.3","01d92d17ed0ea9d99d2bac6381808c7ee69318be66dd3daf29c6bf4568786f8d","swim","arctic","1901","","MS3","0","","","","arctic-engagement","","","","","","","","","","","","","","1","mental-sim","",""
"html-button-response","79","1965793","0.0-7.0-2.0-5.0-0.4","01d92d17ed0ea9d99d2bac6381808c7ee69318be66dd3daf29c6bf4568786f8d","swim","arctic","1619","","MS2","0","","","","arctic-engagement","","","","","","","","","","","","","","1","mental-sim","",""
"html-button-response","80","1967099","0.0-7.0-2.0-5.0-0.5","01d92d17ed0ea9d99d2bac6381808c7ee69318be66dd3daf29c6bf4568786f8d","swim","arctic","1054","","EE4","0","","","","arctic-engagement","","","","","","","","","","","","","","1","emo-engage","",""
"html-button-response","81","1968167","0.0-7.0-2.0-5.0-0.6","01d92d17ed0ea9d99d2bac6381808c7ee69318be66dd3daf29c6bf4568786f8d","swim","arctic","809","","E6","0","","","","arctic-engagement","","","","","","","","","","","","","","1","enjoyment","",""
"html-button-response","82","1969373","0.0-7.0-2.0-5.0-0.7","01d92d17ed0ea9d99d2bac6381808c7ee69318be66dd3daf29c6bf4568786f8d","swim","arctic","954","","E1","0","","","","arctic-engagement","","","","","","","","","","","","","","1","enjoyment","",""
"html-button-response","83","1970703","0.0-7.0-2.0-5.0-0.8","01d92d17ed0ea9d99d2bac6381808c7ee69318be66dd3daf29c6bf4568786f8d","swim","arctic","1077","","E7","0","","","","arctic-engagement","","","","","","","","","","","","","","1","enjoyment","",""
"html-button-response","84","1972799","0.0-7.0-2.0-5.0-0.9","01d92d17ed0ea9d99d2bac6381808c7ee69318be66dd3daf29c6bf4568786f8d","swim","arctic","1844","","EE1","0","","","","arctic-engagement","","","","","","","","","","","","","","1","emo-engage","",""
"html-button-response","85","1974079","0.0-7.0-2.0-5.0-0.10","01d92d17ed0ea9d99d2bac6381808c7ee69318be66dd3daf29c6bf4568786f8d","swim","arctic","1029","","EE3","0","","","","arctic-engagement","","","","","","","","","","","","","","1","emo-engage","",""
"html-button-response","86","1975220","0.0-7.0-2.0-5.0-0.11","01d92d17ed0ea9d99d2bac6381808c7ee69318be66dd3daf29c6bf4568786f8d","swim","arctic","889","","EE5","0","","","","arctic-engagement","","","","","","","","","","","","","","1","emo-engage","",""
"html-button-response","87","1976919","0.0-7.0-2.0-5.0-0.12","01d92d17ed0ea9d99d2bac6381808c7ee69318be66dd3daf29c6bf4568786f8d","swim","arctic","1448","","MS1","0","","","","arctic-engagement","","","","","","","","","","","","","","1","mental-sim","",""
"html-button-response","88","1980126","0.0-7.0-2.0-5.0-0.13","01d92d17ed0ea9d99d2bac6381808c7ee69318be66dd3daf29c6bf4568786f8d","swim","arctic","2955","","A1","3","","","","arctic-engagement","","","","","","","","","","","","","","4","absorption","",""
"html-button-response","89","1982271","0.0-7.0-2.0-5.0-0.14","01d92d17ed0ea9d99d2bac6381808c7ee69318be66dd3daf29c6bf4568786f8d","swim","arctic","1892","","EE2","1","","","","arctic-engagement","","","","","","","","","","","","","","2","emo-engage","",""
"html-button-response","90","1983760","0.0-7.0-2.0-5.0-0.15","01d92d17ed0ea9d99d2bac6381808c7ee69318be66dd3daf29c6bf4568786f8d","swim","arctic","1237","","A4","0","","","","arctic-engagement","","","","","","","","","","","","","","1","absorption","",""
"html-button-response","91","1984725","0.0-7.0-2.0-5.0-0.16","01d92d17ed0ea9d99d2bac6381808c7ee69318be66dd3daf29c6bf4568786f8d","swim","arctic","714","","A3","0","","","","arctic-engagement","","","","","","","","","","","","","","1","absorption","",""
"html-button-response","92","1986036","0.0-7.0-2.0-5.0-0.17","01d92d17ed0ea9d99d2bac6381808c7ee69318be66dd3daf29c6bf4568786f8d","swim","arctic","1060","","A2","0","","","","arctic-engagement","","","","","","","","","","","","","","1","absorption","",""
"html-button-response","93","1987493","0.0-8.0","01d92d17ed0ea9d99d2bac6381808c7ee69318be66dd3daf29c6bf4568786f8d","swim","arctic","1204","","<p>Thank you for your responses.</p><p>You will now answer some demographic, hearing, and general health questions.</p>","0","","","","","","","","","","","","","","","","","","","","",""
"survey-multi-choice","94","1989554","0.0-9.0-0.0","01d92d17ed0ea9d99d2bac6381808c7ee69318be66dd3daf29c6bf4568786f8d","swim","arctic","2058","","","","","","","survey","","","","","","","","","","","","","{""Q0"":""Chrome""}","","","browser",""
"survey-text","95","1992051","0.0-9.0-1.0","01d92d17ed0ea9d99d2bac6381808c7ee69318be66dd3daf29c6bf4568786f8d","swim","arctic","2244.0999999940395","","","","","","","survey","","","","","","","","","","","","","{""AGE"":""32""}","","","age","32"
"survey-multi-choice","96","1994604","0.0-9.0-2.0","01d92d17ed0ea9d99d2bac6381808c7ee69318be66dd3daf29c6bf4568786f8d","swim","arctic","2300","","","","","","","survey","","","","","","","","","","","","","{""Q0"":""Female""}","","","gender","Female"
"survey-multi-choice","97","1996124","0.0-9.0-4.0","01d92d17ed0ea9d99d2bac6381808c7ee69318be66dd3daf29c6bf4568786f8d","swim","arctic","1267","","","","","","","survey","","","","","","","","","","","","","{""Q0"":""Right""}","","","handedness","Right"
"survey-multi-choice","98","1998169","0.0-9.0-5.0","01d92d17ed0ea9d99d2bac6381808c7ee69318be66dd3daf29c6bf4568786f8d","swim","arctic","1793","","","","","","","survey","","","","","","","","","","","","","{""Q0"":""Bachelor's Degree""}","","","education","Bachelor's Degree"
"survey-text","99","2003624","0.0-10.0-0.0","01d92d17ed0ea9d99d2bac6381808c7ee69318be66dd3daf29c6bf4568786f8d","swim","arctic","5202.399999976158","","","","","","","survey","","","","","","","","","","","","","{""L1"":""english""}","","","first-language","english"
"survey-text","100","2007286","0.0-10.0-1.0","01d92d17ed0ea9d99d2bac6381808c7ee69318be66dd3daf29c6bf4568786f8d","swim","arctic","3404.4000000059605","","","","","","","survey","","","","","","","","","","","","","{""L2name"":"""",""L2fluency"":"""",""L3name"":"""",""L3fluency"":"""",""L4name"":"""",""L4fluency"":""""}","","","additional-languages","{""L2name"":"""",""L2fluency"":"""",""L3name"":"""",""L3fluency"":"""",""L4name"":"""",""L4fluency"":""""}"
"survey-multi-choice","101","2010161","0.0-10.0-2.0","01d92d17ed0ea9d99d2bac6381808c7ee69318be66dd3daf29c6bf4568786f8d","swim","arctic","2621","","","","","","","survey","","","","","","","","","","","","","{""Q0"":""No""}","","","hearing-aid","No"
"survey-multi-choice","102","2014529","0.0-10.0-3.0","01d92d17ed0ea9d99d2bac6381808c7ee69318be66dd3daf29c6bf4568786f8d","swim","arctic","4116","","","","","","","survey","","","","","","","","","","","","","{""Q0"":""Sometimes""}","","","ringing-ears","Sometimes"
"survey-multi-choice","103","2017201","0.0-10.0-4.0-0.0","01d92d17ed0ea9d99d2bac6381808c7ee69318be66dd3daf29c6bf4568786f8d","swim","arctic","2418","","","","","","","survey","","","","","","","","","","","","","{""Q0"":""Both Ears""}","","","ringing-ear-loc","Both Ears"
"survey-multi-choice","104","2019476","0.0-10.0-5.0","01d92d17ed0ea9d99d2bac6381808c7ee69318be66dd3daf29c6bf4568786f8d","swim","arctic","2023","","","","","","","survey","","","","","","","","","","","","","{""Q0"":""No""}","","","neuro-disease","No"
"survey-multi-choice","105","2022636","0.0-10.0-7.0","01d92d17ed0ea9d99d2bac6381808c7ee69318be66dd3daf29c6bf4568786f8d","swim","arctic","2907","","","","","","","survey","","","","","","","","","","","","","{""Q0"":""Yes""}","","","take-meds","Yes"
"survey-text","106","2034128","0.0-10.0-8.0-0.0","01d92d17ed0ea9d99d2bac6381808c7ee69318be66dd3daf29c6bf4568786f8d","swim","arctic","11241","","","","","","","survey","","","","","","","","","","","","","{""MED"":""seroquel, metformin""}","","","take-meds-clarify","seroquel, metformin"
"survey-text","107","2036828","0.0-10.0-9.0","01d92d17ed0ea9d99d2bac6381808c7ee69318be66dd3daf29c6bf4568786f8d","swim","arctic","2436.7999999821186","","","","","","","survey","","","","","","","","","","","","","{""HC"":""""}","","","health-concerns",""
"html-button-response","108","2039939","0.0-11.0-0.0","01d92d17ed0ea9d99d2bac6381808c7ee69318be66dd3daf29c6bf4568786f8d","swim","arctic","2860","","<p>How would you describe your musical skills/experiences?</p>","5","","","","survey","","","","","","","","","","","","","","","","music-skill","6"
"survey-multi-choice","109","2041982","0.0-11.0-1.0","01d92d17ed0ea9d99d2bac6381808c7ee69318be66dd3daf29c6bf4568786f8d","swim","arctic","1790","","","","","","","survey","","","","","","","","","","","","","{""Q0"":""Yes""}","","","music-instrument","Yes"
"survey-text","110","2044004","0.0-11.0-2.0-0.0","01d92d17ed0ea9d99d2bac6381808c7ee69318be66dd3daf29c6bf4568786f8d","swim","arctic","1768.800000011921","","","","","","","survey","","","","","","","","","","","","","{""MEXP"":""15""}","","","music-training-yrs","15"
"html-button-response","111","2046795","0.0-12.0-0.0","01d92d17ed0ea9d99d2bac6381808c7ee69318be66dd3daf29c6bf4568786f8d","swim","arctic","2540","","<p>How would you describe your general hearing abilities?</p>","4","","","","survey","","","","","","","","","","","","","","","","ssq-01","5"
"html-button-response","112","2050699","0.0-12.0-1.0","01d92d17ed0ea9d99d2bac6381808c7ee69318be66dd3daf29c6bf4568786f8d","swim","arctic","3652","","<p>When you talk with someone at a place that strongly reverberates/echoes (e.g., in a church or train station),</br>can you understand what the person says?</p>","5","","","","survey","","","","","","","","","","","","","","","","ssq-02","5"
"html-button-response","113","2053470","0.0-12.0-2.0","01d92d17ed0ea9d99d2bac6381808c7ee69318be66dd3daf29c6bf4568786f8d","swim","arctic","2519","","<p>When you are with a group (~5 people) in a lively restaurant, can you follow the group's conversation?</p>","5","","","","survey","","","","","","","","","","","","","","","","ssq-03","5"
"html-button-response","114","2055937","0.0-12.0-3.0","01d92d17ed0ea9d99d2bac6381808c7ee69318be66dd3daf29c6bf4568786f8d","swim","arctic","2216","","<p>Based on the sound of a bus or truck, can you tell whether it is moving towards or away from you?</p>","7","","","","survey","","","","","","","","","","","","","","","","ssq-04","7"
"html-button-response","115","2058508","0.0-12.0-4.0","01d92d17ed0ea9d99d2bac6381808c7ee69318be66dd3daf29c6bf4568786f8d","swim","arctic","2318","","<p>When you are in an unknown environment, can you tell from which direction a brief sound originates?</p>","6","","","","survey","","","","","","","","","","","","","","","","ssq-05","6"
"html-button-response","116","2061982","0.0-12.0-5.0","01d92d17ed0ea9d99d2bac6381808c7ee69318be66dd3daf29c6bf4568786f8d","swim","arctic","3222","","<p>Are you able to ignore distracting sounds when you concentrate on a specific aspect of your acoustic surrounding?</p>","4","","","","survey","","","","","","","","","","","","","","","","ssq-06","4"
"fullscreen","117","2063235","0.0-13.0","01d92d17ed0ea9d99d2bac6381808c7ee69318be66dd3daf29c6bf4568786f8d","swim","arctic","","","","","","","","","true","","","","","","","","","","","","","","","",""
