"trial_type","trial_index","time_elapsed","internal_node_id","ParticipantID","firstStory","scramStory","rt","url","stimulus","button_pressed","key_press","correctRESP","correct","designation","success","letterStim","letterType","ONSET","TIMEOUT","CONDITION","Participant","ONSET_ACTUAL","RT","RESP","ACC","STORY","responses","response","type","surveyQuestion","QRESP"
"pavlovia","0","18","0.0-0.0","01d92d17ed0ea9d99d2bac6381808c7ee69318be66dd3daf29c6bf4568786f8d","arctic","arctic","","","","","","","","","","","","","","","","","","","","","","","","",""
"external-html","1","7032","0.0-1.0","01d92d17ed0ea9d99d2bac6381808c7ee69318be66dd3daf29c6bf4568786f8d","arctic","arctic","6468","consent/consent_updated.html","","","","","","","","","","","","","","","","","","","","","","",""
"html-button-response","2","10911","0.0-2.0-0.0","01d92d17ed0ea9d99d2bac6381808c7ee69318be66dd3daf29c6bf4568786f8d","arctic","arctic","3876","","<p>Before we begin the main task, you will complete a short volume calibration and headphone check.</p><p>Please make sure you are in a quiet listening environment, that you are wearing headphones, and that your computer's volume is turned on.<p></p>","0","","","","","","","","","","","","","","","","","","","","",""
"html-button-response","3","13196","0.0-2.0-1.0","01d92d17ed0ea9d99d2bac6381808c7ee69318be66dd3daf29c6bf4568786f8d","arctic","arctic","2034","","<p>The volume calibration will be first.</p><p>You will hear a thirty-second noise. Please adjust your computer's volume so that this noise is being presented at a comfortable level.<p></p>","0","","","","","","","","","","","","","","","","","","","","",""
"audio-button-response","4","16437","0.0-2.0-2.0","01d92d17ed0ea9d99d2bac6381808c7ee69318be66dd3daf29c6bf4568786f8d","arctic","arctic","2981","","audio/volumetest.mp3","0","","","","","","","","","","","","","","","","","","","","",""
"html-keyboard-response","5","19421","0.0-3.0-0.0","01d92d17ed0ea9d99d2bac6381808c7ee69318be66dd3daf29c6bf4568786f8d","arctic","arctic","2983","","<p>You will now complete a short headphone check.</p><p>On each trial, you will hear three tones. One of these tones will be quieter than the others. Your task is to identify whether the quiet tone occurred first, second, or third.</p><p>There are six trials in total.<p></p><p></p>(Press SPACEBAR to begin)","","32","","","","","","","","","","","","","","","","","","","",""
"html-keyboard-response","6","20178","0.0-3.0-1.0-0.0","01d92d17ed0ea9d99d2bac6381808c7ee69318be66dd3daf29c6bf4568786f8d","arctic","arctic","null","","<div style=""font-size:60px;"">+</div>","","null","","","","","","","","","","","","","","","","","","","",""
"audio-button-response","7","35330","0.0-3.0-1.0-1.0","01d92d17ed0ea9d99d2bac6381808c7ee69318be66dd3daf29c6bf4568786f8d","arctic","arctic","15149","","audio/t1_1.mp3","0","","0","1","headphone-test","","","","","","","","","","","","","","","","",""
"html-keyboard-response","8","35833","0.0-3.0-1.0-2.0","01d92d17ed0ea9d99d2bac6381808c7ee69318be66dd3daf29c6bf4568786f8d","arctic","arctic","null","","<p>Correct</p>","","null","","","","","","","","","","","","","","","","","","","",""
"html-keyboard-response","9","36334","0.0-3.0-1.0-0.1","01d92d17ed0ea9d99d2bac6381808c7ee69318be66dd3daf29c6bf4568786f8d","arctic","arctic","null","","<div style=""font-size:60px;"">+</div>","","null","","","","","","","","","","","","","","","","","","","",""
"audio-button-response","10","45035","0.0-3.0-1.0-1.1","01d92d17ed0ea9d99d2bac6381808c7ee69318be66dd3daf29c6bf4568786f8d","arctic","arctic","8699","","audio/t2_1.mp3","0","","1","0","headphone-test","","","","","","","","","","","","","","","","",""
"html-keyboard-response","11","45537","0.0-3.0-1.0-2.1","01d92d17ed0ea9d99d2bac6381808c7ee69318be66dd3daf29c6bf4568786f8d","arctic","arctic","null","","<p>Incorrect</p>","","null","","","","","","","","","","","","","","","","","","","",""
"html-keyboard-response","12","46037","0.0-3.0-1.0-0.2","01d92d17ed0ea9d99d2bac6381808c7ee69318be66dd3daf29c6bf4568786f8d","arctic","arctic","null","","<div style=""font-size:60px;"">+</div>","","null","","","","","","","","","","","","","","","","","","","",""
"audio-button-response","13","50253","0.0-3.0-1.0-1.2","01d92d17ed0ea9d99d2bac6381808c7ee69318be66dd3daf29c6bf4568786f8d","arctic","arctic","4214","","audio/t3_2.mp3","1","","2","0","headphone-test","","","","","","","","","","","","","","","","",""
"html-keyboard-response","14","50755","0.0-3.0-1.0-2.2","01d92d17ed0ea9d99d2bac6381808c7ee69318be66dd3daf29c6bf4568786f8d","arctic","arctic","null","","<p>Incorrect</p>","","null","","","","","","","","","","","","","","","","","","","",""
"html-keyboard-response","15","51257","0.0-3.0-1.0-0.3","01d92d17ed0ea9d99d2bac6381808c7ee69318be66dd3daf29c6bf4568786f8d","arctic","arctic","null","","<div style=""font-size:60px;"">+</div>","","null","","","","","","","","","","","","","","","","","","","",""
"audio-button-response","16","67391","0.0-3.0-1.0-1.3","01d92d17ed0ea9d99d2bac6381808c7ee69318be66dd3daf29c6bf4568786f8d","arctic","arctic","16132","","audio/t2_2.mp3","2","","1","0","headphone-test","","","","","","","","","","","","","","","","",""
"html-keyboard-response","17","67893","0.0-3.0-1.0-2.3","01d92d17ed0ea9d99d2bac6381808c7ee69318be66dd3daf29c6bf4568786f8d","arctic","arctic","null","","<p>Incorrect</p>","","null","","","","","","","","","","","","","","","","","","","",""
"html-keyboard-response","18","68394","0.0-3.0-1.0-0.4","01d92d17ed0ea9d99d2bac6381808c7ee69318be66dd3daf29c6bf4568786f8d","arctic","arctic","null","","<div style=""font-size:60px;"">+</div>","","null","","","","","","","","","","","","","","","","","","","",""
"audio-button-response","19","72646","0.0-3.0-1.0-1.4","01d92d17ed0ea9d99d2bac6381808c7ee69318be66dd3daf29c6bf4568786f8d","arctic","arctic","4247","","audio/t1_2.mp3","0","","0","1","headphone-test","","","","","","","","","","","","","","","","",""
"html-keyboard-response","20","73148","0.0-3.0-1.0-2.4","01d92d17ed0ea9d99d2bac6381808c7ee69318be66dd3daf29c6bf4568786f8d","arctic","arctic","null","","<p>Correct</p>","","null","","","","","","","","","","","","","","","","","","","",""
"html-keyboard-response","21","73650","0.0-3.0-1.0-0.5","01d92d17ed0ea9d99d2bac6381808c7ee69318be66dd3daf29c6bf4568786f8d","arctic","arctic","null","","<div style=""font-size:60px;"">+</div>","","null","","","","","","","","","","","","","","","","","","","",""
"audio-button-response","22","77617","0.0-3.0-1.0-1.5","01d92d17ed0ea9d99d2bac6381808c7ee69318be66dd3daf29c6bf4568786f8d","arctic","arctic","3964","","audio/t3_1.mp3","2","","2","1","headphone-test","","","","","","","","","","","","","","","","",""
"html-keyboard-response","23","78119","0.0-3.0-1.0-2.5","01d92d17ed0ea9d99d2bac6381808c7ee69318be66dd3daf29c6bf4568786f8d","arctic","arctic","null","","<p>Correct</p>","","null","","","","","","","","","","","","","","","","","","","",""
"fullscreen","24","80256","0.0-4.0","01d92d17ed0ea9d99d2bac6381808c7ee69318be66dd3daf29c6bf4568786f8d","arctic","arctic","","","","","","","","","true","","","","","","","","","","","","","","","",""
"html-button-response","25","83823","0.0-5.0-0.0","01d92d17ed0ea9d99d2bac6381808c7ee69318be66dd3daf29c6bf4568786f8d","arctic","arctic","3565","","<p>There are two blocks to this experiment.</p><p>In each block, you will hear a ~13.5 minute story. One of the stories will be scrambled. Please listen carefully to both stories and understand them as best you can.</p><p>After each story, you will be asked some questions to assess your comprehension.</p>","0","","","","","","","","","","","","","","","","","","","","",""
"html-button-response","26","106024","0.0-5.0-1.0","01d92d17ed0ea9d99d2bac6381808c7ee69318be66dd3daf29c6bf4568786f8d","arctic","arctic","22200","","<p>During each story, there will be an additional task.</p><p>A letter will occasionally appear on the screen.</br>Your job is to - as quickly as you can - decide whether the letter is lowercase or uppercase and press one of two keys on the keyboard:</p><p>If the letter is <b>lowercase</b>, press key &lt;<b>x</b>&gt;.</p><p>If the letter is <b>uppercase</b>, press key &lt;<b>m</b>&gt;.</p>","0","","","","","","","","","","","","","","","","","","","","",""
"html-keyboard-response","27","115844","0.0-5.0-2.0","01d92d17ed0ea9d99d2bac6381808c7ee69318be66dd3daf29c6bf4568786f8d","arctic","arctic","9819","","<p>Because we want your responses to be as quick as possible, please keep your index fingers over the keys while listening.</p><p>Each block lasts about 20 minutes.</p><p><b>Press &lt;x&gt; or &lt;m&gt; to start the first block!</b></p>","","77","","","","","","","","","","","","","","","","","","","",""
"html-keyboard-response","28","116346","0.0-6.0-0.0-0.0","01d92d17ed0ea9d99d2bac6381808c7ee69318be66dd3daf29c6bf4568786f8d","arctic","arctic","null","","<div style=""font-size:60px;"" tabindex=""0"">+</div>","","null","","","","","","","","","","","","","","","","","","","",""
"dual-task","null","null","null","","arctic","arctic","440.29999999701977","","d","null","77","88","0","arctic-dual-task","","d","lowercase","14000","0","3","01d92d17ed0ea9d99d2bac6381808c7ee69318be66dd3daf29c6bf4568786f8d","13999.60000000149","440.29999999701977","77","0","arctic","","","","",""
"dual-task","null","null","null","","arctic","arctic","404","","E","null","77","77","1","arctic-dual-task","","E","uppercase","28000","0","3","01d92d17ed0ea9d99d2bac6381808c7ee69318be66dd3daf29c6bf4568786f8d","27999.10000000149","404","77","1","arctic","","","","",""
"dual-task","null","null","null","","arctic","arctic","525.8999999985099","","R","null","77","77","1","arctic-dual-task","","R","uppercase","38000","0","3","01d92d17ed0ea9d99d2bac6381808c7ee69318be66dd3daf29c6bf4568786f8d","37998.90000000596","525.8999999985099","77","1","arctic","","","","",""
"dual-task","null","null","null","","arctic","arctic","618.3999999985099","","A","null","77","77","1","arctic-dual-task","","A","uppercase","50000","0","3","01d92d17ed0ea9d99d2bac6381808c7ee69318be66dd3daf29c6bf4568786f8d","50002.20000000298","618.3999999985099","77","1","arctic","","","","",""
"dual-task","null","null","null","","arctic","arctic","506.19999999552965","","a","null","88","88","1","arctic-dual-task","","a","lowercase","58000","0","3","01d92d17ed0ea9d99d2bac6381808c7ee69318be66dd3daf29c6bf4568786f8d","58001.70000000298","506.19999999552965","88","1","arctic","","","","",""
"dual-task","null","null","null","","arctic","arctic","593.2999999970198","","h","null","88","88","1","arctic-dual-task","","h","lowercase","70000","0","3","01d92d17ed0ea9d99d2bac6381808c7ee69318be66dd3daf29c6bf4568786f8d","69998.90000000596","593.2999999970198","88","1","arctic","","","","",""
"dual-task","null","null","null","","arctic","arctic","462.3999999985099","","n","null","88","88","1","arctic-dual-task","","n","lowercase","84000","0","3","01d92d17ed0ea9d99d2bac6381808c7ee69318be66dd3daf29c6bf4568786f8d","83999.20000000298","462.3999999985099","88","1","arctic","","","","",""
"dual-task","null","null","null","","arctic","arctic","472.1000000014901","","D","null","77","77","1","arctic-dual-task","","D","uppercase","98000","0","3","01d92d17ed0ea9d99d2bac6381808c7ee69318be66dd3daf29c6bf4568786f8d","97999","472.1000000014901","77","1","arctic","","","","",""
"dual-task","null","null","null","","arctic","arctic","546.2999999970198","","h","null","88","88","1","arctic-dual-task","","h","lowercase","112000","0","3","01d92d17ed0ea9d99d2bac6381808c7ee69318be66dd3daf29c6bf4568786f8d","112001.5","546.2999999970198","88","1","arctic","","","","",""
"dual-task","null","null","null","","arctic","arctic","471.5","","D","null","77","77","1","arctic-dual-task","","D","uppercase","120000","0","3","01d92d17ed0ea9d99d2bac6381808c7ee69318be66dd3daf29c6bf4568786f8d","120003.30000000447","471.5","77","1","arctic","","","","",""
"dual-task","null","null","null","","arctic","arctic","530.1999999955297","","e","null","88","88","1","arctic-dual-task","","e","lowercase","132000","0","3","01d92d17ed0ea9d99d2bac6381808c7ee69318be66dd3daf29c6bf4568786f8d","131999.1000000015","530.1999999955297","88","1","arctic","","","","",""
"dual-task","null","null","null","","arctic","arctic","522.3999999985099","","B","null","77","77","1","arctic-dual-task","","B","uppercase","146000","0","3","01d92d17ed0ea9d99d2bac6381808c7ee69318be66dd3daf29c6bf4568786f8d","145998.90000000596","522.3999999985099","77","1","arctic","","","","",""
"dual-task","null","null","null","","arctic","arctic","575.5","","e","null","88","88","1","arctic-dual-task","","e","lowercase","154000","0","3","01d92d17ed0ea9d99d2bac6381808c7ee69318be66dd3daf29c6bf4568786f8d","153998.90000000596","575.5","88","1","arctic","","","","",""
"dual-task","null","null","null","","arctic","arctic","459.5","","E","null","77","77","1","arctic-dual-task","","E","uppercase","164000","0","3","01d92d17ed0ea9d99d2bac6381808c7ee69318be66dd3daf29c6bf4568786f8d","163999.1000000015","459.5","77","1","arctic","","","","",""
"dual-task","null","null","null","","arctic","arctic","434.79999999701977","","T","null","77","77","1","arctic-dual-task","","T","uppercase","178000","0","3","01d92d17ed0ea9d99d2bac6381808c7ee69318be66dd3daf29c6bf4568786f8d","178003","434.79999999701977","77","1","arctic","","","","",""
"dual-task","null","null","null","","arctic","arctic","476.8999999985099","","d","null","77","88","0","arctic-dual-task","","d","lowercase","186000","0","3","01d92d17ed0ea9d99d2bac6381808c7ee69318be66dd3daf29c6bf4568786f8d","185999.1000000015","476.8999999985099","77","0","arctic","","","","",""
"dual-task","null","null","null","","arctic","arctic","493.5","","E","null","77","77","1","arctic-dual-task","","E","uppercase","200000","0","3","01d92d17ed0ea9d99d2bac6381808c7ee69318be66dd3daf29c6bf4568786f8d","199998.90000000596","493.5","77","1","arctic","","","","",""
"dual-task","null","null","null","","arctic","arctic","528.1999999955297","","g","null","88","88","1","arctic-dual-task","","g","lowercase","212000","0","3","01d92d17ed0ea9d99d2bac6381808c7ee69318be66dd3daf29c6bf4568786f8d","211999.1000000015","528.1999999955297","88","1","arctic","","","","",""
"dual-task","null","null","null","","arctic","arctic","784.0999999940395","","H","null","77","77","1","arctic-dual-task","","H","uppercase","220000","0","3","01d92d17ed0ea9d99d2bac6381808c7ee69318be66dd3daf29c6bf4568786f8d","219999.1000000015","784.0999999940395","77","1","arctic","","","","",""
"dual-task","null","null","null","","arctic","arctic","776.6999999955297","","A","null","77","77","1","arctic-dual-task","","A","uppercase","234000","0","3","01d92d17ed0ea9d99d2bac6381808c7ee69318be66dd3daf29c6bf4568786f8d","233999.1000000015","776.6999999955297","77","1","arctic","","","","",""
"dual-task","null","null","null","","arctic","arctic","503.70000000298023","","F","null","77","77","1","arctic-dual-task","","F","uppercase","246000","0","3","01d92d17ed0ea9d99d2bac6381808c7ee69318be66dd3daf29c6bf4568786f8d","246003.40000000596","503.70000000298023","77","1","arctic","","","","",""
"dual-task","null","null","null","","arctic","arctic","562.8999999985099","","q","null","88","88","1","arctic-dual-task","","q","lowercase","256000","0","3","01d92d17ed0ea9d99d2bac6381808c7ee69318be66dd3daf29c6bf4568786f8d","255999","562.8999999985099","88","1","arctic","","","","",""
"dual-task","null","null","null","","arctic","arctic","587.1000000014901","","b","null","88","88","1","arctic-dual-task","","b","lowercase","264000","0","3","01d92d17ed0ea9d99d2bac6381808c7ee69318be66dd3daf29c6bf4568786f8d","264002.30000000447","587.1000000014901","88","1","arctic","","","","",""
"dual-task","null","null","null","","arctic","arctic","524.8999999985099","","e","null","88","88","1","arctic-dual-task","","e","lowercase","274000","0","3","01d92d17ed0ea9d99d2bac6381808c7ee69318be66dd3daf29c6bf4568786f8d","273999.1000000015","524.8999999985099","88","1","arctic","","","","",""
"dual-task","null","null","null","","arctic","arctic","507.59999999403954","","D","null","77","77","1","arctic-dual-task","","D","uppercase","286000","0","3","01d92d17ed0ea9d99d2bac6381808c7ee69318be66dd3daf29c6bf4568786f8d","285999.200000003","507.59999999403954","77","1","arctic","","","","",""
"dual-task","null","null","null","","arctic","arctic","566.5","","t","null","88","88","1","arctic-dual-task","","t","lowercase","296000","0","3","01d92d17ed0ea9d99d2bac6381808c7ee69318be66dd3daf29c6bf4568786f8d","295999","566.5","88","1","arctic","","","","",""
"dual-task","null","null","null","","arctic","arctic","554.3999999985099","","G","null","77","77","1","arctic-dual-task","","G","uppercase","306000","0","3","01d92d17ed0ea9d99d2bac6381808c7ee69318be66dd3daf29c6bf4568786f8d","305999.1000000015","554.3999999985099","77","1","arctic","","","","",""
"dual-task","null","null","null","","arctic","arctic","511.59999999403954","","g","null","88","88","1","arctic-dual-task","","g","lowercase","314000","0","3","01d92d17ed0ea9d99d2bac6381808c7ee69318be66dd3daf29c6bf4568786f8d","313999.1000000015","511.59999999403954","88","1","arctic","","","","",""
"dual-task","null","null","null","","arctic","arctic","479.8999999985099","","A","null","88","77","0","arctic-dual-task","","A","uppercase","326000","0","3","01d92d17ed0ea9d99d2bac6381808c7ee69318be66dd3daf29c6bf4568786f8d","325999.1000000015","479.8999999985099","88","0","arctic","","","","",""
"dual-task","null","null","null","","arctic","arctic","561.1999999955297","","N","null","77","77","1","arctic-dual-task","","N","uppercase","334000","0","3","01d92d17ed0ea9d99d2bac6381808c7ee69318be66dd3daf29c6bf4568786f8d","333999.1000000015","561.1999999955297","77","1","arctic","","","","",""
"dual-task","null","null","null","","arctic","arctic","546.8999999985099","","T","null","77","77","1","arctic-dual-task","","T","uppercase","346000","0","3","01d92d17ed0ea9d99d2bac6381808c7ee69318be66dd3daf29c6bf4568786f8d","345999.200000003","546.8999999985099","77","1","arctic","","","","",""
"dual-task","null","null","null","","arctic","arctic","584.2999999970198","","t","null","88","88","1","arctic-dual-task","","t","lowercase","356000","0","3","01d92d17ed0ea9d99d2bac6381808c7ee69318be66dd3daf29c6bf4568786f8d","355999.200000003","584.2999999970198","88","1","arctic","","","","",""
"dual-task","null","null","null","","arctic","arctic","505.29999999701977","","G","null","77","77","1","arctic-dual-task","","G","uppercase","366000","0","3","01d92d17ed0ea9d99d2bac6381808c7ee69318be66dd3daf29c6bf4568786f8d","365999.200000003","505.29999999701977","77","1","arctic","","","","",""
"dual-task","null","null","null","","arctic","arctic","511","","N","null","77","77","1","arctic-dual-task","","N","uppercase","376000","0","3","01d92d17ed0ea9d99d2bac6381808c7ee69318be66dd3daf29c6bf4568786f8d","375999.80000000447","511","77","1","arctic","","","","",""
"dual-task","null","null","null","","arctic","arctic","639.8999999985099","","f","null","88","88","1","arctic-dual-task","","f","lowercase","386000","0","3","01d92d17ed0ea9d99d2bac6381808c7ee69318be66dd3daf29c6bf4568786f8d","386004.40000000596","639.8999999985099","88","1","arctic","","","","",""
"dual-task","null","null","null","","arctic","arctic","617.1000000014901","","T","null","77","77","1","arctic-dual-task","","T","uppercase","398000","0","3","01d92d17ed0ea9d99d2bac6381808c7ee69318be66dd3daf29c6bf4568786f8d","398004.5","617.1000000014901","77","1","arctic","","","","",""
"dual-task","null","null","null","","arctic","arctic","599","","n","null","88","88","1","arctic-dual-task","","n","lowercase","404000","0","3","01d92d17ed0ea9d99d2bac6381808c7ee69318be66dd3daf29c6bf4568786f8d","403999.200000003","599","88","1","arctic","","","","",""
"dual-task","null","null","null","","arctic","arctic","601.8000000044703","","B","null","77","77","1","arctic-dual-task","","B","uppercase","418000","0","3","01d92d17ed0ea9d99d2bac6381808c7ee69318be66dd3daf29c6bf4568786f8d","418004.30000000447","601.8000000044703","77","1","arctic","","","","",""
"dual-task","null","null","null","","arctic","arctic","1082.8000000044703","","N","null","77","77","1","arctic-dual-task","","N","uppercase","424000","0","3","01d92d17ed0ea9d99d2bac6381808c7ee69318be66dd3daf29c6bf4568786f8d","424004.30000000447","1082.8000000044703","77","1","arctic","","","","",""
"dual-task","null","null","null","","arctic","arctic","562.9000000059605","","G","null","77","77","1","arctic-dual-task","","G","uppercase","436000","0","3","01d92d17ed0ea9d99d2bac6381808c7ee69318be66dd3daf29c6bf4568786f8d","436000.200000003","562.9000000059605","77","1","arctic","","","","",""
"dual-task","null","null","null","","arctic","arctic","705.8999999985099","","b","null","88","88","1","arctic-dual-task","","b","lowercase","446000","0","3","01d92d17ed0ea9d99d2bac6381808c7ee69318be66dd3daf29c6bf4568786f8d","446004.5","705.8999999985099","88","1","arctic","","","","",""
"dual-task","null","null","null","","arctic","arctic","708.8000000044703","","f","null","88","88","1","arctic-dual-task","","f","lowercase","452000","0","3","01d92d17ed0ea9d99d2bac6381808c7ee69318be66dd3daf29c6bf4568786f8d","452000.30000000447","708.8000000044703","88","1","arctic","","","","",""
"dual-task","null","null","null","","arctic","arctic","549.8999999985099","","F","null","77","77","1","arctic-dual-task","","F","uppercase","460000","0","3","01d92d17ed0ea9d99d2bac6381808c7ee69318be66dd3daf29c6bf4568786f8d","459999.90000000596","549.8999999985099","77","1","arctic","","","","",""
"dual-task","null","null","null","","arctic","arctic","536.3000000044703","","R","null","77","77","1","arctic-dual-task","","R","uppercase","468000","0","3","01d92d17ed0ea9d99d2bac6381808c7ee69318be66dd3daf29c6bf4568786f8d","468000","536.3000000044703","77","1","arctic","","","","",""
"dual-task","null","null","null","","arctic","arctic","509.5","","a","null","88","88","1","arctic-dual-task","","a","lowercase","474000","0","3","01d92d17ed0ea9d99d2bac6381808c7ee69318be66dd3daf29c6bf4568786f8d","473999.30000000447","509.5","88","1","arctic","","","","",""
"dual-task","null","null","null","","arctic","arctic","708.6999999955297","","d","null","88","88","1","arctic-dual-task","","d","lowercase","484000","0","3","01d92d17ed0ea9d99d2bac6381808c7ee69318be66dd3daf29c6bf4568786f8d","484003","708.6999999955297","88","1","arctic","","","","",""
"dual-task","null","null","null","","arctic","arctic","667.3000000044703","","q","null","88","88","1","arctic-dual-task","","q","lowercase","498000","0","3","01d92d17ed0ea9d99d2bac6381808c7ee69318be66dd3daf29c6bf4568786f8d","498004.30000000447","667.3000000044703","88","1","arctic","","","","",""
"dual-task","null","null","null","","arctic","arctic","479.70000000298023","","Q","null","77","77","1","arctic-dual-task","","Q","uppercase","504000","0","3","01d92d17ed0ea9d99d2bac6381808c7ee69318be66dd3daf29c6bf4568786f8d","504004.30000000447","479.70000000298023","77","1","arctic","","","","",""
"dual-task","null","null","null","","arctic","arctic","570.6999999955297","","N","null","77","77","1","arctic-dual-task","","N","uppercase","512000","0","3","01d92d17ed0ea9d99d2bac6381808c7ee69318be66dd3daf29c6bf4568786f8d","512004.6000000015","570.6999999955297","77","1","arctic","","","","",""
"dual-task","null","null","null","","arctic","arctic","514.8999999985099","","H","null","77","77","1","arctic-dual-task","","H","uppercase","518000","0","3","01d92d17ed0ea9d99d2bac6381808c7ee69318be66dd3daf29c6bf4568786f8d","518004.1000000015","514.8999999985099","77","1","arctic","","","","",""
"dual-task","null","null","null","","arctic","arctic","512.1000000014901","","H","null","77","77","1","arctic-dual-task","","H","uppercase","528000","0","3","01d92d17ed0ea9d99d2bac6381808c7ee69318be66dd3daf29c6bf4568786f8d","528004.3000000045","512.1000000014901","77","1","arctic","","","","",""
"dual-task","null","null","null","","arctic","arctic","614.7000000029802","","d","null","88","88","1","arctic-dual-task","","d","lowercase","536000","0","3","01d92d17ed0ea9d99d2bac6381808c7ee69318be66dd3daf29c6bf4568786f8d","536000","614.7000000029802","88","1","arctic","","","","",""
"dual-task","null","null","null","","arctic","arctic","528.5","","n","null","88","88","1","arctic-dual-task","","n","lowercase","548000","0","3","01d92d17ed0ea9d99d2bac6381808c7ee69318be66dd3daf29c6bf4568786f8d","548008.3000000045","528.5","88","1","arctic","","","","",""
"dual-task","null","null","null","","arctic","arctic","563.8999999985099","","h","null","88","88","1","arctic-dual-task","","h","lowercase","556000","0","3","01d92d17ed0ea9d99d2bac6381808c7ee69318be66dd3daf29c6bf4568786f8d","556001.6000000015","563.8999999985099","88","1","arctic","","","","",""
"dual-task","null","null","null","","arctic","arctic","499.70000000298023","","t","null","88","88","1","arctic-dual-task","","t","lowercase","568000","0","3","01d92d17ed0ea9d99d2bac6381808c7ee69318be66dd3daf29c6bf4568786f8d","568002.3000000045","499.70000000298023","88","1","arctic","","","","",""
"dual-task","null","null","null","","arctic","arctic","557","","E","null","77","77","1","arctic-dual-task","","E","uppercase","576000","0","3","01d92d17ed0ea9d99d2bac6381808c7ee69318be66dd3daf29c6bf4568786f8d","576005.200000003","557","77","1","arctic","","","","",""
"dual-task","null","null","null","","arctic","arctic","600.0999999940395","","f","null","88","88","1","arctic-dual-task","","f","lowercase","584000","0","3","01d92d17ed0ea9d99d2bac6381808c7ee69318be66dd3daf29c6bf4568786f8d","584003.3000000045","600.0999999940395","88","1","arctic","","","","",""
"dual-task","null","null","null","","arctic","arctic","484.29999999701977","","a","null","88","88","1","arctic-dual-task","","a","lowercase","592000","0","3","01d92d17ed0ea9d99d2bac6381808c7ee69318be66dd3daf29c6bf4568786f8d","592000.5","484.29999999701977","88","1","arctic","","","","",""
"dual-task","null","null","null","","arctic","arctic","617.3999999985099","","r","null","88","88","1","arctic-dual-task","","r","lowercase","600000","0","3","01d92d17ed0ea9d99d2bac6381808c7ee69318be66dd3daf29c6bf4568786f8d","600001.6000000015","617.3999999985099","88","1","arctic","","","","",""
"dual-task","null","null","null","","arctic","arctic","637.1000000014901","","F","null","77","77","1","arctic-dual-task","","F","uppercase","614000","0","3","01d92d17ed0ea9d99d2bac6381808c7ee69318be66dd3daf29c6bf4568786f8d","614004.5","637.1000000014901","77","1","arctic","","","","",""
"dual-task","null","null","null","","arctic","arctic","473","","f","null","77","88","0","arctic-dual-task","","f","lowercase","622000","0","3","01d92d17ed0ea9d99d2bac6381808c7ee69318be66dd3daf29c6bf4568786f8d","622002.700000003","473","77","0","arctic","","","","",""
"dual-task","null","null","null","","arctic","arctic","693.8000000044703","","Q","null","77","77","1","arctic-dual-task","","Q","uppercase","628000","0","3","01d92d17ed0ea9d99d2bac6381808c7ee69318be66dd3daf29c6bf4568786f8d","628000.700000003","693.8000000044703","77","1","arctic","","","","",""
"dual-task","null","null","null","","arctic","arctic","676.5999999940395","","r","null","88","88","1","arctic-dual-task","","r","lowercase","636000","0","3","01d92d17ed0ea9d99d2bac6381808c7ee69318be66dd3daf29c6bf4568786f8d","635999.700000003","676.5999999940395","88","1","arctic","","","","",""
"dual-task","null","null","null","","arctic","arctic","643.4000000059605","","q","null","88","88","1","arctic-dual-task","","q","lowercase","642000","0","3","01d92d17ed0ea9d99d2bac6381808c7ee69318be66dd3daf29c6bf4568786f8d","642004.3000000045","643.4000000059605","88","1","arctic","","","","",""
"dual-task","null","null","null","","arctic","arctic","631.8000000044703","","R","null","77","77","1","arctic-dual-task","","R","uppercase","650000","0","3","01d92d17ed0ea9d99d2bac6381808c7ee69318be66dd3daf29c6bf4568786f8d","650009.400000006","631.8000000044703","77","1","arctic","","","","",""
"dual-task","null","null","null","","arctic","arctic","554.6000000014901","","G","null","77","77","1","arctic-dual-task","","G","uppercase","662000","0","3","01d92d17ed0ea9d99d2bac6381808c7ee69318be66dd3daf29c6bf4568786f8d","662003.6000000015","554.6000000014901","77","1","arctic","","","","",""
"dual-task","null","null","null","","arctic","arctic","736.3999999985099","","Q","null","77","77","1","arctic-dual-task","","Q","uppercase","668000","0","3","01d92d17ed0ea9d99d2bac6381808c7ee69318be66dd3daf29c6bf4568786f8d","668000.5","736.3999999985099","77","1","arctic","","","","",""
"dual-task","null","null","null","","arctic","arctic","588.5","","B","null","77","77","1","arctic-dual-task","","B","uppercase","674000","0","3","01d92d17ed0ea9d99d2bac6381808c7ee69318be66dd3daf29c6bf4568786f8d","674003.3000000045","588.5","77","1","arctic","","","","",""
"dual-task","null","null","null","","arctic","arctic","570.2000000029802","","R","null","77","77","1","arctic-dual-task","","R","uppercase","682000","0","3","01d92d17ed0ea9d99d2bac6381808c7ee69318be66dd3daf29c6bf4568786f8d","682004.400000006","570.2000000029802","77","1","arctic","","","","",""
"dual-task","null","null","null","","arctic","arctic","553.1000000014901","","H","null","77","77","1","arctic-dual-task","","H","uppercase","696000","0","3","01d92d17ed0ea9d99d2bac6381808c7ee69318be66dd3daf29c6bf4568786f8d","696004.6000000015","553.1000000014901","77","1","arctic","","","","",""
"dual-task","null","null","null","","arctic","arctic","565.5999999940395","","g","null","88","88","1","arctic-dual-task","","g","lowercase","704000","0","3","01d92d17ed0ea9d99d2bac6381808c7ee69318be66dd3daf29c6bf4568786f8d","704001.1000000015","565.5999999940395","88","1","arctic","","","","",""
"dual-task","null","null","null","","arctic","arctic","540.7000000029802","","Q","null","77","77","1","arctic-dual-task","","Q","uppercase","710000","0","3","01d92d17ed0ea9d99d2bac6381808c7ee69318be66dd3daf29c6bf4568786f8d","710000","540.7000000029802","77","1","arctic","","","","",""
"dual-task","null","null","null","","arctic","arctic","498.80000000447035","","B","null","77","77","1","arctic-dual-task","","B","uppercase","722000","0","3","01d92d17ed0ea9d99d2bac6381808c7ee69318be66dd3daf29c6bf4568786f8d","722004.200000003","498.80000000447035","77","1","arctic","","","","",""
"dual-task","null","null","null","","arctic","arctic","650.6999999955297","","q","null","88","88","1","arctic-dual-task","","q","lowercase","730000","0","3","01d92d17ed0ea9d99d2bac6381808c7ee69318be66dd3daf29c6bf4568786f8d","730000.200000003","650.6999999955297","88","1","arctic","","","","",""
"dual-task","null","null","null","","arctic","arctic","578","","h","null","88","88","1","arctic-dual-task","","h","lowercase","740000","0","3","01d92d17ed0ea9d99d2bac6381808c7ee69318be66dd3daf29c6bf4568786f8d","740000.3000000045","578","88","1","arctic","","","","",""
"dual-task","null","null","null","","arctic","arctic","552.8000000044703","","g","null","88","88","1","arctic-dual-task","","g","lowercase","750000","0","3","01d92d17ed0ea9d99d2bac6381808c7ee69318be66dd3daf29c6bf4568786f8d","750004.900000006","552.8000000044703","88","1","arctic","","","","",""
"dual-task","null","null","null","","arctic","arctic","635.1000000014901","","b","null","88","88","1","arctic-dual-task","","b","lowercase","758000","0","3","01d92d17ed0ea9d99d2bac6381808c7ee69318be66dd3daf29c6bf4568786f8d","758004.400000006","635.1000000014901","88","1","arctic","","","","",""
"dual-task","null","null","null","","arctic","arctic","540.8000000044703","","b","null","88","88","1","arctic-dual-task","","b","lowercase","772000","0","3","01d92d17ed0ea9d99d2bac6381808c7ee69318be66dd3daf29c6bf4568786f8d","772000.5","540.8000000044703","88","1","arctic","","","","",""
"dual-task","null","null","null","","arctic","arctic","646.6999999955297","","r","null","88","88","1","arctic-dual-task","","r","lowercase","782000","0","3","01d92d17ed0ea9d99d2bac6381808c7ee69318be66dd3daf29c6bf4568786f8d","782004.6000000015","646.6999999955297","88","1","arctic","","","","",""
"audio-keyboard-response","29","914811","0.0-6.0-0.0-1.0","01d92d17ed0ea9d99d2bac6381808c7ee69318be66dd3daf29c6bf4568786f8d","arctic","arctic","null","","audio/story_arctic_scrambled.mp3","","null","","","","","","","","","","","","","","","","","","","",""
"html-button-response","30","917585","0.0-6.0-0.0-2.0","01d92d17ed0ea9d99d2bac6381808c7ee69318be66dd3daf29c6bf4568786f8d","arctic","arctic","2770","","<p>This concludes the story. Thank you for listening.</p><p>You will now answer some questions about the content of the story.</p>","0","","","","","","","","","","","","","","","","","","","","",""
"survey-multi-choice","31","922119","0.0-6.0-0.0-3.0-0.0","01d92d17ed0ea9d99d2bac6381808c7ee69318be66dd3daf29c6bf4568786f8d","arctic","arctic","4523","","<b>How did the narrator prepare for her expedition?</b>","","","","1","arctic-comprehension","","","","","","","","","","","","","{""Q0"":""Trained in Alaska learning how to dogsled""}","","","",""
"survey-multi-choice","32","929975","0.0-6.0-0.0-3.0-0.1","01d92d17ed0ea9d99d2bac6381808c7ee69318be66dd3daf29c6bf4568786f8d","arctic","arctic","7598","","<b>How did the dogs respond when they saw the bears?</b>","","","","0","arctic-comprehension","","","","","","","","","","","","","{""Q0"":""Barked aggressively""}","","","",""
"survey-multi-choice","33","935654","0.0-6.0-0.0-3.0-0.2","01d92d17ed0ea9d99d2bac6381808c7ee69318be66dd3daf29c6bf4568786f8d","arctic","arctic","5422","","<b>What was the objective of the narrator&#39;s expedition?</b>","","","","1","arctic-comprehension","","","","","","","","","","","","","{""Q0"":""Dogsled across Arctic America""}","","","",""
"survey-multi-choice","34","939115","0.0-6.0-0.0-3.0-0.3","01d92d17ed0ea9d99d2bac6381808c7ee69318be66dd3daf29c6bf4568786f8d","arctic","arctic","3201","","<b>What did the narrator do for leisure while in her tent?</b>","","","","1","arctic-comprehension","","","","","","","","","","","","","{""Q0"":""Read""}","","","",""
"survey-multi-choice","35","943152","0.0-6.0-0.0-3.0-0.4","01d92d17ed0ea9d99d2bac6381808c7ee69318be66dd3daf29c6bf4568786f8d","arctic","arctic","3772","","<b>How many sponsorships did the narrator receive to support her expedition?</b>","","","","1","arctic-comprehension","","","","","","","","","","","","","{""Q0"":""None""}","","","",""
"survey-multi-choice","36","950373","0.0-6.0-0.0-3.0-0.5","01d92d17ed0ea9d99d2bac6381808c7ee69318be66dd3daf29c6bf4568786f8d","arctic","arctic","6962","","<b>How did the narrator&#39;s encounter with the polar bears end?</b>","","","","1","arctic-comprehension","","","","","","","","","","","","","{""Q0"":""The bears walked back to their den.""}","","","",""
"survey-multi-choice","37","954707","0.0-6.0-0.0-3.0-0.6","01d92d17ed0ea9d99d2bac6381808c7ee69318be66dd3daf29c6bf4568786f8d","arctic","arctic","4078","","<b>What is the name of the narrator&#39;s neighbour?</b>","","","","1","arctic-comprehension","","","","","","","","","","","","","{""Q0"":""Dave""}","","","",""
"survey-multi-choice","38","964223","0.0-6.0-0.0-3.0-0.7","01d92d17ed0ea9d99d2bac6381808c7ee69318be66dd3daf29c6bf4568786f8d","arctic","arctic","9260","","<b>What were the weather conditions in the Arctic like the winter of the narrator&#39;s expedition?</b>","","","","1","arctic-comprehension","","","","","","","","","","","","","{""Q0"":""There were more storms than any other winter in recorded history.""}","","","",""
"survey-multi-choice","39","971257","0.0-6.0-0.0-3.0-0.8","01d92d17ed0ea9d99d2bac6381808c7ee69318be66dd3daf29c6bf4568786f8d","arctic","arctic","6772","","<b>Which dog on the narrator&#39;s dog team never followed instructions?</b>","","","","1","arctic-comprehension","","","","","","","","","","","","","{""Q0"":""Robert""}","","","",""
"survey-multi-choice","40","976953","0.0-6.0-0.0-3.0-0.9","01d92d17ed0ea9d99d2bac6381808c7ee69318be66dd3daf29c6bf4568786f8d","arctic","arctic","5434","","<b>How did the narrator&#39;s neighbour respond when she told him about her expedition?</b>","","","","1","arctic-comprehension","","","","","","","","","","","","","{""Q0"":""He said she was going to fail.""}","","","",""
"html-button-response","41","979175","0.0-6.0-0.0-4.0","01d92d17ed0ea9d99d2bac6381808c7ee69318be66dd3daf29c6bf4568786f8d","arctic","arctic","1969","","<p>Thank you for your responses.</p><p>You will now answer some questions about your impressions of the story.</p>","0","","","","","","","","","","","","","","","","","","","","",""
"html-button-response","42","981423","0.0-6.0-0.0-5.0-0.0","01d92d17ed0ea9d99d2bac6381808c7ee69318be66dd3daf29c6bf4568786f8d","arctic","arctic","2246","","E8","4","","","","arctic-engagement","","","","","","","","","","","","","","5","enjoyment","",""
"html-button-response","43","984556","0.0-6.0-0.0-5.0-0.1","01d92d17ed0ea9d99d2bac6381808c7ee69318be66dd3daf29c6bf4568786f8d","arctic","arctic","2880","","EE1","6","","","","arctic-engagement","","","","","","","","","","","","","","7","emo-engage","",""
"html-button-response","44","986542","0.0-6.0-0.0-5.0-0.2","01d92d17ed0ea9d99d2bac6381808c7ee69318be66dd3daf29c6bf4568786f8d","arctic","arctic","1730","","E6","6","","","","arctic-engagement","","","","","","","","","","","","","","7","enjoyment","",""
"html-button-response","45","988521","0.0-6.0-0.0-5.0-0.3","01d92d17ed0ea9d99d2bac6381808c7ee69318be66dd3daf29c6bf4568786f8d","arctic","arctic","1726","","MS1","5","","","","arctic-engagement","","","","","","","","","","","","","","6","mental-sim","",""
"html-button-response","46","990496","0.0-6.0-0.0-5.0-0.4","01d92d17ed0ea9d99d2bac6381808c7ee69318be66dd3daf29c6bf4568786f8d","arctic","arctic","1721","","EE5","6","","","","arctic-engagement","","","","","","","","","","","","","","7","emo-engage","",""
"html-button-response","47","993583","0.0-6.0-0.0-5.0-0.5","01d92d17ed0ea9d99d2bac6381808c7ee69318be66dd3daf29c6bf4568786f8d","arctic","arctic","2829","","E7","5","","","","arctic-engagement","","","","","","","","","","","","","","6","enjoyment","",""
"html-button-response","48","995513","0.0-6.0-0.0-5.0-0.6","01d92d17ed0ea9d99d2bac6381808c7ee69318be66dd3daf29c6bf4568786f8d","arctic","arctic","1675","","A5","6","","","","arctic-engagement","","","","","","","","","","","","","","7","absorption","",""
"html-button-response","49","996934","0.0-6.0-0.0-5.0-0.7","01d92d17ed0ea9d99d2bac6381808c7ee69318be66dd3daf29c6bf4568786f8d","arctic","arctic","1169","","EE4","6","","","","arctic-engagement","","","","","","","","","","","","","","7","emo-engage","",""
"html-button-response","50","998190","0.0-6.0-0.0-5.0-0.8","01d92d17ed0ea9d99d2bac6381808c7ee69318be66dd3daf29c6bf4568786f8d","arctic","arctic","999","","EE2","6","","","","arctic-engagement","","","","","","","","","","","","","","7","emo-engage","",""
"html-button-response","51","999446","0.0-6.0-0.0-5.0-0.9","01d92d17ed0ea9d99d2bac6381808c7ee69318be66dd3daf29c6bf4568786f8d","arctic","arctic","1003","","MS2","6","","","","arctic-engagement","","","","","","","","","","","","","","7","mental-sim","",""
"html-button-response","52","1001262","0.0-6.0-0.0-5.0-0.10","01d92d17ed0ea9d99d2bac6381808c7ee69318be66dd3daf29c6bf4568786f8d","arctic","arctic","1559","","A1","6","","","","arctic-engagement","","","","","","","","","","","","","","7","absorption","",""
"html-button-response","53","1003215","0.0-6.0-0.0-5.0-0.11","01d92d17ed0ea9d99d2bac6381808c7ee69318be66dd3daf29c6bf4568786f8d","arctic","arctic","1700","","MS3","6","","","","arctic-engagement","","","","","","","","","","","","","","7","mental-sim","",""
"html-button-response","54","1004612","0.0-6.0-0.0-5.0-0.12","01d92d17ed0ea9d99d2bac6381808c7ee69318be66dd3daf29c6bf4568786f8d","arctic","arctic","1143","","EE3","6","","","","arctic-engagement","","","","","","","","","","","","","","7","emo-engage","",""
"html-button-response","55","1007253","0.0-6.0-0.0-5.0-0.13","01d92d17ed0ea9d99d2bac6381808c7ee69318be66dd3daf29c6bf4568786f8d","arctic","arctic","2389","","A4","5","","","","arctic-engagement","","","","","","","","","","","","","","6","absorption","",""
"html-button-response","56","1009020","0.0-6.0-0.0-5.0-0.14","01d92d17ed0ea9d99d2bac6381808c7ee69318be66dd3daf29c6bf4568786f8d","arctic","arctic","1509","","A2","6","","","","arctic-engagement","","","","","","","","","","","","","","7","absorption","",""
"html-button-response","57","1010816","0.0-6.0-0.0-5.0-0.15","01d92d17ed0ea9d99d2bac6381808c7ee69318be66dd3daf29c6bf4568786f8d","arctic","arctic","1541","","A3","6","","","","arctic-engagement","","","","","","","","","","","","","","7","absorption","",""
"html-button-response","58","1015522","0.0-6.0-0.0-5.0-0.16","01d92d17ed0ea9d99d2bac6381808c7ee69318be66dd3daf29c6bf4568786f8d","arctic","arctic","4449","","E10","2","","","","arctic-engagement","","","","","","","","","","","","","","3","enjoyment","",""
"html-button-response","59","1017590","0.0-6.0-0.0-5.0-0.17","01d92d17ed0ea9d99d2bac6381808c7ee69318be66dd3daf29c6bf4568786f8d","arctic","arctic","1813","","E1","5","","","","arctic-engagement","","","","","","","","","","","","","","6","enjoyment","",""
"html-keyboard-response","60","1034202","0.0-6.0-1.0","01d92d17ed0ea9d99d2bac6381808c7ee69318be66dd3daf29c6bf4568786f8d","arctic","arctic","16357","","<p>Thank you for your responses. You will now listen to the second story.</p><p>Remember, as you listen to the story you will see letters appear on the screen.</br>As quickly as possible, press <b>&lt;x&gt;</b> if the letter is lowercase and <b>&lt;m&gt;</b> if the letter is uppercase.</p><p>Press <b>&lt;x&gt;</b> or <b>&lt;m&gt;</b> to begin listening!</p>","","77","","","","","","","","","","","","","","","","","","","",""
"html-keyboard-response","61","1034703","0.0-6.0-2.0-0.0","01d92d17ed0ea9d99d2bac6381808c7ee69318be66dd3daf29c6bf4568786f8d","arctic","arctic","null","","<div style=""font-size:60px;"" tabindex=""0"">+</div>","","null","","","","","","","","","","","","","","","","","","","",""
"dual-task","null","null","null","","arctic","arctic","558.8999999985099","","r","null","88","88","1","swim-dual-task","","r","lowercase","14000","0","3","01d92d17ed0ea9d99d2bac6381808c7ee69318be66dd3daf29c6bf4568786f8d","13999.30000000447","558.8999999985099","88","1","swim","","","","",""
"dual-task","null","null","null","","arctic","arctic","468.09999999403954","","e","null","88","88","1","swim-dual-task","","e","lowercase","20000","0","3","01d92d17ed0ea9d99d2bac6381808c7ee69318be66dd3daf29c6bf4568786f8d","20001.60000000149","468.09999999403954","88","1","swim","","","","",""
"dual-task","null","null","null","","arctic","arctic","381.19999999552965","","a","null","88","88","1","swim-dual-task","","a","lowercase","32000","0","3","01d92d17ed0ea9d99d2bac6381808c7ee69318be66dd3daf29c6bf4568786f8d","32003.40000000596","381.19999999552965","88","1","swim","","","","",""
"dual-task","null","null","null","","arctic","arctic","460.79999999701977","","a","null","88","88","1","swim-dual-task","","a","lowercase","44000","0","3","01d92d17ed0ea9d99d2bac6381808c7ee69318be66dd3daf29c6bf4568786f8d","44001.60000000149","460.79999999701977","88","1","swim","","","","",""
"dual-task","null","null","null","","arctic","arctic","564.7999999970198","","H","null","77","77","1","swim-dual-task","","H","uppercase","56000","0","3","01d92d17ed0ea9d99d2bac6381808c7ee69318be66dd3daf29c6bf4568786f8d","56003.70000000298","564.7999999970198","77","1","swim","","","","",""
"dual-task","null","null","null","","arctic","arctic","453.90000000596046","","N","null","77","77","1","swim-dual-task","","N","uppercase","66000","0","3","01d92d17ed0ea9d99d2bac6381808c7ee69318be66dd3daf29c6bf4568786f8d","66003.70000000298","453.90000000596046","77","1","swim","","","","",""
"dual-task","null","null","null","","arctic","arctic","461.20000000298023","","T","null","77","77","1","swim-dual-task","","T","uppercase","80000","0","3","01d92d17ed0ea9d99d2bac6381808c7ee69318be66dd3daf29c6bf4568786f8d","80001.80000000447","461.20000000298023","77","1","swim","","","","",""
"dual-task","null","null","null","","arctic","arctic","466.29999999701977","","F","null","77","77","1","swim-dual-task","","F","uppercase","88000","0","3","01d92d17ed0ea9d99d2bac6381808c7ee69318be66dd3daf29c6bf4568786f8d","87999.20000000298","466.29999999701977","77","1","swim","","","","",""
"dual-task","null","null","null","","arctic","arctic","559.1000000014901","","r","null","77","88","0","swim-dual-task","","r","lowercase","96000","0","3","01d92d17ed0ea9d99d2bac6381808c7ee69318be66dd3daf29c6bf4568786f8d","96002.20000000298","559.1000000014901","77","0","swim","","","","",""
"dual-task","null","null","null","","arctic","arctic","601.7999999970198","","Q","null","77","77","1","swim-dual-task","","Q","uppercase","106000","0","3","01d92d17ed0ea9d99d2bac6381808c7ee69318be66dd3daf29c6bf4568786f8d","106002.70000000298","601.7999999970198","77","1","swim","","","","",""
"dual-task","null","null","null","","arctic","arctic","534.3999999985099","","b","null","88","88","1","swim-dual-task","","b","lowercase","112000","0","3","01d92d17ed0ea9d99d2bac6381808c7ee69318be66dd3daf29c6bf4568786f8d","111998.90000000596","534.3999999985099","88","1","swim","","","","",""
"dual-task","null","null","null","","arctic","arctic","565.7000000029802","","Q","null","77","77","1","swim-dual-task","","Q","uppercase","120000","0","3","01d92d17ed0ea9d99d2bac6381808c7ee69318be66dd3daf29c6bf4568786f8d","120002","565.7000000029802","77","1","swim","","","","",""
"dual-task","null","null","null","","arctic","arctic","570.6000000014901","","n","null","88","88","1","swim-dual-task","","n","lowercase","134000","0","3","01d92d17ed0ea9d99d2bac6381808c7ee69318be66dd3daf29c6bf4568786f8d","133999.80000000447","570.6000000014901","88","1","swim","","","","",""
"dual-task","null","null","null","","arctic","arctic","531.6000000014901","","q","null","88","88","1","swim-dual-task","","q","lowercase","144000","0","3","01d92d17ed0ea9d99d2bac6381808c7ee69318be66dd3daf29c6bf4568786f8d","143999.6000000015","531.6000000014901","88","1","swim","","","","",""
"dual-task","null","null","null","","arctic","arctic","504.6000000014901","","N","null","77","77","1","swim-dual-task","","N","uppercase","152000","0","3","01d92d17ed0ea9d99d2bac6381808c7ee69318be66dd3daf29c6bf4568786f8d","151999.6000000015","504.6000000014901","77","1","swim","","","","",""
"dual-task","null","null","null","","arctic","arctic","550.3999999985099","","r","null","88","88","1","swim-dual-task","","r","lowercase","164000","0","3","01d92d17ed0ea9d99d2bac6381808c7ee69318be66dd3daf29c6bf4568786f8d","164003.5","550.3999999985099","88","1","swim","","","","",""
"dual-task","null","null","null","","arctic","arctic","513.5","","t","null","88","88","1","swim-dual-task","","t","lowercase","176000","0","3","01d92d17ed0ea9d99d2bac6381808c7ee69318be66dd3daf29c6bf4568786f8d","176002.70000000298","513.5","88","1","swim","","","","",""
"dual-task","null","null","null","","arctic","arctic","535.7000000029802","","T","null","77","77","1","swim-dual-task","","T","uppercase","188000","0","3","01d92d17ed0ea9d99d2bac6381808c7ee69318be66dd3daf29c6bf4568786f8d","188003.70000000298","535.7000000029802","77","1","swim","","","","",""
"dual-task","null","null","null","","arctic","arctic","489.09999999403954","","G","null","77","77","1","swim-dual-task","","G","uppercase","198000","0","3","01d92d17ed0ea9d99d2bac6381808c7ee69318be66dd3daf29c6bf4568786f8d","198003.6000000015","489.09999999403954","77","1","swim","","","","",""
"dual-task","null","null","null","","arctic","arctic","596.6999999955297","","e","null","88","88","1","swim-dual-task","","e","lowercase","208000","0","3","01d92d17ed0ea9d99d2bac6381808c7ee69318be66dd3daf29c6bf4568786f8d","208003.6000000015","596.6999999955297","88","1","swim","","","","",""
"dual-task","null","null","null","","arctic","arctic","529.2999999970198","","b","null","88","88","1","swim-dual-task","","b","lowercase","218000","0","3","01d92d17ed0ea9d99d2bac6381808c7ee69318be66dd3daf29c6bf4568786f8d","218000.90000000596","529.2999999970198","88","1","swim","","","","",""
"dual-task","null","null","null","","arctic","arctic","544.7000000029802","","R","null","77","77","1","swim-dual-task","","R","uppercase","228000","0","3","01d92d17ed0ea9d99d2bac6381808c7ee69318be66dd3daf29c6bf4568786f8d","227999","544.7000000029802","77","1","swim","","","","",""
"dual-task","null","null","null","","arctic","arctic","606.2000000029802","","E","null","77","77","1","swim-dual-task","","E","uppercase","240000","0","3","01d92d17ed0ea9d99d2bac6381808c7ee69318be66dd3daf29c6bf4568786f8d","239999.30000000447","606.2000000029802","77","1","swim","","","","",""
"dual-task","null","null","null","","arctic","arctic","493.20000000298023","","B","null","77","77","1","swim-dual-task","","B","uppercase","252000","0","3","01d92d17ed0ea9d99d2bac6381808c7ee69318be66dd3daf29c6bf4568786f8d","252001.6000000015","493.20000000298023","77","1","swim","","","","",""
"dual-task","null","null","null","","arctic","arctic","577.6999999955297","","B","null","77","77","1","swim-dual-task","","B","uppercase","260000","0","3","01d92d17ed0ea9d99d2bac6381808c7ee69318be66dd3daf29c6bf4568786f8d","260003.1000000015","577.6999999955297","77","1","swim","","","","",""
"dual-task","null","null","null","","arctic","arctic","581.2000000029802","","n","null","88","88","1","swim-dual-task","","n","lowercase","274000","0","3","01d92d17ed0ea9d99d2bac6381808c7ee69318be66dd3daf29c6bf4568786f8d","273999.30000000447","581.2000000029802","88","1","swim","","","","",""
"dual-task","null","null","null","","arctic","arctic","572.7000000029802","","g","null","88","88","1","swim-dual-task","","g","lowercase","284000","0","3","01d92d17ed0ea9d99d2bac6381808c7ee69318be66dd3daf29c6bf4568786f8d","284001.30000000447","572.7000000029802","88","1","swim","","","","",""
"dual-task","null","null","null","","arctic","arctic","597.8999999985099","","d","null","88","88","1","swim-dual-task","","d","lowercase","296000","0","3","01d92d17ed0ea9d99d2bac6381808c7ee69318be66dd3daf29c6bf4568786f8d","295999.40000000596","597.8999999985099","88","1","swim","","","","",""
"dual-task","null","null","null","","arctic","arctic","582.2000000029802","","N","null","77","77","1","swim-dual-task","","N","uppercase","310000","0","3","01d92d17ed0ea9d99d2bac6381808c7ee69318be66dd3daf29c6bf4568786f8d","310001.40000000596","582.2000000029802","77","1","swim","","","","",""
"dual-task","null","null","null","","arctic","arctic","582.2999999970198","","D","null","77","77","1","swim-dual-task","","D","uppercase","318000","0","3","01d92d17ed0ea9d99d2bac6381808c7ee69318be66dd3daf29c6bf4568786f8d","318004.1000000015","582.2999999970198","77","1","swim","","","","",""
"dual-task","null","null","null","","arctic","arctic","504.30000000447035","","H","null","77","77","1","swim-dual-task","","H","uppercase","328000","0","3","01d92d17ed0ea9d99d2bac6381808c7ee69318be66dd3daf29c6bf4568786f8d","328002.30000000447","504.30000000447035","77","1","swim","","","","",""
"dual-task","null","null","null","","arctic","arctic","486.3999999985099","","E","null","77","77","1","swim-dual-task","","E","uppercase","334000","0","3","01d92d17ed0ea9d99d2bac6381808c7ee69318be66dd3daf29c6bf4568786f8d","334000.80000000447","486.3999999985099","77","1","swim","","","","",""
"dual-task","null","null","null","","arctic","arctic","565.8000000044703","","q","null","88","88","1","swim-dual-task","","q","lowercase","344000","0","3","01d92d17ed0ea9d99d2bac6381808c7ee69318be66dd3daf29c6bf4568786f8d","344003.30000000447","565.8000000044703","88","1","swim","","","","",""
"dual-task","null","null","null","","arctic","arctic","593.8000000044703","","F","null","77","77","1","swim-dual-task","","F","uppercase","352000","0","3","01d92d17ed0ea9d99d2bac6381808c7ee69318be66dd3daf29c6bf4568786f8d","352003.40000000596","593.8000000044703","77","1","swim","","","","",""
"dual-task","null","null","null","","arctic","arctic","570.3000000044703","","f","null","88","88","1","swim-dual-task","","f","lowercase","366000","0","3","01d92d17ed0ea9d99d2bac6381808c7ee69318be66dd3daf29c6bf4568786f8d","366000.90000000596","570.3000000044703","88","1","swim","","","","",""
"dual-task","null","null","null","","arctic","arctic","588.3999999985099","","h","null","88","88","1","swim-dual-task","","h","lowercase","374000","0","3","01d92d17ed0ea9d99d2bac6381808c7ee69318be66dd3daf29c6bf4568786f8d","373999.5","588.3999999985099","88","1","swim","","","","",""
"dual-task","null","null","null","","arctic","arctic","576.5","","f","null","88","88","1","swim-dual-task","","f","lowercase","382000","0","3","01d92d17ed0ea9d99d2bac6381808c7ee69318be66dd3daf29c6bf4568786f8d","382003.1000000015","576.5","88","1","swim","","","","",""
"dual-task","null","null","null","","arctic","arctic","644.8999999985099","","e","null","88","88","1","swim-dual-task","","e","lowercase","392000","0","3","01d92d17ed0ea9d99d2bac6381808c7ee69318be66dd3daf29c6bf4568786f8d","391999.700000003","644.8999999985099","88","1","swim","","","","",""
"dual-task","null","null","null","","arctic","arctic","626.1000000014901","","N","null","77","77","1","swim-dual-task","","N","uppercase","400000","0","3","01d92d17ed0ea9d99d2bac6381808c7ee69318be66dd3daf29c6bf4568786f8d","399999.5","626.1000000014901","77","1","swim","","","","",""
"dual-task","null","null","null","","arctic","arctic","585.5","","T","null","77","77","1","swim-dual-task","","T","uppercase","414000","0","3","01d92d17ed0ea9d99d2bac6381808c7ee69318be66dd3daf29c6bf4568786f8d","413999.6000000015","585.5","77","1","swim","","","","",""
"dual-task","null","null","null","","arctic","arctic","623.2000000029802","","t","null","88","88","1","swim-dual-task","","t","lowercase","424000","0","3","01d92d17ed0ea9d99d2bac6381808c7ee69318be66dd3daf29c6bf4568786f8d","424003.200000003","623.2000000029802","88","1","swim","","","","",""
"dual-task","null","null","null","","arctic","arctic","606.2000000029802","","q","null","88","88","1","swim-dual-task","","q","lowercase","434000","0","3","01d92d17ed0ea9d99d2bac6381808c7ee69318be66dd3daf29c6bf4568786f8d","434003.40000000596","606.2000000029802","88","1","swim","","","","",""
"dual-task","null","null","null","","arctic","arctic","560.3999999985099","","A","null","77","77","1","swim-dual-task","","A","uppercase","446000","0","3","01d92d17ed0ea9d99d2bac6381808c7ee69318be66dd3daf29c6bf4568786f8d","446003.30000000447","560.3999999985099","77","1","swim","","","","",""
"dual-task","null","null","null","","arctic","arctic","556.6000000014901","","D","null","77","77","1","swim-dual-task","","D","uppercase","456000","0","3","01d92d17ed0ea9d99d2bac6381808c7ee69318be66dd3daf29c6bf4568786f8d","456001.40000000596","556.6000000014901","77","1","swim","","","","",""
"dual-task","null","null","null","","arctic","arctic","477.20000000298023","","G","null","77","77","1","swim-dual-task","","G","uppercase","466000","0","3","01d92d17ed0ea9d99d2bac6381808c7ee69318be66dd3daf29c6bf4568786f8d","466002.6000000015","477.20000000298023","77","1","swim","","","","",""
"dual-task","null","null","null","","arctic","arctic","674.5","","h","null","88","88","1","swim-dual-task","","h","lowercase","478000","0","3","01d92d17ed0ea9d99d2bac6381808c7ee69318be66dd3daf29c6bf4568786f8d","478013.40000000596","674.5","88","1","swim","","","","",""
"dual-task","null","null","null","","arctic","arctic","603.8000000044703","","e","null","88","88","1","swim-dual-task","","e","lowercase","488000","0","3","01d92d17ed0ea9d99d2bac6381808c7ee69318be66dd3daf29c6bf4568786f8d","488003.30000000447","603.8000000044703","88","1","swim","","","","",""
"dual-task","null","null","null","","arctic","arctic","541.6999999955297","","t","null","88","88","1","swim-dual-task","","t","lowercase","498000","0","3","01d92d17ed0ea9d99d2bac6381808c7ee69318be66dd3daf29c6bf4568786f8d","498001.6000000015","541.6999999955297","88","1","swim","","","","",""
"dual-task","null","null","null","","arctic","arctic","809.3999999985099","","t","null","88","88","1","swim-dual-task","","t","lowercase","512000","0","3","01d92d17ed0ea9d99d2bac6381808c7ee69318be66dd3daf29c6bf4568786f8d","512001.5","809.3999999985099","88","1","swim","","","","",""
"dual-task","null","null","null","","arctic","arctic","550.6000000014901","","H","null","77","77","1","swim-dual-task","","H","uppercase","518000","0","3","01d92d17ed0ea9d99d2bac6381808c7ee69318be66dd3daf29c6bf4568786f8d","517999.6000000015","550.6000000014901","77","1","swim","","","","",""
"dual-task","null","null","null","","arctic","arctic","540.3000000044703","","B","null","77","77","1","swim-dual-task","","B","uppercase","524000","0","3","01d92d17ed0ea9d99d2bac6381808c7ee69318be66dd3daf29c6bf4568786f8d","524000.700000003","540.3000000044703","77","1","swim","","","","",""
"dual-task","null","null","null","","arctic","arctic","440.8999999985099","","Q","null","77","77","1","swim-dual-task","","Q","uppercase","536000","0","3","01d92d17ed0ea9d99d2bac6381808c7ee69318be66dd3daf29c6bf4568786f8d","536003.5","440.8999999985099","77","1","swim","","","","",""
"dual-task","null","null","null","","arctic","arctic","967.8999999985099","","r","null","88","88","1","swim-dual-task","","r","lowercase","550000","0","3","01d92d17ed0ea9d99d2bac6381808c7ee69318be66dd3daf29c6bf4568786f8d","550003.5","967.8999999985099","88","1","swim","","","","",""
"dual-task","null","null","null","","arctic","arctic","633.4000000059605","","d","null","88","88","1","swim-dual-task","","d","lowercase","556000","0","3","01d92d17ed0ea9d99d2bac6381808c7ee69318be66dd3daf29c6bf4568786f8d","556003.200000003","633.4000000059605","88","1","swim","","","","",""
"dual-task","null","null","null","","arctic","arctic","658.3000000044703","","b","null","88","88","1","swim-dual-task","","b","lowercase","562000","0","3","01d92d17ed0ea9d99d2bac6381808c7ee69318be66dd3daf29c6bf4568786f8d","562003.400000006","658.3000000044703","88","1","swim","","","","",""
"dual-task","null","null","null","","arctic","arctic","520.3999999985099","","E","null","77","77","1","swim-dual-task","","E","uppercase","568000","0","3","01d92d17ed0ea9d99d2bac6381808c7ee69318be66dd3daf29c6bf4568786f8d","568000.400000006","520.3999999985099","77","1","swim","","","","",""
"dual-task","null","null","null","","arctic","arctic","759.3999999985099","","F","null","77","77","1","swim-dual-task","","F","uppercase","580000","0","3","01d92d17ed0ea9d99d2bac6381808c7ee69318be66dd3daf29c6bf4568786f8d","580003.3000000045","759.3999999985099","77","1","swim","","","","",""
"dual-task","null","null","null","","arctic","arctic","554.8000000044703","","Q","null","77","77","1","swim-dual-task","","Q","uppercase","590000","0","3","01d92d17ed0ea9d99d2bac6381808c7ee69318be66dd3daf29c6bf4568786f8d","590003.8000000045","554.8000000044703","77","1","swim","","","","",""
"dual-task","null","null","null","","arctic","arctic","622.7000000029802","","n","null","88","88","1","swim-dual-task","","n","lowercase","604000","0","3","01d92d17ed0ea9d99d2bac6381808c7ee69318be66dd3daf29c6bf4568786f8d","603999.8000000045","622.7000000029802","88","1","swim","","","","",""
"dual-task","null","null","null","","arctic","arctic","594","","h","null","88","88","1","swim-dual-task","","h","lowercase","614000","0","3","01d92d17ed0ea9d99d2bac6381808c7ee69318be66dd3daf29c6bf4568786f8d","614000.1000000015","594","88","1","swim","","","","",""
"dual-task","null","null","null","","arctic","arctic","548.2000000029802","","G","null","77","77","1","swim-dual-task","","G","uppercase","624000","0","3","01d92d17ed0ea9d99d2bac6381808c7ee69318be66dd3daf29c6bf4568786f8d","624002.5","548.2000000029802","77","1","swim","","","","",""
"dual-task","null","null","null","","arctic","arctic","817.6000000014901","","d","null","88","88","1","swim-dual-task","","d","lowercase","632000","0","3","01d92d17ed0ea9d99d2bac6381808c7ee69318be66dd3daf29c6bf4568786f8d","632003.5","817.6000000014901","88","1","swim","","","","",""
"dual-task","null","null","null","","arctic","arctic","561.6000000014901","","G","null","77","77","1","swim-dual-task","","G","uppercase","642000","0","3","01d92d17ed0ea9d99d2bac6381808c7ee69318be66dd3daf29c6bf4568786f8d","642003.400000006","561.6000000014901","77","1","swim","","","","",""
"dual-task","null","null","null","","arctic","arctic","695.5","","A","null","77","77","1","swim-dual-task","","A","uppercase","648000","0","3","01d92d17ed0ea9d99d2bac6381808c7ee69318be66dd3daf29c6bf4568786f8d","648002.3000000045","695.5","77","1","swim","","","","",""
"dual-task","null","null","null","","arctic","arctic","543.3999999985099","","R","null","77","77","1","swim-dual-task","","R","uppercase","660000","0","3","01d92d17ed0ea9d99d2bac6381808c7ee69318be66dd3daf29c6bf4568786f8d","660003.8000000045","543.3999999985099","77","1","swim","","","","",""
"dual-task","null","null","null","","arctic","arctic","606.3999999985099","","D","null","77","77","1","swim-dual-task","","D","uppercase","670000","0","3","01d92d17ed0ea9d99d2bac6381808c7ee69318be66dd3daf29c6bf4568786f8d","670000.1000000015","606.3999999985099","77","1","swim","","","","",""
"dual-task","null","null","null","","arctic","arctic","795.7000000029802","","R","null","77","77","1","swim-dual-task","","R","uppercase","680000","0","3","01d92d17ed0ea9d99d2bac6381808c7ee69318be66dd3daf29c6bf4568786f8d","680003.3000000045","795.7000000029802","77","1","swim","","","","",""
"dual-task","null","null","null","","arctic","arctic","626.7000000029802","","T","null","77","77","1","swim-dual-task","","T","uppercase","692000","0","3","01d92d17ed0ea9d99d2bac6381808c7ee69318be66dd3daf29c6bf4568786f8d","692003.3000000045","626.7000000029802","77","1","swim","","","","",""
"dual-task","null","null","null","","arctic","arctic","838.8999999985099","","g","null","88","88","1","swim-dual-task","","g","lowercase","702000","0","3","01d92d17ed0ea9d99d2bac6381808c7ee69318be66dd3daf29c6bf4568786f8d","702000.6000000015","838.8999999985099","88","1","swim","","","","",""
"dual-task","null","null","null","","arctic","arctic","574.2000000029802","","A","null","77","77","1","swim-dual-task","","A","uppercase","710000","0","3","01d92d17ed0ea9d99d2bac6381808c7ee69318be66dd3daf29c6bf4568786f8d","710002.8000000045","574.2000000029802","77","1","swim","","","","",""
"dual-task","null","null","null","","arctic","arctic","502.29999999701977","","E","null","77","77","1","swim-dual-task","","E","uppercase","718000","0","3","01d92d17ed0ea9d99d2bac6381808c7ee69318be66dd3daf29c6bf4568786f8d","718003.1000000015","502.29999999701977","77","1","swim","","","","",""
"dual-task","null","null","null","","arctic","arctic","505.1000000014901","","B","null","77","77","1","swim-dual-task","","B","uppercase","730000","0","3","01d92d17ed0ea9d99d2bac6381808c7ee69318be66dd3daf29c6bf4568786f8d","730003.5","505.1000000014901","77","1","swim","","","","",""
"dual-task","null","null","null","","arctic","arctic","1062.6999999955297","","F","null","77","77","1","swim-dual-task","","F","uppercase","742000","0","3","01d92d17ed0ea9d99d2bac6381808c7ee69318be66dd3daf29c6bf4568786f8d","742000.1000000015","1062.6999999955297","77","1","swim","","","","",""
"dual-task","null","null","null","","arctic","arctic","566.3999999985099","","g","null","88","88","1","swim-dual-task","","g","lowercase","748000","0","3","01d92d17ed0ea9d99d2bac6381808c7ee69318be66dd3daf29c6bf4568786f8d","748005.200000003","566.3999999985099","88","1","swim","","","","",""
"dual-task","null","null","null","","arctic","arctic","456.29999999701977","","f","null","77","88","0","swim-dual-task","","f","lowercase","762000","0","3","01d92d17ed0ea9d99d2bac6381808c7ee69318be66dd3daf29c6bf4568786f8d","762003.400000006","456.29999999701977","77","0","swim","","","","",""
"dual-task","null","null","null","","arctic","arctic","519.2999999970198","","d","null","88","88","1","swim-dual-task","","d","lowercase","772000","0","3","01d92d17ed0ea9d99d2bac6381808c7ee69318be66dd3daf29c6bf4568786f8d","772003.5","519.2999999970198","88","1","swim","","","","",""
"dual-task","null","null","null","","arctic","arctic","613.7000000029802","","h","null","88","88","1","swim-dual-task","","h","lowercase","784000","0","3","01d92d17ed0ea9d99d2bac6381808c7ee69318be66dd3daf29c6bf4568786f8d","784003.400000006","613.7000000029802","88","1","swim","","","","",""
"dual-task","null","null","null","","arctic","arctic","595","","A","null","77","77","1","swim-dual-task","","A","uppercase","792000","0","3","01d92d17ed0ea9d99d2bac6381808c7ee69318be66dd3daf29c6bf4568786f8d","792001.6000000015","595","77","1","swim","","","","",""
"audio-keyboard-response","62","1845494","0.0-6.0-2.0-1.0","01d92d17ed0ea9d99d2bac6381808c7ee69318be66dd3daf29c6bf4568786f8d","arctic","arctic","null","","audio/story_swim.mp3","","null","","","","","","","","","","","","","","","","","","","",""
"html-button-response","63","1850410","0.0-6.0-2.0-2.0","01d92d17ed0ea9d99d2bac6381808c7ee69318be66dd3daf29c6bf4568786f8d","arctic","arctic","4913","","<p>This concludes the story. Thank you for listening.</p><p>You will now answer some questions about the content of the story.</p>","0","","","","","","","","","","","","","","","","","","","","",""
"survey-multi-choice","64","1854838","0.0-6.0-2.0-3.0-0.0","01d92d17ed0ea9d99d2bac6381808c7ee69318be66dd3daf29c6bf4568786f8d","arctic","arctic","4421","","<b>How did the narrator train for his swim test?</b>","","","","1","swim-comprehension","","","","","","","","","","","","","{""Q0"":""Took his kids to the pool every day""}","","","",""
"survey-multi-choice","65","1859362","0.0-6.0-2.0-3.0-0.1","01d92d17ed0ea9d99d2bac6381808c7ee69318be66dd3daf29c6bf4568786f8d","arctic","arctic","4264","","<b>How often does the narrator swim, now that he is a good swimmer?</b>","","","","1","swim-comprehension","","","","","","","","","","","","","{""Q0"":""Never swam again in his life""}","","","",""
"survey-multi-choice","66","1862953","0.0-6.0-2.0-3.0-0.2","01d92d17ed0ea9d99d2bac6381808c7ee69318be66dd3daf29c6bf4568786f8d","arctic","arctic","3333","","<b>What were the astronaut candidates trained to do at the naval air station?</b>","","","","1","swim-comprehension","","","","","","","","","","","","","{""Q0"":""Eject out of aircraft and survive in water long enough to be rescued""}","","","",""
"survey-multi-choice","67","1870308","0.0-6.0-2.0-3.0-0.3","01d92d17ed0ea9d99d2bac6381808c7ee69318be66dd3daf29c6bf4568786f8d","arctic","arctic","7097","","<b>What gave the narrator his greatest feeling of accomplishment?</b>","","","","1","swim-comprehension","","","","","","","","","","","","","{""Q0"":""Passing the water survival course""}","","","",""
"survey-multi-choice","68","1875384","0.0-6.0-2.0-3.0-0.4","01d92d17ed0ea9d99d2bac6381808c7ee69318be66dd3daf29c6bf4568786f8d","arctic","arctic","4817","","<b>What was the final step of the first swim test in the pool?</b>","","","","1","swim-comprehension","","","","","","","","","","","","","{""Q0"":""Tread water with hands above the water""}","","","",""
"survey-multi-choice","69","1878096","0.0-6.0-2.0-3.0-0.5","01d92d17ed0ea9d99d2bac6381808c7ee69318be66dd3daf29c6bf4568786f8d","arctic","arctic","2450","","<b>What is the narrator afraid of, aside from the water?</b>","","","","1","swim-comprehension","","","","","","","","","","","","","{""Q0"":""Heights""}","","","",""
"survey-multi-choice","70","1880929","0.0-6.0-2.0-3.0-0.6","01d92d17ed0ea9d99d2bac6381808c7ee69318be66dd3daf29c6bf4568786f8d","arctic","arctic","2576","","<b>How many astronaut candidates passed the first swim test?</b>","","","","1","swim-comprehension","","","","","","","","","","","","","{""Q0"":""All of them""}","","","",""
"survey-multi-choice","71","1885577","0.0-6.0-2.0-3.0-0.7","01d92d17ed0ea9d99d2bac6381808c7ee69318be66dd3daf29c6bf4568786f8d","arctic","arctic","4387","","<b>How many astronaut candidates reported for duty at the Johnson Space Center?</b>","","","","1","swim-comprehension","","","","","","","","","","","","","{""Q0"":""Forty-four""}","","","",""
"survey-multi-choice","72","1888092","0.0-6.0-2.0-3.0-0.8","01d92d17ed0ea9d99d2bac6381808c7ee69318be66dd3daf29c6bf4568786f8d","arctic","arctic","2256","","<b>Where is the home of naval aviation?</b>","","","","1","swim-comprehension","","","","","","","","","","","","","{""Q0"":""Pensacola""}","","","",""
"survey-multi-choice","73","1892499","0.0-6.0-2.0-3.0-0.9","01d92d17ed0ea9d99d2bac6381808c7ee69318be66dd3daf29c6bf4568786f8d","arctic","arctic","4152","","<b>How many times did the astronaut candidates have to complete the final exercise to pass?</b>","","","","1","swim-comprehension","","","","","","","","","","","","","{""Q0"":""Two""}","","","",""
"html-button-response","74","1893745","0.0-6.0-2.0-4.0","01d92d17ed0ea9d99d2bac6381808c7ee69318be66dd3daf29c6bf4568786f8d","arctic","arctic","991","","<p>Thank you for your responses.</p><p>You will now answer some questions about your impressions of the story.</p>","0","","","","","","","","","","","","","","","","","","","","",""
"html-button-response","75","1895187","0.0-6.0-2.0-5.0-0.0","01d92d17ed0ea9d99d2bac6381808c7ee69318be66dd3daf29c6bf4568786f8d","arctic","arctic","1439","","MS1","6","","","","swim-engagement","","","","","","","","","","","","","","7","mental-sim","",""
"html-button-response","76","1896227","0.0-6.0-2.0-5.0-0.1","01d92d17ed0ea9d99d2bac6381808c7ee69318be66dd3daf29c6bf4568786f8d","arctic","arctic","783","","A3","6","","","","swim-engagement","","","","","","","","","","","","","","7","absorption","",""
"html-button-response","77","1897100","0.0-6.0-2.0-5.0-0.2","01d92d17ed0ea9d99d2bac6381808c7ee69318be66dd3daf29c6bf4568786f8d","arctic","arctic","616","","E1","6","","","","swim-engagement","","","","","","","","","","","","","","7","enjoyment","",""
"html-button-response","78","1899091","0.0-6.0-2.0-5.0-0.3","01d92d17ed0ea9d99d2bac6381808c7ee69318be66dd3daf29c6bf4568786f8d","arctic","arctic","1737","","MS2","6","","","","swim-engagement","","","","","","","","","","","","","","7","mental-sim","",""
"html-button-response","79","1900196","0.0-6.0-2.0-5.0-0.4","01d92d17ed0ea9d99d2bac6381808c7ee69318be66dd3daf29c6bf4568786f8d","arctic","arctic","848","","E6","6","","","","swim-engagement","","","","","","","","","","","","","","7","enjoyment","",""
"html-button-response","80","1901716","0.0-6.0-2.0-5.0-0.5","01d92d17ed0ea9d99d2bac6381808c7ee69318be66dd3daf29c6bf4568786f8d","arctic","arctic","1263","","A1","6","","","","swim-engagement","","","","","","","","","","","","","","7","absorption","",""
"html-button-response","81","1902681","0.0-6.0-2.0-5.0-0.6","01d92d17ed0ea9d99d2bac6381808c7ee69318be66dd3daf29c6bf4568786f8d","arctic","arctic","709","","A2","6","","","","swim-engagement","","","","","","","","","","","","","","7","absorption","",""
"html-button-response","82","1903614","0.0-6.0-2.0-5.0-0.7","01d92d17ed0ea9d99d2bac6381808c7ee69318be66dd3daf29c6bf4568786f8d","arctic","arctic","677","","EE4","6","","","","swim-engagement","","","","","","","","","","","","","","7","emo-engage","",""
"html-button-response","83","1904844","0.0-6.0-2.0-5.0-0.8","01d92d17ed0ea9d99d2bac6381808c7ee69318be66dd3daf29c6bf4568786f8d","arctic","arctic","973","","EE1","6","","","","swim-engagement","","","","","","","","","","","","","","7","emo-engage","",""
"html-button-response","84","1906238","0.0-6.0-2.0-5.0-0.9","01d92d17ed0ea9d99d2bac6381808c7ee69318be66dd3daf29c6bf4568786f8d","arctic","arctic","1138","","EE2","6","","","","swim-engagement","","","","","","","","","","","","","","7","emo-engage","",""
"html-button-response","85","1907222","0.0-6.0-2.0-5.0-0.10","01d92d17ed0ea9d99d2bac6381808c7ee69318be66dd3daf29c6bf4568786f8d","arctic","arctic","727","","EE3","6","","","","swim-engagement","","","","","","","","","","","","","","7","emo-engage","",""
"html-button-response","86","1908484","0.0-6.0-2.0-5.0-0.11","01d92d17ed0ea9d99d2bac6381808c7ee69318be66dd3daf29c6bf4568786f8d","arctic","arctic","1006","","MS3","6","","","","swim-engagement","","","","","","","","","","","","","","7","mental-sim","",""
"html-button-response","87","1909504","0.0-6.0-2.0-5.0-0.12","01d92d17ed0ea9d99d2bac6381808c7ee69318be66dd3daf29c6bf4568786f8d","arctic","arctic","763","","E10","6","","","","swim-engagement","","","","","","","","","","","","","","7","enjoyment","",""
"html-button-response","88","1910445","0.0-6.0-2.0-5.0-0.13","01d92d17ed0ea9d99d2bac6381808c7ee69318be66dd3daf29c6bf4568786f8d","arctic","arctic","689","","E8","6","","","","swim-engagement","","","","","","","","","","","","","","7","enjoyment","",""
"html-button-response","89","1911909","0.0-6.0-2.0-5.0-0.14","01d92d17ed0ea9d99d2bac6381808c7ee69318be66dd3daf29c6bf4568786f8d","arctic","arctic","1209","","A4","6","","","","swim-engagement","","","","","","","","","","","","","","7","absorption","",""
"html-button-response","90","1912827","0.0-6.0-2.0-5.0-0.15","01d92d17ed0ea9d99d2bac6381808c7ee69318be66dd3daf29c6bf4568786f8d","arctic","arctic","662","","E7","6","","","","swim-engagement","","","","","","","","","","","","","","7","enjoyment","",""
"html-button-response","91","1913774","0.0-6.0-2.0-5.0-0.16","01d92d17ed0ea9d99d2bac6381808c7ee69318be66dd3daf29c6bf4568786f8d","arctic","arctic","692","","EE5","6","","","","swim-engagement","","","","","","","","","","","","","","7","emo-engage","",""
"html-button-response","92","1914949","0.0-6.0-2.0-5.0-0.17","01d92d17ed0ea9d99d2bac6381808c7ee69318be66dd3daf29c6bf4568786f8d","arctic","arctic","917","","A5","6","","","","swim-engagement","","","","","","","","","","","","","","7","absorption","",""
"html-button-response","93","1916472","0.0-8.0","01d92d17ed0ea9d99d2bac6381808c7ee69318be66dd3daf29c6bf4568786f8d","arctic","arctic","1268","","<p>Thank you for your responses.</p><p>You will now answer some demographic, hearing, and general health questions.</p>","0","","","","","","","","","","","","","","","","","","","","",""
"survey-multi-choice","94","1918658","0.0-9.0-0.0","01d92d17ed0ea9d99d2bac6381808c7ee69318be66dd3daf29c6bf4568786f8d","arctic","arctic","2183","","","","","","","survey","","","","","","","","","","","","","{""Q0"":""Chrome""}","","","browser",""
"survey-text","95","1921520","0.0-9.0-1.0","01d92d17ed0ea9d99d2bac6381808c7ee69318be66dd3daf29c6bf4568786f8d","arctic","arctic","2603.5","","","","","","","survey","","","","","","","","","","","","","{""AGE"":""29""}","","","age","29"
"survey-multi-choice","96","1925311","0.0-9.0-2.0","01d92d17ed0ea9d99d2bac6381808c7ee69318be66dd3daf29c6bf4568786f8d","arctic","arctic","3535","","","","","","","survey","","","","","","","","","","","","","{""Q0"":""Female""}","","","gender","Female"
"survey-multi-choice","97","1927263","0.0-9.0-4.0","01d92d17ed0ea9d99d2bac6381808c7ee69318be66dd3daf29c6bf4568786f8d","arctic","arctic","1695","","","","","","","survey","","","","","","","","","","","","","{""Q0"":""Right""}","","","handedness","Right"
"survey-multi-choice","98","1929515","0.0-9.0-5.0","01d92d17ed0ea9d99d2bac6381808c7ee69318be66dd3daf29c6bf4568786f8d","arctic","arctic","1987","","","","","","","survey","","","","","","","","","","","","","{""Q0"":""Bachelor's Degree""}","","","education","Bachelor's Degree"
"survey-text","99","1932990","0.0-10.0-0.0","01d92d17ed0ea9d99d2bac6381808c7ee69318be66dd3daf29c6bf4568786f8d","arctic","arctic","3217.39999999851","","","","","","","survey","","","","","","","","","","","","","{""L1"":""English""}","","","first-language","English"
"survey-text","100","1938464","0.0-10.0-1.0","01d92d17ed0ea9d99d2bac6381808c7ee69318be66dd3daf29c6bf4568786f8d","arctic","arctic","5205.10000000149","","","","","","","survey","","","","","","","","","","","","","{""L2name"":"""",""L2fluency"":"""",""L3name"":"""",""L3fluency"":"""",""L4name"":"""",""L4fluency"":""""}","","","additional-languages","{""L2name"":"""",""L2fluency"":"""",""L3name"":"""",""L3fluency"":"""",""L4name"":"""",""L4fluency"":""""}"
"survey-multi-choice","101","1940697","0.0-10.0-2.0","01d92d17ed0ea9d99d2bac6381808c7ee69318be66dd3daf29c6bf4568786f8d","arctic","arctic","1976","","","","","","","survey","","","","","","","","","","","","","{""Q0"":""No""}","","","hearing-aid","No"
"survey-multi-choice","102","1943632","0.0-10.0-3.0","01d92d17ed0ea9d99d2bac6381808c7ee69318be66dd3daf29c6bf4568786f8d","arctic","arctic","2678","","","","","","","survey","","","","","","","","","","","","","{""Q0"":""Sometimes""}","","","ringing-ears","Sometimes"
"survey-multi-choice","103","1947073","0.0-10.0-4.0-0.0","01d92d17ed0ea9d99d2bac6381808c7ee69318be66dd3daf29c6bf4568786f8d","arctic","arctic","3185","","","","","","","survey","","","","","","","","","","","","","{""Q0"":""Left Ear""}","","","ringing-ear-loc","Left Ear"
"survey-multi-choice","104","1949103","0.0-10.0-5.0","01d92d17ed0ea9d99d2bac6381808c7ee69318be66dd3daf29c6bf4568786f8d","arctic","arctic","1774","","","","","","","survey","","","","","","","","","","","","","{""Q0"":""No""}","","","neuro-disease","No"
"survey-multi-choice","105","1952297","0.0-10.0-7.0","01d92d17ed0ea9d99d2bac6381808c7ee69318be66dd3daf29c6bf4568786f8d","arctic","arctic","2935","","","","","","","survey","","","","","","","","","","","","","{""Q0"":""No""}","","","take-meds","No"
"survey-text","106","1955824","0.0-10.0-9.0","01d92d17ed0ea9d99d2bac6381808c7ee69318be66dd3daf29c6bf4568786f8d","arctic","arctic","3189.89999999851","","","","","","","survey","","","","","","","","","","","","","{""HC"":""N/A""}","","","health-concerns","N/A"
"html-button-response","107","1958493","0.0-11.0-0.0","01d92d17ed0ea9d99d2bac6381808c7ee69318be66dd3daf29c6bf4568786f8d","arctic","arctic","2412","","<p>How would you describe your musical skills/experiences?</p>","3","","","","survey","","","","","","","","","","","","","","","","music-skill","4"
"survey-multi-choice","108","1961446","0.0-11.0-1.0","01d92d17ed0ea9d99d2bac6381808c7ee69318be66dd3daf29c6bf4568786f8d","arctic","arctic","2693","","","","","","","survey","","","","","","","","","","","","","{""Q0"":""Yes""}","","","music-instrument","Yes"
"survey-text","109","1964374","0.0-11.0-2.0-0.0","01d92d17ed0ea9d99d2bac6381808c7ee69318be66dd3daf29c6bf4568786f8d","arctic","arctic","2670.7999999970198","","","","","","","survey","","","","","","","","","","","","","{""MEXP"":""7""}","","","music-training-yrs","7"
"html-button-response","110","1966692","0.0-12.0-0.0","01d92d17ed0ea9d99d2bac6381808c7ee69318be66dd3daf29c6bf4568786f8d","arctic","arctic","2063","","<p>How would you describe your general hearing abilities?</p>","4","","","","survey","","","","","","","","","","","","","","","","ssq-01","5"
"html-button-response","111","1973209","0.0-12.0-1.0","01d92d17ed0ea9d99d2bac6381808c7ee69318be66dd3daf29c6bf4568786f8d","arctic","arctic","6260","","<p>When you talk with someone at a place that strongly reverberates/echoes (e.g., in a church or train station),</br>can you understand what the person says?</p>","8","","","","survey","","","","","","","","","","","","","","","","ssq-02","8"
"html-button-response","112","1975825","0.0-12.0-2.0","01d92d17ed0ea9d99d2bac6381808c7ee69318be66dd3daf29c6bf4568786f8d","arctic","arctic","2354","","<p>When you are with a group (~5 people) in a lively restaurant, can you follow the group's conversation?</p>","5","","","","survey","","","","","","","","","","","","","","","","ssq-03","5"
"html-button-response","113","1979793","0.0-12.0-3.0","01d92d17ed0ea9d99d2bac6381808c7ee69318be66dd3daf29c6bf4568786f8d","arctic","arctic","3714","","<p>Based on the sound of a bus or truck, can you tell whether it is moving towards or away from you?</p>","6","","","","survey","","","","","","","","","","","","","","","","ssq-04","6"
"html-button-response","114","1982917","0.0-12.0-4.0","01d92d17ed0ea9d99d2bac6381808c7ee69318be66dd3daf29c6bf4568786f8d","arctic","arctic","2870","","<p>When you are in an unknown environment, can you tell from which direction a brief sound originates?</p>","6","","","","survey","","","","","","","","","","","","","","","","ssq-05","6"
"html-button-response","115","1985526","0.0-12.0-5.0","01d92d17ed0ea9d99d2bac6381808c7ee69318be66dd3daf29c6bf4568786f8d","arctic","arctic","2354","","<p>Are you able to ignore distracting sounds when you concentrate on a specific aspect of your acoustic surrounding?</p>","7","","","","survey","","","","","","","","","","","","","","","","ssq-06","7"
"fullscreen","116","1986781","0.0-13.0","01d92d17ed0ea9d99d2bac6381808c7ee69318be66dd3daf29c6bf4568786f8d","arctic","arctic","","","","","","","","","true","","","","","","","","","","","","","","","",""
