"trial_type","trial_index","time_elapsed","internal_node_id","ParticipantID","firstStory","scramStory","rt","url","stimulus","button_pressed","key_press","correctRESP","correct","designation","success","letterStim","letterType","ONSET","TIMEOUT","CONDITION","Participant","ONSET_ACTUAL","RT","RESP","ACC","STORY","responses","response","type","surveyQuestion","QRESP"
"pavlovia","0","5","0.0-0.0","01d92d17ed0ea9d99d2bac6381808c7ee69318be66dd3daf29c6bf4568786f8d","arctic","arctic","","","","","","","","","","","","","","","","","","","","","","","","",""
"external-html","1","38235","0.0-1.0","01d92d17ed0ea9d99d2bac6381808c7ee69318be66dd3daf29c6bf4568786f8d","arctic","arctic","38041","consent/consent_updated.html","","","","","","","","","","","","","","","","","","","","","","",""
"html-button-response","2","40092","0.0-2.0-0.0","01d92d17ed0ea9d99d2bac6381808c7ee69318be66dd3daf29c6bf4568786f8d","arctic","arctic","1855","","<p>Before we begin the main task, you will complete a short volume calibration and headphone check.</p><p>Please make sure you are in a quiet listening environment, that you are wearing headphones, and that your computer's volume is turned on.<p></p>","0","","","","","","","","","","","","","","","","","","","","",""
"html-button-response","3","42164","0.0-2.0-1.0","01d92d17ed0ea9d99d2bac6381808c7ee69318be66dd3daf29c6bf4568786f8d","arctic","arctic","1821","","<p>The volume calibration will be first.</p><p>You will hear a thirty-second noise. Please adjust your computer's volume so that this noise is being presented at a comfortable level.<p></p>","0","","","","","","","","","","","","","","","","","","","","",""
"audio-button-response","4","45282","0.0-2.0-2.0","01d92d17ed0ea9d99d2bac6381808c7ee69318be66dd3daf29c6bf4568786f8d","arctic","arctic","2866","","audio/volumetest.mp3","0","","","","","","","","","","","","","","","","","","","","",""
"html-keyboard-response","5","47317","0.0-3.0-0.0","01d92d17ed0ea9d99d2bac6381808c7ee69318be66dd3daf29c6bf4568786f8d","arctic","arctic","2033","","<p>You will now complete a short headphone check.</p><p>On each trial, you will hear three tones. One of these tones will be quieter than the others. Your task is to identify whether the quiet tone occurred first, second, or third.</p><p>There are six trials in total.<p></p><p></p>(Press SPACEBAR to begin)","","32","","","","","","","","","","","","","","","","","","","",""
"html-keyboard-response","6","48080","0.0-3.0-1.0-0.0","01d92d17ed0ea9d99d2bac6381808c7ee69318be66dd3daf29c6bf4568786f8d","arctic","arctic","null","","<div style=""font-size:60px;"">+</div>","","null","","","","","","","","","","","","","","","","","","","",""
"audio-button-response","7","52306","0.0-3.0-1.0-1.0","01d92d17ed0ea9d99d2bac6381808c7ee69318be66dd3daf29c6bf4568786f8d","arctic","arctic","4224","","audio/t3_2.mp3","2","","2","1","headphone-test","","","","","","","","","","","","","","","","",""
"html-keyboard-response","8","52808","0.0-3.0-1.0-2.0","01d92d17ed0ea9d99d2bac6381808c7ee69318be66dd3daf29c6bf4568786f8d","arctic","arctic","null","","<p>Correct</p>","","null","","","","","","","","","","","","","","","","","","","",""
"html-keyboard-response","9","53310","0.0-3.0-1.0-0.1","01d92d17ed0ea9d99d2bac6381808c7ee69318be66dd3daf29c6bf4568786f8d","arctic","arctic","null","","<div style=""font-size:60px;"">+</div>","","null","","","","","","","","","","","","","","","","","","","",""
"audio-button-response","10","57004","0.0-3.0-1.0-1.1","01d92d17ed0ea9d99d2bac6381808c7ee69318be66dd3daf29c6bf4568786f8d","arctic","arctic","3693","","audio/t3_1.mp3","2","","2","1","headphone-test","","","","","","","","","","","","","","","","",""
"html-keyboard-response","11","57517","0.0-3.0-1.0-2.1","01d92d17ed0ea9d99d2bac6381808c7ee69318be66dd3daf29c6bf4568786f8d","arctic","arctic","null","","<p>Correct</p>","","null","","","","","","","","","","","","","","","","","","","",""
"html-keyboard-response","12","58018","0.0-3.0-1.0-0.2","01d92d17ed0ea9d99d2bac6381808c7ee69318be66dd3daf29c6bf4568786f8d","arctic","arctic","null","","<div style=""font-size:60px;"">+</div>","","null","","","","","","","","","","","","","","","","","","","",""
"audio-button-response","13","61636","0.0-3.0-1.0-1.2","01d92d17ed0ea9d99d2bac6381808c7ee69318be66dd3daf29c6bf4568786f8d","arctic","arctic","3617","","audio/t2_2.mp3","1","","1","1","headphone-test","","","","","","","","","","","","","","","","",""
"html-keyboard-response","14","62138","0.0-3.0-1.0-2.2","01d92d17ed0ea9d99d2bac6381808c7ee69318be66dd3daf29c6bf4568786f8d","arctic","arctic","null","","<p>Correct</p>","","null","","","","","","","","","","","","","","","","","","","",""
"html-keyboard-response","15","62643","0.0-3.0-1.0-0.3","01d92d17ed0ea9d99d2bac6381808c7ee69318be66dd3daf29c6bf4568786f8d","arctic","arctic","null","","<div style=""font-size:60px;"">+</div>","","null","","","","","","","","","","","","","","","","","","","",""
"audio-button-response","16","66104","0.0-3.0-1.0-1.3","01d92d17ed0ea9d99d2bac6381808c7ee69318be66dd3daf29c6bf4568786f8d","arctic","arctic","3459","","audio/t2_1.mp3","1","","1","1","headphone-test","","","","","","","","","","","","","","","","",""
"html-keyboard-response","17","66605","0.0-3.0-1.0-2.3","01d92d17ed0ea9d99d2bac6381808c7ee69318be66dd3daf29c6bf4568786f8d","arctic","arctic","null","","<p>Correct</p>","","null","","","","","","","","","","","","","","","","","","","",""
"html-keyboard-response","18","67114","0.0-3.0-1.0-0.4","01d92d17ed0ea9d99d2bac6381808c7ee69318be66dd3daf29c6bf4568786f8d","arctic","arctic","null","","<div style=""font-size:60px;"">+</div>","","null","","","","","","","","","","","","","","","","","","","",""
"audio-button-response","19","71068","0.0-3.0-1.0-1.4","01d92d17ed0ea9d99d2bac6381808c7ee69318be66dd3daf29c6bf4568786f8d","arctic","arctic","3953","","audio/t1_2.mp3","0","","0","1","headphone-test","","","","","","","","","","","","","","","","",""
"html-keyboard-response","20","71570","0.0-3.0-1.0-2.4","01d92d17ed0ea9d99d2bac6381808c7ee69318be66dd3daf29c6bf4568786f8d","arctic","arctic","null","","<p>Correct</p>","","null","","","","","","","","","","","","","","","","","","","",""
"html-keyboard-response","21","72074","0.0-3.0-1.0-0.5","01d92d17ed0ea9d99d2bac6381808c7ee69318be66dd3daf29c6bf4568786f8d","arctic","arctic","null","","<div style=""font-size:60px;"">+</div>","","null","","","","","","","","","","","","","","","","","","","",""
"audio-button-response","22","75665","0.0-3.0-1.0-1.5","01d92d17ed0ea9d99d2bac6381808c7ee69318be66dd3daf29c6bf4568786f8d","arctic","arctic","3589","","audio/t1_1.mp3","0","","0","1","headphone-test","","","","","","","","","","","","","","","","",""
"html-keyboard-response","23","76181","0.0-3.0-1.0-2.5","01d92d17ed0ea9d99d2bac6381808c7ee69318be66dd3daf29c6bf4568786f8d","arctic","arctic","null","","<p>Correct</p>","","null","","","","","","","","","","","","","","","","","","","",""
"fullscreen","24","78024","0.0-4.0","01d92d17ed0ea9d99d2bac6381808c7ee69318be66dd3daf29c6bf4568786f8d","arctic","arctic","","","","","","","","","true","","","","","","","","","","","","","","","",""
"html-button-response","25","84504","0.0-5.0-0.0","01d92d17ed0ea9d99d2bac6381808c7ee69318be66dd3daf29c6bf4568786f8d","arctic","arctic","6480","","<p>There are two blocks to this experiment.</p><p>In each block, you will hear a ~13.5 minute story. One of the stories will be scrambled. Please listen carefully to both stories and understand them as best you can.</p><p>After each story, you will be asked some questions to assess your comprehension.</p>","0","","","","","","","","","","","","","","","","","","","","",""
"html-button-response","26","96934","0.0-5.0-1.0","01d92d17ed0ea9d99d2bac6381808c7ee69318be66dd3daf29c6bf4568786f8d","arctic","arctic","12429","","<p>During each story, there will be an additional task.</p><p>A letter will occasionally appear on the screen.</br>Your job is to - as quickly as you can - decide whether the letter is lowercase or uppercase and press one of two keys on the keyboard:</p><p>If the letter is <b>lowercase</b>, press key &lt;<b>x</b>&gt;.</p><p>If the letter is <b>uppercase</b>, press key &lt;<b>m</b>&gt;.</p>","0","","","","","","","","","","","","","","","","","","","","",""
"html-keyboard-response","27","110383","0.0-5.0-2.0","01d92d17ed0ea9d99d2bac6381808c7ee69318be66dd3daf29c6bf4568786f8d","arctic","arctic","13449","","<p>Because we want your responses to be as quick as possible, please keep your index fingers over the keys while listening.</p><p>Each block lasts about 20 minutes.</p><p><b>Press &lt;x&gt; or &lt;m&gt; to start the first block!</b></p>","","88","","","","","","","","","","","","","","","","","","","",""
"html-keyboard-response","28","110885","0.0-6.0-0.0-0.0","01d92d17ed0ea9d99d2bac6381808c7ee69318be66dd3daf29c6bf4568786f8d","arctic","arctic","null","","<div style=""font-size:60px;"" tabindex=""0"">+</div>","","null","","","","","","","","","","","","","","","","","","","",""
"dual-task","null","null","null","","arctic","arctic","872.2000000476837","","h","null","88","88","1","arctic-dual-task","","h","lowercase","12000","0","6","01d92d17ed0ea9d99d2bac6381808c7ee69318be66dd3daf29c6bf4568786f8d","12003.700000047684","872.2000000476837","88","1","arctic","","","","",""
"dual-task","null","null","null","","arctic","arctic","351.60000014305115","","g","null","88","88","1","arctic-dual-task","","g","lowercase","24000","0","6","01d92d17ed0ea9d99d2bac6381808c7ee69318be66dd3daf29c6bf4568786f8d","24004.200000047684","351.60000014305115","88","1","arctic","","","","",""
"dual-task","null","null","null","","arctic","arctic","427.60000014305115","","R","null","77","77","1","arctic-dual-task","","R","uppercase","36000","0","6","01d92d17ed0ea9d99d2bac6381808c7ee69318be66dd3daf29c6bf4568786f8d","36010.10000014305","427.60000014305115","77","1","arctic","","","","",""
"dual-task","null","null","null","","arctic","arctic","406.10000014305115","","R","null","88","77","0","arctic-dual-task","","R","uppercase","46000","0","6","01d92d17ed0ea9d99d2bac6381808c7ee69318be66dd3daf29c6bf4568786f8d","46014","406.10000014305115","88","0","arctic","","","","",""
"dual-task","null","null","null","","arctic","arctic","473.2000000476837","","T","null","77","77","1","arctic-dual-task","","T","uppercase","60000","0","6","01d92d17ed0ea9d99d2bac6381808c7ee69318be66dd3daf29c6bf4568786f8d","60009.5","473.2000000476837","77","1","arctic","","","","",""
"dual-task","null","null","null","","arctic","arctic","434.2999999523163","","F","null","77","77","1","arctic-dual-task","","F","uppercase","70000","0","6","01d92d17ed0ea9d99d2bac6381808c7ee69318be66dd3daf29c6bf4568786f8d","70002.70000004768","434.2999999523163","77","1","arctic","","","","",""
"dual-task","null","null","null","","arctic","arctic","463.40000009536743","","B","null","77","77","1","arctic-dual-task","","B","uppercase","82000","0","6","01d92d17ed0ea9d99d2bac6381808c7ee69318be66dd3daf29c6bf4568786f8d","82004.70000004768","463.40000009536743","77","1","arctic","","","","",""
"dual-task","null","null","null","","arctic","arctic","371.2999999523163","","G","null","77","77","1","arctic-dual-task","","G","uppercase","92000","0","6","01d92d17ed0ea9d99d2bac6381808c7ee69318be66dd3daf29c6bf4568786f8d","92013.5","371.2999999523163","77","1","arctic","","","","",""
"dual-task","null","null","null","","arctic","arctic","442.2000000476837","","G","null","77","77","1","arctic-dual-task","","G","uppercase","104000","0","6","01d92d17ed0ea9d99d2bac6381808c7ee69318be66dd3daf29c6bf4568786f8d","104008.10000014305","442.2000000476837","77","1","arctic","","","","",""
"dual-task","null","null","null","","arctic","arctic","447.7999999523163","","N","null","77","77","1","arctic-dual-task","","N","uppercase","112000","0","6","01d92d17ed0ea9d99d2bac6381808c7ee69318be66dd3daf29c6bf4568786f8d","112006.5","447.7999999523163","77","1","arctic","","","","",""
"dual-task","null","null","null","","arctic","arctic","530","","F","null","77","77","1","arctic-dual-task","","F","uppercase","120000","0","6","01d92d17ed0ea9d99d2bac6381808c7ee69318be66dd3daf29c6bf4568786f8d","120003.70000004768","530","77","1","arctic","","","","",""
"dual-task","null","null","null","","arctic","arctic","365.60000014305115","","H","null","77","77","1","arctic-dual-task","","H","uppercase","130000","0","6","01d92d17ed0ea9d99d2bac6381808c7ee69318be66dd3daf29c6bf4568786f8d","130009.90000009537","365.60000014305115","77","1","arctic","","","","",""
"dual-task","null","null","null","","arctic","arctic","344.2000000476837","","A","null","77","77","1","arctic-dual-task","","A","uppercase","136000","0","6","01d92d17ed0ea9d99d2bac6381808c7ee69318be66dd3daf29c6bf4568786f8d","136014.10000014305","344.2000000476837","77","1","arctic","","","","",""
"dual-task","null","null","null","","arctic","arctic","317.7000000476837","","B","null","77","77","1","arctic-dual-task","","B","uppercase","144000","0","6","01d92d17ed0ea9d99d2bac6381808c7ee69318be66dd3daf29c6bf4568786f8d","144011.40000009537","317.7000000476837","77","1","arctic","","","","",""
"dual-task","null","null","null","","arctic","arctic","567.8999998569489","","a","null","88","88","1","arctic-dual-task","","a","lowercase","158000","0","6","01d92d17ed0ea9d99d2bac6381808c7ee69318be66dd3daf29c6bf4568786f8d","158008.70000004768","567.8999998569489","88","1","arctic","","","","",""
"dual-task","null","null","null","","arctic","arctic","383.2000000476837","","T","null","77","77","1","arctic-dual-task","","T","uppercase","168000","0","6","01d92d17ed0ea9d99d2bac6381808c7ee69318be66dd3daf29c6bf4568786f8d","168014.79999995232","383.2000000476837","77","1","arctic","","","","",""
"dual-task","null","null","null","","arctic","arctic","345.5","","h","null","77","88","0","arctic-dual-task","","h","lowercase","178000","0","6","01d92d17ed0ea9d99d2bac6381808c7ee69318be66dd3daf29c6bf4568786f8d","178005.60000014305","345.5","77","0","arctic","","","","",""
"dual-task","null","null","null","","arctic","arctic","506.7999999523163","","n","null","88","88","1","arctic-dual-task","","n","lowercase","188000","0","6","01d92d17ed0ea9d99d2bac6381808c7ee69318be66dd3daf29c6bf4568786f8d","188012.70000004768","506.7999999523163","88","1","arctic","","","","",""
"dual-task","null","null","null","","arctic","arctic","443","","E","null","77","77","1","arctic-dual-task","","E","uppercase","202000","0","6","01d92d17ed0ea9d99d2bac6381808c7ee69318be66dd3daf29c6bf4568786f8d","202005","443","77","1","arctic","","","","",""
"dual-task","null","null","null","","arctic","arctic","627.2999999523163","","r","null","88","88","1","arctic-dual-task","","r","lowercase","214000","0","6","01d92d17ed0ea9d99d2bac6381808c7ee69318be66dd3daf29c6bf4568786f8d","214006.90000009537","627.2999999523163","88","1","arctic","","","","",""
"dual-task","null","null","null","","arctic","arctic","490.40000009536743","","g","null","88","88","1","arctic-dual-task","","g","lowercase","220000","0","6","01d92d17ed0ea9d99d2bac6381808c7ee69318be66dd3daf29c6bf4568786f8d","220012.60000014305","490.40000009536743","88","1","arctic","","","","",""
"dual-task","null","null","null","","arctic","arctic","570.8000001907349","","b","null","88","88","1","arctic-dual-task","","b","lowercase","232000","0","6","01d92d17ed0ea9d99d2bac6381808c7ee69318be66dd3daf29c6bf4568786f8d","232012.10000014305","570.8000001907349","88","1","arctic","","","","",""
"dual-task","null","null","null","","arctic","arctic","456.2999999523163","","Q","null","77","77","1","arctic-dual-task","","Q","uppercase","240000","0","6","01d92d17ed0ea9d99d2bac6381808c7ee69318be66dd3daf29c6bf4568786f8d","240013.40000009537","456.2999999523163","77","1","arctic","","","","",""
"dual-task","null","null","null","","arctic","arctic","534.5","","f","null","88","88","1","arctic-dual-task","","f","lowercase","248000","0","6","01d92d17ed0ea9d99d2bac6381808c7ee69318be66dd3daf29c6bf4568786f8d","248005.60000014305","534.5","88","1","arctic","","","","",""
"dual-task","null","null","null","","arctic","arctic","380","","q","null","88","88","1","arctic-dual-task","","q","lowercase","258000","0","6","01d92d17ed0ea9d99d2bac6381808c7ee69318be66dd3daf29c6bf4568786f8d","258001.40000009537","380","88","1","arctic","","","","",""
"dual-task","null","null","null","","arctic","arctic","417.09999990463257","","r","null","88","88","1","arctic-dual-task","","r","lowercase","270000","0","6","01d92d17ed0ea9d99d2bac6381808c7ee69318be66dd3daf29c6bf4568786f8d","270005.2000000477","417.09999990463257","88","1","arctic","","","","",""
"dual-task","null","null","null","","arctic","arctic","466.90000009536743","","E","null","77","77","1","arctic-dual-task","","E","uppercase","282000","0","6","01d92d17ed0ea9d99d2bac6381808c7ee69318be66dd3daf29c6bf4568786f8d","282007","466.90000009536743","77","1","arctic","","","","",""
"dual-task","null","null","null","","arctic","arctic","332.60000014305115","","b","null","77","88","0","arctic-dual-task","","b","lowercase","292000","0","6","01d92d17ed0ea9d99d2bac6381808c7ee69318be66dd3daf29c6bf4568786f8d","292011.7999999523","332.60000014305115","77","0","arctic","","","","",""
"dual-task","null","null","null","","arctic","arctic","438.2999999523163","","e","null","88","88","1","arctic-dual-task","","e","lowercase","300000","0","6","01d92d17ed0ea9d99d2bac6381808c7ee69318be66dd3daf29c6bf4568786f8d","300009.40000009537","438.2999999523163","88","1","arctic","","","","",""
"dual-task","null","null","null","","arctic","arctic","453.7999999523163","","e","null","88","88","1","arctic-dual-task","","e","lowercase","306000","0","6","01d92d17ed0ea9d99d2bac6381808c7ee69318be66dd3daf29c6bf4568786f8d","306014.60000014305","453.7999999523163","88","1","arctic","","","","",""
"dual-task","null","null","null","","arctic","arctic","308.60000014305115","","Q","null","77","77","1","arctic-dual-task","","Q","uppercase","312000","0","6","01d92d17ed0ea9d99d2bac6381808c7ee69318be66dd3daf29c6bf4568786f8d","312000.2999999523","308.60000014305115","77","1","arctic","","","","",""
"dual-task","null","null","null","","arctic","arctic","446.09999990463257","","e","null","88","88","1","arctic-dual-task","","e","lowercase","318000","0","6","01d92d17ed0ea9d99d2bac6381808c7ee69318be66dd3daf29c6bf4568786f8d","318005","446.09999990463257","88","1","arctic","","","","",""
"dual-task","null","null","null","","arctic","arctic","504","","f","null","88","88","1","arctic-dual-task","","f","lowercase","332000","0","6","01d92d17ed0ea9d99d2bac6381808c7ee69318be66dd3daf29c6bf4568786f8d","332005.2999999523","504","88","1","arctic","","","","",""
"dual-task","null","null","null","","arctic","arctic","481.2000000476837","","d","null","88","88","1","arctic-dual-task","","d","lowercase","344000","0","6","01d92d17ed0ea9d99d2bac6381808c7ee69318be66dd3daf29c6bf4568786f8d","344010.10000014305","481.2000000476837","88","1","arctic","","","","",""
"dual-task","null","null","null","","arctic","arctic","492.80000019073486","","E","null","77","77","1","arctic-dual-task","","E","uppercase","350000","0","6","01d92d17ed0ea9d99d2bac6381808c7ee69318be66dd3daf29c6bf4568786f8d","350014.60000014305","492.80000019073486","77","1","arctic","","","","",""
"dual-task","null","null","null","","arctic","arctic","444.90000009536743","","D","null","77","77","1","arctic-dual-task","","D","uppercase","356000","0","6","01d92d17ed0ea9d99d2bac6381808c7ee69318be66dd3daf29c6bf4568786f8d","356014.2999999523","444.90000009536743","77","1","arctic","","","","",""
"dual-task","null","null","null","","arctic","arctic","481.60000014305115","","q","null","88","88","1","arctic-dual-task","","q","lowercase","368000","0","6","01d92d17ed0ea9d99d2bac6381808c7ee69318be66dd3daf29c6bf4568786f8d","368013.10000014305","481.60000014305115","88","1","arctic","","","","",""
"dual-task","null","null","null","","arctic","arctic","373.59999990463257","","A","null","77","77","1","arctic-dual-task","","A","uppercase","378000","0","6","01d92d17ed0ea9d99d2bac6381808c7ee69318be66dd3daf29c6bf4568786f8d","378015.2000000477","373.59999990463257","77","1","arctic","","","","",""
"dual-task","null","null","null","","arctic","arctic","417.90000009536743","","B","null","77","77","1","arctic-dual-task","","B","uppercase","390000","0","6","01d92d17ed0ea9d99d2bac6381808c7ee69318be66dd3daf29c6bf4568786f8d","390002.5","417.90000009536743","77","1","arctic","","","","",""
"dual-task","null","null","null","","arctic","arctic","451.90000009536743","","t","null","88","88","1","arctic-dual-task","","t","lowercase","402000","0","6","01d92d17ed0ea9d99d2bac6381808c7ee69318be66dd3daf29c6bf4568786f8d","402001.10000014305","451.90000009536743","88","1","arctic","","","","",""
"dual-task","null","null","null","","arctic","arctic","561.5999999046326","","b","null","77","88","0","arctic-dual-task","","b","lowercase","408000","0","6","01d92d17ed0ea9d99d2bac6381808c7ee69318be66dd3daf29c6bf4568786f8d","408001.90000009537","561.5999999046326","77","0","arctic","","","","",""
"dual-task","null","null","null","","arctic","arctic","596","","r","null","88","88","1","arctic-dual-task","","r","lowercase","414000","0","6","01d92d17ed0ea9d99d2bac6381808c7ee69318be66dd3daf29c6bf4568786f8d","414011","596","88","1","arctic","","","","",""
"dual-task","null","null","null","","arctic","arctic","438.5","","R","null","77","77","1","arctic-dual-task","","R","uppercase","428000","0","6","01d92d17ed0ea9d99d2bac6381808c7ee69318be66dd3daf29c6bf4568786f8d","428003.2999999523","438.5","77","1","arctic","","","","",""
"dual-task","null","null","null","","arctic","arctic","421.5","","d","null","88","88","1","arctic-dual-task","","d","lowercase","442000","0","6","01d92d17ed0ea9d99d2bac6381808c7ee69318be66dd3daf29c6bf4568786f8d","442012.60000014305","421.5","88","1","arctic","","","","",""
"dual-task","null","null","null","","arctic","arctic","340.40000009536743","","T","null","88","77","0","arctic-dual-task","","T","uppercase","448000","0","6","01d92d17ed0ea9d99d2bac6381808c7ee69318be66dd3daf29c6bf4568786f8d","448012.2000000477","340.40000009536743","88","0","arctic","","","","",""
"dual-task","null","null","null","","arctic","arctic","548.7999999523163","","n","null","88","88","1","arctic-dual-task","","n","lowercase","458000","0","6","01d92d17ed0ea9d99d2bac6381808c7ee69318be66dd3daf29c6bf4568786f8d","458012.7000000477","548.7999999523163","88","1","arctic","","","","",""
"dual-task","null","null","null","","arctic","arctic","507.90000009536743","","N","null","77","77","1","arctic-dual-task","","N","uppercase","468000","0","6","01d92d17ed0ea9d99d2bac6381808c7ee69318be66dd3daf29c6bf4568786f8d","468004","507.90000009536743","77","1","arctic","","","","",""
"dual-task","null","null","null","","arctic","arctic","360.39999985694885","","R","null","77","77","1","arctic-dual-task","","R","uppercase","476000","0","6","01d92d17ed0ea9d99d2bac6381808c7ee69318be66dd3daf29c6bf4568786f8d","476015.40000009537","360.39999985694885","77","1","arctic","","","","",""
"dual-task","null","null","null","","arctic","arctic","426.7999999523163","","A","null","77","77","1","arctic-dual-task","","A","uppercase","486000","0","6","01d92d17ed0ea9d99d2bac6381808c7ee69318be66dd3daf29c6bf4568786f8d","486008.7000000477","426.7999999523163","77","1","arctic","","","","",""
"dual-task","null","null","null","","arctic","arctic","356.7999999523163","","H","null","77","77","1","arctic-dual-task","","H","uppercase","496000","0","6","01d92d17ed0ea9d99d2bac6381808c7ee69318be66dd3daf29c6bf4568786f8d","496009.90000009537","356.7999999523163","77","1","arctic","","","","",""
"dual-task","null","null","null","","arctic","arctic","469.2999999523163","","F","null","77","77","1","arctic-dual-task","","F","uppercase","506000","0","6","01d92d17ed0ea9d99d2bac6381808c7ee69318be66dd3daf29c6bf4568786f8d","506003.7999999523","469.2999999523163","77","1","arctic","","","","",""
"dual-task","null","null","null","","arctic","arctic","322.7000000476837","","D","null","77","77","1","arctic-dual-task","","D","uppercase","516000","0","6","01d92d17ed0ea9d99d2bac6381808c7ee69318be66dd3daf29c6bf4568786f8d","516009.10000014305","322.7000000476837","77","1","arctic","","","","",""
"dual-task","null","null","null","","arctic","arctic","604.4000000953674","","t","null","88","88","1","arctic-dual-task","","t","lowercase","524000","0","6","01d92d17ed0ea9d99d2bac6381808c7ee69318be66dd3daf29c6bf4568786f8d","524006.10000014305","604.4000000953674","88","1","arctic","","","","",""
"dual-task","null","null","null","","arctic","arctic","445.60000014305115","","D","null","77","77","1","arctic-dual-task","","D","uppercase","532000","0","6","01d92d17ed0ea9d99d2bac6381808c7ee69318be66dd3daf29c6bf4568786f8d","532004.600000143","445.60000014305115","77","1","arctic","","","","",""
"dual-task","null","null","null","","arctic","arctic","338.7999999523163","","B","null","77","77","1","arctic-dual-task","","B","uppercase","540000","0","6","01d92d17ed0ea9d99d2bac6381808c7ee69318be66dd3daf29c6bf4568786f8d","540014","338.7999999523163","77","1","arctic","","","","",""
"dual-task","null","null","null","","arctic","arctic","542.7000000476837","","Q","null","77","77","1","arctic-dual-task","","Q","uppercase","548000","0","6","01d92d17ed0ea9d99d2bac6381808c7ee69318be66dd3daf29c6bf4568786f8d","548010.7000000477","542.7000000476837","77","1","arctic","","","","",""
"dual-task","null","null","null","","arctic","arctic","344.80000019073486","","D","null","77","77","1","arctic-dual-task","","D","uppercase","558000","0","6","01d92d17ed0ea9d99d2bac6381808c7ee69318be66dd3daf29c6bf4568786f8d","558005.100000143","344.80000019073486","77","1","arctic","","","","",""
"dual-task","null","null","null","","arctic","arctic","424.7000000476837","","q","null","88","88","1","arctic-dual-task","","q","lowercase","566000","0","6","01d92d17ed0ea9d99d2bac6381808c7ee69318be66dd3daf29c6bf4568786f8d","566002.600000143","424.7000000476837","88","1","arctic","","","","",""
"dual-task","null","null","null","","arctic","arctic","417.89999985694885","","d","null","88","88","1","arctic-dual-task","","d","lowercase","574000","0","6","01d92d17ed0ea9d99d2bac6381808c7ee69318be66dd3daf29c6bf4568786f8d","574001.100000143","417.89999985694885","88","1","arctic","","","","",""
"dual-task","null","null","null","","arctic","arctic","462.5","","E","null","77","77","1","arctic-dual-task","","E","uppercase","582000","0","6","01d92d17ed0ea9d99d2bac6381808c7ee69318be66dd3daf29c6bf4568786f8d","582014.9000000954","462.5","77","1","arctic","","","","",""
"dual-task","null","null","null","","arctic","arctic","417.2000000476837","","G","null","77","77","1","arctic-dual-task","","G","uppercase","588000","0","6","01d92d17ed0ea9d99d2bac6381808c7ee69318be66dd3daf29c6bf4568786f8d","588003.7000000477","417.2000000476837","77","1","arctic","","","","",""
"dual-task","null","null","null","","arctic","arctic","494","","n","null","88","88","1","arctic-dual-task","","n","lowercase","596000","0","6","01d92d17ed0ea9d99d2bac6381808c7ee69318be66dd3daf29c6bf4568786f8d","596000.600000143","494","88","1","arctic","","","","",""
"dual-task","null","null","null","","arctic","arctic","395.40000009536743","","A","null","77","77","1","arctic-dual-task","","A","uppercase","606000","0","6","01d92d17ed0ea9d99d2bac6381808c7ee69318be66dd3daf29c6bf4568786f8d","606012","395.40000009536743","77","1","arctic","","","","",""
"dual-task","null","null","null","","arctic","arctic","420","","n","null","88","88","1","arctic-dual-task","","n","lowercase","616000","0","6","01d92d17ed0ea9d99d2bac6381808c7ee69318be66dd3daf29c6bf4568786f8d","616002.5","420","88","1","arctic","","","","",""
"dual-task","null","null","null","","arctic","arctic","506","","h","null","88","88","1","arctic-dual-task","","h","lowercase","626000","0","6","01d92d17ed0ea9d99d2bac6381808c7ee69318be66dd3daf29c6bf4568786f8d","626013.2000000477","506","88","1","arctic","","","","",""
"dual-task","null","null","null","","arctic","arctic","461.60000014305115","","q","null","88","88","1","arctic-dual-task","","q","lowercase","634000","0","6","01d92d17ed0ea9d99d2bac6381808c7ee69318be66dd3daf29c6bf4568786f8d","634008.100000143","461.60000014305115","88","1","arctic","","","","",""
"dual-task","null","null","null","","arctic","arctic","473.69999980926514","","N","null","77","77","1","arctic-dual-task","","N","uppercase","640000","0","6","01d92d17ed0ea9d99d2bac6381808c7ee69318be66dd3daf29c6bf4568786f8d","640006","473.69999980926514","77","1","arctic","","","","",""
"dual-task","null","null","null","","arctic","arctic","363","","Q","null","77","77","1","arctic-dual-task","","Q","uppercase","648000","0","6","01d92d17ed0ea9d99d2bac6381808c7ee69318be66dd3daf29c6bf4568786f8d","648005","363","77","1","arctic","","","","",""
"dual-task","null","null","null","","arctic","arctic","462.7999999523163","","d","null","88","88","1","arctic-dual-task","","d","lowercase","660000","0","6","01d92d17ed0ea9d99d2bac6381808c7ee69318be66dd3daf29c6bf4568786f8d","660007.600000143","462.7999999523163","88","1","arctic","","","","",""
"dual-task","null","null","null","","arctic","arctic","428.59999990463257","","H","null","77","77","1","arctic-dual-task","","H","uppercase","668000","0","6","01d92d17ed0ea9d99d2bac6381808c7ee69318be66dd3daf29c6bf4568786f8d","668009.4000000954","428.59999990463257","77","1","arctic","","","","",""
"dual-task","null","null","null","","arctic","arctic","424.09999990463257","","b","null","88","88","1","arctic-dual-task","","b","lowercase","676000","0","6","01d92d17ed0ea9d99d2bac6381808c7ee69318be66dd3daf29c6bf4568786f8d","676009.4000000954","424.09999990463257","88","1","arctic","","","","",""
"dual-task","null","null","null","","arctic","arctic","412.90000009536743","","t","null","88","88","1","arctic-dual-task","","t","lowercase","686000","0","6","01d92d17ed0ea9d99d2bac6381808c7ee69318be66dd3daf29c6bf4568786f8d","686013.600000143","412.90000009536743","88","1","arctic","","","","",""
"dual-task","null","null","null","","arctic","arctic","520.5","","a","null","88","88","1","arctic-dual-task","","a","lowercase","692000","0","6","01d92d17ed0ea9d99d2bac6381808c7ee69318be66dd3daf29c6bf4568786f8d","692015.7000000477","520.5","88","1","arctic","","","","",""
"dual-task","null","null","null","","arctic","arctic","503.90000009536743","","t","null","88","88","1","arctic-dual-task","","t","lowercase","702000","0","6","01d92d17ed0ea9d99d2bac6381808c7ee69318be66dd3daf29c6bf4568786f8d","702009.2999999523","503.90000009536743","88","1","arctic","","","","",""
"dual-task","null","null","null","","arctic","arctic","567.7000000476837","","G","null","77","77","1","arctic-dual-task","","G","uppercase","710000","0","6","01d92d17ed0ea9d99d2bac6381808c7ee69318be66dd3daf29c6bf4568786f8d","710004","567.7000000476837","77","1","arctic","","","","",""
"dual-task","null","null","null","","arctic","arctic","520.8999998569489","","g","null","88","88","1","arctic-dual-task","","g","lowercase","716000","0","6","01d92d17ed0ea9d99d2bac6381808c7ee69318be66dd3daf29c6bf4568786f8d","716006.5","520.8999998569489","88","1","arctic","","","","",""
"dual-task","null","null","null","","arctic","arctic","563.1000001430511","","r","null","88","88","1","arctic-dual-task","","r","lowercase","724000","0","6","01d92d17ed0ea9d99d2bac6381808c7ee69318be66dd3daf29c6bf4568786f8d","724014","563.1000001430511","88","1","arctic","","","","",""
"dual-task","null","null","null","","arctic","arctic","384.89999985694885","","H","null","77","77","1","arctic-dual-task","","H","uppercase","732000","0","6","01d92d17ed0ea9d99d2bac6381808c7ee69318be66dd3daf29c6bf4568786f8d","732009.9000000954","384.89999985694885","77","1","arctic","","","","",""
"dual-task","null","null","null","","arctic","arctic","355","","a","null","88","88","1","arctic-dual-task","","a","lowercase","740000","0","6","01d92d17ed0ea9d99d2bac6381808c7ee69318be66dd3daf29c6bf4568786f8d","740007.600000143","355","88","1","arctic","","","","",""
"dual-task","null","null","null","","arctic","arctic","562.2999999523163","","h","null","88","88","1","arctic-dual-task","","h","lowercase","748000","0","6","01d92d17ed0ea9d99d2bac6381808c7ee69318be66dd3daf29c6bf4568786f8d","748001.600000143","562.2999999523163","88","1","arctic","","","","",""
"dual-task","null","null","null","","arctic","arctic","394.90000009536743","","f","null","88","88","1","arctic-dual-task","","f","lowercase","760000","0","6","01d92d17ed0ea9d99d2bac6381808c7ee69318be66dd3daf29c6bf4568786f8d","760007.5","394.90000009536743","88","1","arctic","","","","",""
"dual-task","null","null","null","","arctic","arctic","412.69999980926514","","e","null","88","88","1","arctic-dual-task","","e","lowercase","770000","0","6","01d92d17ed0ea9d99d2bac6381808c7ee69318be66dd3daf29c6bf4568786f8d","770008.5","412.69999980926514","88","1","arctic","","","","",""
"dual-task","null","null","null","","arctic","arctic","461.2999999523163","","a","null","88","88","1","arctic-dual-task","","a","lowercase","776000","0","6","01d92d17ed0ea9d99d2bac6381808c7ee69318be66dd3daf29c6bf4568786f8d","776010","461.2999999523163","88","1","arctic","","","","",""
"dual-task","null","null","null","","arctic","arctic","526","","f","null","88","88","1","arctic-dual-task","","f","lowercase","790000","0","6","01d92d17ed0ea9d99d2bac6381808c7ee69318be66dd3daf29c6bf4568786f8d","790003.5","526","88","1","arctic","","","","",""
"audio-keyboard-response","29","908908","0.0-6.0-0.0-1.0","01d92d17ed0ea9d99d2bac6381808c7ee69318be66dd3daf29c6bf4568786f8d","arctic","arctic","null","","audio/story_arctic_scrambled.mp3","","null","","","","","","","","","","","","","","","","","","","",""
"html-button-response","30","911786","0.0-6.0-0.0-2.0","01d92d17ed0ea9d99d2bac6381808c7ee69318be66dd3daf29c6bf4568786f8d","arctic","arctic","2877","","<p>This concludes the story. Thank you for listening.</p><p>You will now answer some questions about the content of the story.</p>","0","","","","","","","","","","","","","","","","","","","","",""
"survey-multi-choice","31","916369","0.0-6.0-0.0-3.0-0.0","01d92d17ed0ea9d99d2bac6381808c7ee69318be66dd3daf29c6bf4568786f8d","arctic","arctic","4580","","<b>How many sponsorships did the narrator receive to support her expedition?</b>","","","","1","arctic-comprehension","","","","","","","","","","","","","{""Q0"":""None""}","","","",""
"survey-multi-choice","32","922029","0.0-6.0-0.0-3.0-0.1","01d92d17ed0ea9d99d2bac6381808c7ee69318be66dd3daf29c6bf4568786f8d","arctic","arctic","5406","","<b>How did the narrator&#39;s encounter with the polar bears end?</b>","","","","1","arctic-comprehension","","","","","","","","","","","","","{""Q0"":""The bears walked back to their den.""}","","","",""
"survey-multi-choice","33","929740","0.0-6.0-0.0-3.0-0.2","01d92d17ed0ea9d99d2bac6381808c7ee69318be66dd3daf29c6bf4568786f8d","arctic","arctic","7453","","<b>How did the narrator&#39;s neighbour respond when she told him about her expedition?</b>","","","","1","arctic-comprehension","","","","","","","","","","","","","{""Q0"":""He said she was going to fail.""}","","","",""
"survey-multi-choice","34","933939","0.0-6.0-0.0-3.0-0.3","01d92d17ed0ea9d99d2bac6381808c7ee69318be66dd3daf29c6bf4568786f8d","arctic","arctic","3934","","<b>What did the narrator do for leisure while in her tent?</b>","","","","1","arctic-comprehension","","","","","","","","","","","","","{""Q0"":""Read""}","","","",""
"survey-multi-choice","35","938008","0.0-6.0-0.0-3.0-0.4","01d92d17ed0ea9d99d2bac6381808c7ee69318be66dd3daf29c6bf4568786f8d","arctic","arctic","3816","","<b>Which dog on the narrator&#39;s dog team never followed instructions?</b>","","","","1","arctic-comprehension","","","","","","","","","","","","","{""Q0"":""Robert""}","","","",""
"survey-multi-choice","36","942813","0.0-6.0-0.0-3.0-0.5","01d92d17ed0ea9d99d2bac6381808c7ee69318be66dd3daf29c6bf4568786f8d","arctic","arctic","4552","","<b>What was the objective of the narrator&#39;s expedition?</b>","","","","1","arctic-comprehension","","","","","","","","","","","","","{""Q0"":""Dogsled across Arctic America""}","","","",""
"survey-multi-choice","37","947345","0.0-6.0-0.0-3.0-0.6","01d92d17ed0ea9d99d2bac6381808c7ee69318be66dd3daf29c6bf4568786f8d","arctic","arctic","4279","","<b>What is the name of the narrator&#39;s neighbour?</b>","","","","1","arctic-comprehension","","","","","","","","","","","","","{""Q0"":""Dave""}","","","",""
"survey-multi-choice","38","951736","0.0-6.0-0.0-3.0-0.7","01d92d17ed0ea9d99d2bac6381808c7ee69318be66dd3daf29c6bf4568786f8d","arctic","arctic","4139","","<b>How did the dogs respond when they saw the bears?</b>","","","","1","arctic-comprehension","","","","","","","","","","","","","{""Q0"":""Approached them""}","","","",""
"survey-multi-choice","39","959386","0.0-6.0-0.0-3.0-0.8","01d92d17ed0ea9d99d2bac6381808c7ee69318be66dd3daf29c6bf4568786f8d","arctic","arctic","7397","","<b>How did the narrator prepare for her expedition?</b>","","","","1","arctic-comprehension","","","","","","","","","","","","","{""Q0"":""Trained in Alaska learning how to dogsled""}","","","",""
"survey-multi-choice","40","965391","0.0-6.0-0.0-3.0-0.9","01d92d17ed0ea9d99d2bac6381808c7ee69318be66dd3daf29c6bf4568786f8d","arctic","arctic","5752","","<b>What were the weather conditions in the Arctic like the winter of the narrator&#39;s expedition?</b>","","","","1","arctic-comprehension","","","","","","","","","","","","","{""Q0"":""There were more storms than any other winter in recorded history.""}","","","",""
"html-button-response","41","966552","0.0-6.0-0.0-4.0","01d92d17ed0ea9d99d2bac6381808c7ee69318be66dd3daf29c6bf4568786f8d","arctic","arctic","908","","<p>Thank you for your responses.</p><p>You will now answer some questions about your impressions of the story.</p>","0","","","","","","","","","","","","","","","","","","","","",""
"html-button-response","42","968990","0.0-6.0-0.0-5.0-0.0","01d92d17ed0ea9d99d2bac6381808c7ee69318be66dd3daf29c6bf4568786f8d","arctic","arctic","2437","","MS2","6","","","","arctic-engagement","","","","","","","","","","","","","","7","mental-sim","",""
"html-button-response","43","972159","0.0-6.0-0.0-5.0-0.1","01d92d17ed0ea9d99d2bac6381808c7ee69318be66dd3daf29c6bf4568786f8d","arctic","arctic","2916","","A4","6","","","","arctic-engagement","","","","","","","","","","","","","","7","absorption","",""
"html-button-response","44","974040","0.0-6.0-0.0-5.0-0.2","01d92d17ed0ea9d99d2bac6381808c7ee69318be66dd3daf29c6bf4568786f8d","arctic","arctic","1629","","E7","6","","","","arctic-engagement","","","","","","","","","","","","","","7","enjoyment","",""
"html-button-response","45","976794","0.0-6.0-0.0-5.0-0.3","01d92d17ed0ea9d99d2bac6381808c7ee69318be66dd3daf29c6bf4568786f8d","arctic","arctic","2503","","A1","6","","","","arctic-engagement","","","","","","","","","","","","","","7","absorption","",""
"html-button-response","46","979889","0.0-6.0-0.0-5.0-0.4","01d92d17ed0ea9d99d2bac6381808c7ee69318be66dd3daf29c6bf4568786f8d","arctic","arctic","2843","","A5","6","","","","arctic-engagement","","","","","","","","","","","","","","7","absorption","",""
"html-button-response","47","981529","0.0-6.0-0.0-5.0-0.5","01d92d17ed0ea9d99d2bac6381808c7ee69318be66dd3daf29c6bf4568786f8d","arctic","arctic","1390","","A3","6","","","","arctic-engagement","","","","","","","","","","","","","","7","absorption","",""
"html-button-response","48","982810","0.0-6.0-0.0-5.0-0.6","01d92d17ed0ea9d99d2bac6381808c7ee69318be66dd3daf29c6bf4568786f8d","arctic","arctic","1028","","E8","6","","","","arctic-engagement","","","","","","","","","","","","","","7","enjoyment","",""
"html-button-response","49","986429","0.0-6.0-0.0-5.0-0.7","01d92d17ed0ea9d99d2bac6381808c7ee69318be66dd3daf29c6bf4568786f8d","arctic","arctic","3367","","EE3","4","","","","arctic-engagement","","","","","","","","","","","","","","5","emo-engage","",""
"html-button-response","50","988086","0.0-6.0-0.0-5.0-0.8","01d92d17ed0ea9d99d2bac6381808c7ee69318be66dd3daf29c6bf4568786f8d","arctic","arctic","1405","","MS3","6","","","","arctic-engagement","","","","","","","","","","","","","","7","mental-sim","",""
"html-button-response","51","989347","0.0-6.0-0.0-5.0-0.9","01d92d17ed0ea9d99d2bac6381808c7ee69318be66dd3daf29c6bf4568786f8d","arctic","arctic","1009","","EE5","6","","","","arctic-engagement","","","","","","","","","","","","","","7","emo-engage","",""
"html-button-response","52","991432","0.0-6.0-0.0-5.0-0.10","01d92d17ed0ea9d99d2bac6381808c7ee69318be66dd3daf29c6bf4568786f8d","arctic","arctic","1832","","A2","6","","","","arctic-engagement","","","","","","","","","","","","","","7","absorption","",""
"html-button-response","53","993405","0.0-6.0-0.0-5.0-0.11","01d92d17ed0ea9d99d2bac6381808c7ee69318be66dd3daf29c6bf4568786f8d","arctic","arctic","1721","","E1","6","","","","arctic-engagement","","","","","","","","","","","","","","7","enjoyment","",""
"html-button-response","54","995282","0.0-6.0-0.0-5.0-0.12","01d92d17ed0ea9d99d2bac6381808c7ee69318be66dd3daf29c6bf4568786f8d","arctic","arctic","1626","","EE4","6","","","","arctic-engagement","","","","","","","","","","","","","","7","emo-engage","",""
"html-button-response","55","996901","0.0-6.0-0.0-5.0-0.13","01d92d17ed0ea9d99d2bac6381808c7ee69318be66dd3daf29c6bf4568786f8d","arctic","arctic","1368","","E6","6","","","","arctic-engagement","","","","","","","","","","","","","","7","enjoyment","",""
"html-button-response","56","1000213","0.0-6.0-0.0-5.0-0.14","01d92d17ed0ea9d99d2bac6381808c7ee69318be66dd3daf29c6bf4568786f8d","arctic","arctic","3060","","EE1","6","","","","arctic-engagement","","","","","","","","","","","","","","7","emo-engage","",""
"html-button-response","57","1001696","0.0-6.0-0.0-5.0-0.15","01d92d17ed0ea9d99d2bac6381808c7ee69318be66dd3daf29c6bf4568786f8d","arctic","arctic","1232","","EE2","6","","","","arctic-engagement","","","","","","","","","","","","","","7","emo-engage","",""
"html-button-response","58","1003181","0.0-6.0-0.0-5.0-0.16","01d92d17ed0ea9d99d2bac6381808c7ee69318be66dd3daf29c6bf4568786f8d","arctic","arctic","1233","","E10","6","","","","arctic-engagement","","","","","","","","","","","","","","7","enjoyment","",""
"html-button-response","59","1005740","0.0-6.0-0.0-5.0-0.17","01d92d17ed0ea9d99d2bac6381808c7ee69318be66dd3daf29c6bf4568786f8d","arctic","arctic","2307","","MS1","6","","","","arctic-engagement","","","","","","","","","","","","","","7","mental-sim","",""
"html-keyboard-response","60","1022418","0.0-6.0-1.0","01d92d17ed0ea9d99d2bac6381808c7ee69318be66dd3daf29c6bf4568786f8d","arctic","arctic","16426","","<p>Thank you for your responses. You will now listen to the second story.</p><p>Remember, as you listen to the story you will see letters appear on the screen.</br>As quickly as possible, press <b>&lt;x&gt;</b> if the letter is lowercase and <b>&lt;m&gt;</b> if the letter is uppercase.</p><p>Press <b>&lt;x&gt;</b> or <b>&lt;m&gt;</b> to begin listening!</p>","","88","","","","","","","","","","","","","","","","","","","",""
"html-keyboard-response","61","1022919","0.0-6.0-2.0-0.0","01d92d17ed0ea9d99d2bac6381808c7ee69318be66dd3daf29c6bf4568786f8d","arctic","arctic","null","","<div style=""font-size:60px;"" tabindex=""0"">+</div>","","null","","","","","","","","","","","","","","","","","","","",""
"dual-task","null","null","null","","arctic","arctic","542.5999999046326","","r","null","88","88","1","swim-dual-task","","r","lowercase","18000","0","6","01d92d17ed0ea9d99d2bac6381808c7ee69318be66dd3daf29c6bf4568786f8d","18003.299999952316","542.5999999046326","88","1","swim","","","","",""
"dual-task","null","null","null","","arctic","arctic","494.10000014305115","","E","null","77","77","1","swim-dual-task","","E","uppercase","30000","0","6","01d92d17ed0ea9d99d2bac6381808c7ee69318be66dd3daf29c6bf4568786f8d","30000","494.10000014305115","77","1","swim","","","","",""
"dual-task","null","null","null","","arctic","arctic","439.5","","a","null","88","88","1","swim-dual-task","","a","lowercase","40000","0","6","01d92d17ed0ea9d99d2bac6381808c7ee69318be66dd3daf29c6bf4568786f8d","40002.5","439.5","88","1","swim","","","","",""
"dual-task","null","null","null","","arctic","arctic","511","","d","null","88","88","1","swim-dual-task","","d","lowercase","54000","0","6","01d92d17ed0ea9d99d2bac6381808c7ee69318be66dd3daf29c6bf4568786f8d","54007.299999952316","511","88","1","swim","","","","",""
"dual-task","null","null","null","","arctic","arctic","401.19999980926514","","A","null","77","77","1","swim-dual-task","","A","uppercase","62000","0","6","01d92d17ed0ea9d99d2bac6381808c7ee69318be66dd3daf29c6bf4568786f8d","62005.59999990463","401.19999980926514","77","1","swim","","","","",""
"dual-task","null","null","null","","arctic","arctic","454.7999999523163","","F","null","77","77","1","swim-dual-task","","F","uppercase","76000","0","6","01d92d17ed0ea9d99d2bac6381808c7ee69318be66dd3daf29c6bf4568786f8d","76003.70000004768","454.7999999523163","77","1","swim","","","","",""
"dual-task","null","null","null","","arctic","arctic","442.5","","e","null","88","88","1","swim-dual-task","","e","lowercase","86000","0","6","01d92d17ed0ea9d99d2bac6381808c7ee69318be66dd3daf29c6bf4568786f8d","86008.40000009537","442.5","88","1","swim","","","","",""
"dual-task","null","null","null","","arctic","arctic","467.90000009536743","","n","null","88","88","1","swim-dual-task","","n","lowercase","100000","0","6","01d92d17ed0ea9d99d2bac6381808c7ee69318be66dd3daf29c6bf4568786f8d","100000.29999995232","467.90000009536743","88","1","swim","","","","",""
"dual-task","null","null","null","","arctic","arctic","384.5","","e","null","88","88","1","swim-dual-task","","e","lowercase","106000","0","6","01d92d17ed0ea9d99d2bac6381808c7ee69318be66dd3daf29c6bf4568786f8d","106008.40000009537","384.5","88","1","swim","","","","",""
"dual-task","null","null","null","","arctic","arctic","443.90000009536743","","G","null","77","77","1","swim-dual-task","","G","uppercase","114000","0","6","01d92d17ed0ea9d99d2bac6381808c7ee69318be66dd3daf29c6bf4568786f8d","114002.90000009537","443.90000009536743","77","1","swim","","","","",""
"dual-task","null","null","null","","arctic","arctic","380.2999999523163","","b","null","88","88","1","swim-dual-task","","b","lowercase","128000","0","6","01d92d17ed0ea9d99d2bac6381808c7ee69318be66dd3daf29c6bf4568786f8d","128008.40000009537","380.2999999523163","88","1","swim","","","","",""
"dual-task","null","null","null","","arctic","arctic","508.40000009536743","","a","null","88","88","1","swim-dual-task","","a","lowercase","140000","0","6","01d92d17ed0ea9d99d2bac6381808c7ee69318be66dd3daf29c6bf4568786f8d","140011.09999990463","508.40000009536743","88","1","swim","","","","",""
"dual-task","null","null","null","","arctic","arctic","435.09999990463257","","N","null","77","77","1","swim-dual-task","","N","uppercase","152000","0","6","01d92d17ed0ea9d99d2bac6381808c7ee69318be66dd3daf29c6bf4568786f8d","152014.40000009537","435.09999990463257","77","1","swim","","","","",""
"dual-task","null","null","null","","arctic","arctic","387.59999990463257","","e","null","88","88","1","swim-dual-task","","e","lowercase","164000","0","6","01d92d17ed0ea9d99d2bac6381808c7ee69318be66dd3daf29c6bf4568786f8d","164013.90000009537","387.59999990463257","88","1","swim","","","","",""
"dual-task","null","null","null","","arctic","arctic","453.90000009536743","","F","null","77","77","1","swim-dual-task","","F","uppercase","172000","0","6","01d92d17ed0ea9d99d2bac6381808c7ee69318be66dd3daf29c6bf4568786f8d","172004.90000009537","453.90000009536743","77","1","swim","","","","",""
"dual-task","null","null","null","","arctic","arctic","427.40000009536743","","G","null","77","77","1","swim-dual-task","","G","uppercase","184000","0","6","01d92d17ed0ea9d99d2bac6381808c7ee69318be66dd3daf29c6bf4568786f8d","184003.59999990463","427.40000009536743","77","1","swim","","","","",""
"dual-task","null","null","null","","arctic","arctic","369.7000000476837","","T","null","77","77","1","swim-dual-task","","T","uppercase","194000","0","6","01d92d17ed0ea9d99d2bac6381808c7ee69318be66dd3daf29c6bf4568786f8d","194003.5","369.7000000476837","77","1","swim","","","","",""
"dual-task","null","null","null","","arctic","arctic","270.7999999523163","","d","null","88","88","1","swim-dual-task","","d","lowercase","206000","0","6","01d92d17ed0ea9d99d2bac6381808c7ee69318be66dd3daf29c6bf4568786f8d","206014.70000004768","270.7999999523163","88","1","swim","","","","",""
"dual-task","null","null","null","","arctic","arctic","605.1999998092651","","b","null","88","88","1","swim-dual-task","","b","lowercase","220000","0","6","01d92d17ed0ea9d99d2bac6381808c7ee69318be66dd3daf29c6bf4568786f8d","220010","605.1999998092651","88","1","swim","","","","",""
"dual-task","null","null","null","","arctic","arctic","490","","a","null","88","88","1","swim-dual-task","","a","lowercase","232000","0","6","01d92d17ed0ea9d99d2bac6381808c7ee69318be66dd3daf29c6bf4568786f8d","232003.29999995232","490","88","1","swim","","","","",""
"dual-task","null","null","null","","arctic","arctic","412.59999990463257","","H","null","77","77","1","swim-dual-task","","H","uppercase","242000","0","6","01d92d17ed0ea9d99d2bac6381808c7ee69318be66dd3daf29c6bf4568786f8d","242007.79999995232","412.59999990463257","77","1","swim","","","","",""
"dual-task","null","null","null","","arctic","arctic","414","","t","null","88","88","1","swim-dual-task","","t","lowercase","256000","0","6","01d92d17ed0ea9d99d2bac6381808c7ee69318be66dd3daf29c6bf4568786f8d","256010.40000009537","414","88","1","swim","","","","",""
"dual-task","null","null","null","","arctic","arctic","527.7000000476837","","A","null","88","77","0","swim-dual-task","","A","uppercase","262000","0","6","01d92d17ed0ea9d99d2bac6381808c7ee69318be66dd3daf29c6bf4568786f8d","262015","527.7000000476837","88","0","swim","","","","",""
"dual-task","null","null","null","","arctic","arctic","455.90000009536743","","B","null","77","77","1","swim-dual-task","","B","uppercase","272000","0","6","01d92d17ed0ea9d99d2bac6381808c7ee69318be66dd3daf29c6bf4568786f8d","272004","455.90000009536743","77","1","swim","","","","",""
"dual-task","null","null","null","","arctic","arctic","549.7000000476837","","a","null","88","88","1","swim-dual-task","","a","lowercase","280000","0","6","01d92d17ed0ea9d99d2bac6381808c7ee69318be66dd3daf29c6bf4568786f8d","280011.90000009537","549.7000000476837","88","1","swim","","","","",""
"dual-task","null","null","null","","arctic","arctic","497.90000009536743","","e","null","88","88","1","swim-dual-task","","e","lowercase","288000","0","6","01d92d17ed0ea9d99d2bac6381808c7ee69318be66dd3daf29c6bf4568786f8d","288010.7999999523","497.90000009536743","88","1","swim","","","","",""
"dual-task","null","null","null","","arctic","arctic","485.59999990463257","","B","null","77","77","1","swim-dual-task","","B","uppercase","300000","0","6","01d92d17ed0ea9d99d2bac6381808c7ee69318be66dd3daf29c6bf4568786f8d","300011.2000000477","485.59999990463257","77","1","swim","","","","",""
"dual-task","null","null","null","","arctic","arctic","474.39999985694885","","f","null","88","88","1","swim-dual-task","","f","lowercase","308000","0","6","01d92d17ed0ea9d99d2bac6381808c7ee69318be66dd3daf29c6bf4568786f8d","308012.7000000477","474.39999985694885","88","1","swim","","","","",""
"dual-task","null","null","null","","arctic","arctic","428.5","","Q","null","77","77","1","swim-dual-task","","Q","uppercase","314000","0","6","01d92d17ed0ea9d99d2bac6381808c7ee69318be66dd3daf29c6bf4568786f8d","314005.2999999523","428.5","77","1","swim","","","","",""
"dual-task","null","null","null","","arctic","arctic","507.2000000476837","","A","null","77","77","1","swim-dual-task","","A","uppercase","324000","0","6","01d92d17ed0ea9d99d2bac6381808c7ee69318be66dd3daf29c6bf4568786f8d","324011.7000000477","507.2000000476837","77","1","swim","","","","",""
"dual-task","null","null","null","","arctic","arctic","512.5999999046326","","H","null","77","77","1","swim-dual-task","","H","uppercase","334000","0","6","01d92d17ed0ea9d99d2bac6381808c7ee69318be66dd3daf29c6bf4568786f8d","334000.09999990463","512.5999999046326","77","1","swim","","","","",""
"dual-task","null","null","null","","arctic","arctic","500.40000009536743","","t","null","88","88","1","swim-dual-task","","t","lowercase","342000","0","6","01d92d17ed0ea9d99d2bac6381808c7ee69318be66dd3daf29c6bf4568786f8d","342014.2999999523","500.40000009536743","88","1","swim","","","","",""
"dual-task","null","null","null","","arctic","arctic","400.59999990463257","","R","null","77","77","1","swim-dual-task","","R","uppercase","350000","0","6","01d92d17ed0ea9d99d2bac6381808c7ee69318be66dd3daf29c6bf4568786f8d","350011.7999999523","400.59999990463257","77","1","swim","","","","",""
"dual-task","null","null","null","","arctic","arctic","407.2000000476837","","A","null","77","77","1","swim-dual-task","","A","uppercase","358000","0","6","01d92d17ed0ea9d99d2bac6381808c7ee69318be66dd3daf29c6bf4568786f8d","358007.09999990463","407.2000000476837","77","1","swim","","","","",""
"dual-task","null","null","null","","arctic","arctic","395.2000000476837","","H","null","77","77","1","swim-dual-task","","H","uppercase","368000","0","6","01d92d17ed0ea9d99d2bac6381808c7ee69318be66dd3daf29c6bf4568786f8d","368015.2000000477","395.2000000476837","77","1","swim","","","","",""
"dual-task","null","null","null","","arctic","arctic","437.40000009536743","","D","null","77","77","1","swim-dual-task","","D","uppercase","376000","0","6","01d92d17ed0ea9d99d2bac6381808c7ee69318be66dd3daf29c6bf4568786f8d","376013.7999999523","437.40000009536743","77","1","swim","","","","",""
"dual-task","null","null","null","","arctic","arctic","491.39999985694885","","n","null","88","88","1","swim-dual-task","","n","lowercase","386000","0","6","01d92d17ed0ea9d99d2bac6381808c7ee69318be66dd3daf29c6bf4568786f8d","386001.09999990463","491.39999985694885","88","1","swim","","","","",""
"dual-task","null","null","null","","arctic","arctic","330.7999999523163","","Q","null","77","77","1","swim-dual-task","","Q","uppercase","396000","0","6","01d92d17ed0ea9d99d2bac6381808c7ee69318be66dd3daf29c6bf4568786f8d","396010.7999999523","330.7999999523163","77","1","swim","","","","",""
"dual-task","null","null","null","","arctic","arctic","419.2999999523163","","B","null","77","77","1","swim-dual-task","","B","uppercase","402000","0","6","01d92d17ed0ea9d99d2bac6381808c7ee69318be66dd3daf29c6bf4568786f8d","401999.90000009537","419.2999999523163","77","1","swim","","","","",""
"dual-task","null","null","null","","arctic","arctic","496.2000000476837","","G","null","77","77","1","swim-dual-task","","G","uppercase","414000","0","6","01d92d17ed0ea9d99d2bac6381808c7ee69318be66dd3daf29c6bf4568786f8d","414001.90000009537","496.2000000476837","77","1","swim","","","","",""
"dual-task","null","null","null","","arctic","arctic","468.2999999523163","","d","null","88","88","1","swim-dual-task","","d","lowercase","426000","0","6","01d92d17ed0ea9d99d2bac6381808c7ee69318be66dd3daf29c6bf4568786f8d","426015.7000000477","468.2999999523163","88","1","swim","","","","",""
"dual-task","null","null","null","","arctic","arctic","594.5","","T","null","77","77","1","swim-dual-task","","T","uppercase","434000","0","6","01d92d17ed0ea9d99d2bac6381808c7ee69318be66dd3daf29c6bf4568786f8d","434011.09999990463","594.5","77","1","swim","","","","",""
"dual-task","null","null","null","","arctic","arctic","518","","g","null","88","88","1","swim-dual-task","","g","lowercase","446000","0","6","01d92d17ed0ea9d99d2bac6381808c7ee69318be66dd3daf29c6bf4568786f8d","446009.09999990463","518","88","1","swim","","","","",""
"dual-task","null","null","null","","arctic","arctic","384.2000000476837","","D","null","88","77","0","swim-dual-task","","D","uppercase","452000","0","6","01d92d17ed0ea9d99d2bac6381808c7ee69318be66dd3daf29c6bf4568786f8d","452012.2000000477","384.2000000476837","88","0","swim","","","","",""
"dual-task","null","null","null","","arctic","arctic","549.2999999523163","","N","null","77","77","1","swim-dual-task","","N","uppercase","462000","0","6","01d92d17ed0ea9d99d2bac6381808c7ee69318be66dd3daf29c6bf4568786f8d","462010.2999999523","549.2999999523163","77","1","swim","","","","",""
"dual-task","null","null","null","","arctic","arctic","477","","q","null","88","88","1","swim-dual-task","","q","lowercase","468000","0","6","01d92d17ed0ea9d99d2bac6381808c7ee69318be66dd3daf29c6bf4568786f8d","468010","477","88","1","swim","","","","",""
"dual-task","null","null","null","","arctic","arctic","523.2999999523163","","g","null","88","88","1","swim-dual-task","","g","lowercase","480000","0","6","01d92d17ed0ea9d99d2bac6381808c7ee69318be66dd3daf29c6bf4568786f8d","480010.2999999523","523.2999999523163","88","1","swim","","","","",""
"dual-task","null","null","null","","arctic","arctic","389.2000000476837","","E","null","88","77","0","swim-dual-task","","E","uppercase","488000","0","6","01d92d17ed0ea9d99d2bac6381808c7ee69318be66dd3daf29c6bf4568786f8d","488004.59999990463","389.2000000476837","88","0","swim","","","","",""
"dual-task","null","null","null","","arctic","arctic","509.7000000476837","","g","null","88","88","1","swim-dual-task","","g","lowercase","496000","0","6","01d92d17ed0ea9d99d2bac6381808c7ee69318be66dd3daf29c6bf4568786f8d","496006","509.7000000476837","88","1","swim","","","","",""
"dual-task","null","null","null","","arctic","arctic","497","","q","null","88","88","1","swim-dual-task","","q","lowercase","504000","0","6","01d92d17ed0ea9d99d2bac6381808c7ee69318be66dd3daf29c6bf4568786f8d","504009.09999990463","497","88","1","swim","","","","",""
"dual-task","null","null","null","","arctic","arctic","435","","n","null","88","88","1","swim-dual-task","","n","lowercase","514000","0","6","01d92d17ed0ea9d99d2bac6381808c7ee69318be66dd3daf29c6bf4568786f8d","514010.2999999523","435","88","1","swim","","","","",""
"dual-task","null","null","null","","arctic","arctic","395.89999985694885","","D","null","77","77","1","swim-dual-task","","D","uppercase","526000","0","6","01d92d17ed0ea9d99d2bac6381808c7ee69318be66dd3daf29c6bf4568786f8d","526014.2999999523","395.89999985694885","77","1","swim","","","","",""
"dual-task","null","null","null","","arctic","arctic","355.90000009536743","","R","null","77","77","1","swim-dual-task","","R","uppercase","534000","0","6","01d92d17ed0ea9d99d2bac6381808c7ee69318be66dd3daf29c6bf4568786f8d","534010.7000000477","355.90000009536743","77","1","swim","","","","",""
"dual-task","null","null","null","","arctic","arctic","378.2000000476837","","f","null","88","88","1","swim-dual-task","","f","lowercase","546000","0","6","01d92d17ed0ea9d99d2bac6381808c7ee69318be66dd3daf29c6bf4568786f8d","546005.7000000477","378.2000000476837","88","1","swim","","","","",""
"dual-task","null","null","null","","arctic","arctic","444.2000000476837","","t","null","88","88","1","swim-dual-task","","t","lowercase","558000","0","6","01d92d17ed0ea9d99d2bac6381808c7ee69318be66dd3daf29c6bf4568786f8d","558001.2000000477","444.2000000476837","88","1","swim","","","","",""
"dual-task","null","null","null","","arctic","arctic","340.2000000476837","","Q","null","77","77","1","swim-dual-task","","Q","uppercase","570000","0","6","01d92d17ed0ea9d99d2bac6381808c7ee69318be66dd3daf29c6bf4568786f8d","570010.9000000954","340.2000000476837","77","1","swim","","","","",""
"dual-task","null","null","null","","arctic","arctic","447","","F","null","77","77","1","swim-dual-task","","F","uppercase","582000","0","6","01d92d17ed0ea9d99d2bac6381808c7ee69318be66dd3daf29c6bf4568786f8d","582014.7000000477","447","77","1","swim","","","","",""
"dual-task","null","null","null","","arctic","arctic","426.7999999523163","","H","null","77","77","1","swim-dual-task","","H","uppercase","594000","0","6","01d92d17ed0ea9d99d2bac6381808c7ee69318be66dd3daf29c6bf4568786f8d","594014.0999999046","426.7999999523163","77","1","swim","","","","",""
"dual-task","null","null","null","","arctic","arctic","464.7999999523163","","Q","null","77","77","1","swim-dual-task","","Q","uppercase","602000","0","6","01d92d17ed0ea9d99d2bac6381808c7ee69318be66dd3daf29c6bf4568786f8d","602007.5999999046","464.7999999523163","77","1","swim","","","","",""
"dual-task","null","null","null","","arctic","arctic","415.7999999523163","","F","null","77","77","1","swim-dual-task","","F","uppercase","616000","0","6","01d92d17ed0ea9d99d2bac6381808c7ee69318be66dd3daf29c6bf4568786f8d","616003.5999999046","415.7999999523163","77","1","swim","","","","",""
"dual-task","null","null","null","","arctic","arctic","456.09999990463257","","r","null","88","88","1","swim-dual-task","","r","lowercase","622000","0","6","01d92d17ed0ea9d99d2bac6381808c7ee69318be66dd3daf29c6bf4568786f8d","622005.2999999523","456.09999990463257","88","1","swim","","","","",""
"dual-task","null","null","null","","arctic","arctic","412","","g","null","88","88","1","swim-dual-task","","g","lowercase","636000","0","6","01d92d17ed0ea9d99d2bac6381808c7ee69318be66dd3daf29c6bf4568786f8d","636016.0999999046","412","88","1","swim","","","","",""
"dual-task","null","null","null","","arctic","arctic","584","","h","null","88","88","1","swim-dual-task","","h","lowercase","644000","0","6","01d92d17ed0ea9d99d2bac6381808c7ee69318be66dd3daf29c6bf4568786f8d","644011.0999999046","584","88","1","swim","","","","",""
"dual-task","null","null","null","","arctic","arctic","469.7000000476837","","r","null","88","88","1","swim-dual-task","","r","lowercase","654000","0","6","01d92d17ed0ea9d99d2bac6381808c7ee69318be66dd3daf29c6bf4568786f8d","654004.7000000477","469.7000000476837","88","1","swim","","","","",""
"dual-task","null","null","null","","arctic","arctic","416.7999999523163","","b","null","88","88","1","swim-dual-task","","b","lowercase","668000","0","6","01d92d17ed0ea9d99d2bac6381808c7ee69318be66dd3daf29c6bf4568786f8d","668009.9000000954","416.7999999523163","88","1","swim","","","","",""
"dual-task","null","null","null","","arctic","arctic","538.0999999046326","","T","null","77","77","1","swim-dual-task","","T","uppercase","676000","0","6","01d92d17ed0ea9d99d2bac6381808c7ee69318be66dd3daf29c6bf4568786f8d","676005.0999999046","538.0999999046326","77","1","swim","","","","",""
"dual-task","null","null","null","","arctic","arctic","412.2000000476837","","N","null","77","77","1","swim-dual-task","","N","uppercase","686000","0","6","01d92d17ed0ea9d99d2bac6381808c7ee69318be66dd3daf29c6bf4568786f8d","686013.0999999046","412.2000000476837","77","1","swim","","","","",""
"dual-task","null","null","null","","arctic","arctic","453.10000014305115","","b","null","88","88","1","swim-dual-task","","b","lowercase","698000","0","6","01d92d17ed0ea9d99d2bac6381808c7ee69318be66dd3daf29c6bf4568786f8d","698010.5999999046","453.10000014305115","88","1","swim","","","","",""
"dual-task","null","null","null","","arctic","arctic","440","","N","null","77","77","1","swim-dual-task","","N","uppercase","708000","0","6","01d92d17ed0ea9d99d2bac6381808c7ee69318be66dd3daf29c6bf4568786f8d","708003.5999999046","440","77","1","swim","","","","",""
"dual-task","null","null","null","","arctic","arctic","502.5","","h","null","88","88","1","swim-dual-task","","h","lowercase","720000","0","6","01d92d17ed0ea9d99d2bac6381808c7ee69318be66dd3daf29c6bf4568786f8d","720006.5999999046","502.5","88","1","swim","","","","",""
"dual-task","null","null","null","","arctic","arctic","433.10000014305115","","T","null","77","77","1","swim-dual-task","","T","uppercase","728000","0","6","01d92d17ed0ea9d99d2bac6381808c7ee69318be66dd3daf29c6bf4568786f8d","728003.9000000954","433.10000014305115","77","1","swim","","","","",""
"dual-task","null","null","null","","arctic","arctic","398.40000009536743","","G","null","88","77","0","swim-dual-task","","G","uppercase","740000","0","6","01d92d17ed0ea9d99d2bac6381808c7ee69318be66dd3daf29c6bf4568786f8d","740013.4000000954","398.40000009536743","88","0","swim","","","","",""
"dual-task","null","null","null","","arctic","arctic","430.30000019073486","","B","null","77","77","1","swim-dual-task","","B","uppercase","754000","0","6","01d92d17ed0ea9d99d2bac6381808c7ee69318be66dd3daf29c6bf4568786f8d","754005.4000000954","430.30000019073486","77","1","swim","","","","",""
"dual-task","null","null","null","","arctic","arctic","324.10000014305115","","R","null","77","77","1","swim-dual-task","","R","uppercase","762000","0","6","01d92d17ed0ea9d99d2bac6381808c7ee69318be66dd3daf29c6bf4568786f8d","762005.5","324.10000014305115","77","1","swim","","","","",""
"dual-task","null","null","null","","arctic","arctic","454.7999999523163","","n","null","88","88","1","swim-dual-task","","n","lowercase","770000","0","6","01d92d17ed0ea9d99d2bac6381808c7ee69318be66dd3daf29c6bf4568786f8d","770015.5999999046","454.7999999523163","88","1","swim","","","","",""
"dual-task","null","null","null","","arctic","arctic","525.5999999046326","","f","null","88","88","1","swim-dual-task","","f","lowercase","778000","0","6","01d92d17ed0ea9d99d2bac6381808c7ee69318be66dd3daf29c6bf4568786f8d","778013.7999999523","525.5999999046326","88","1","swim","","","","",""
"dual-task","null","null","null","","arctic","arctic","697.2999999523163","","r","null","88","88","1","swim-dual-task","","r","lowercase","786000","0","6","01d92d17ed0ea9d99d2bac6381808c7ee69318be66dd3daf29c6bf4568786f8d","786012","697.2999999523163","88","1","swim","","","","",""
"dual-task","null","null","null","","arctic","arctic","503.7000000476837","","E","null","77","77","1","swim-dual-task","","E","uppercase","800000","0","6","01d92d17ed0ea9d99d2bac6381808c7ee69318be66dd3daf29c6bf4568786f8d","800004.4000000954","503.7000000476837","77","1","swim","","","","",""
"audio-keyboard-response","62","1832971","0.0-6.0-2.0-1.0","01d92d17ed0ea9d99d2bac6381808c7ee69318be66dd3daf29c6bf4568786f8d","arctic","arctic","null","","audio/story_swim.mp3","","null","","","","","","","","","","","","","","","","","","","",""
"html-button-response","63","1835476","0.0-6.0-2.0-2.0","01d92d17ed0ea9d99d2bac6381808c7ee69318be66dd3daf29c6bf4568786f8d","arctic","arctic","2503","","<p>This concludes the story. Thank you for listening.</p><p>You will now answer some questions about the content of the story.</p>","0","","","","","","","","","","","","","","","","","","","","",""
"survey-multi-choice","64","1840397","0.0-6.0-2.0-3.0-0.0","01d92d17ed0ea9d99d2bac6381808c7ee69318be66dd3daf29c6bf4568786f8d","arctic","arctic","4919","","<b>How many astronaut candidates passed the first swim test?</b>","","","","1","swim-comprehension","","","","","","","","","","","","","{""Q0"":""All of them""}","","","",""
"survey-multi-choice","65","1845971","0.0-6.0-2.0-3.0-0.1","01d92d17ed0ea9d99d2bac6381808c7ee69318be66dd3daf29c6bf4568786f8d","arctic","arctic","5320","","<b>How did the narrator train for his swim test?</b>","","","","1","swim-comprehension","","","","","","","","","","","","","{""Q0"":""Took his kids to the pool every day""}","","","",""
"survey-multi-choice","66","1851961","0.0-6.0-2.0-3.0-0.2","01d92d17ed0ea9d99d2bac6381808c7ee69318be66dd3daf29c6bf4568786f8d","arctic","arctic","5738","","<b>What were the astronaut candidates trained to do at the naval air station?</b>","","","","1","swim-comprehension","","","","","","","","","","","","","{""Q0"":""Eject out of aircraft and survive in water long enough to be rescued""}","","","",""
"survey-multi-choice","67","1855871","0.0-6.0-2.0-3.0-0.3","01d92d17ed0ea9d99d2bac6381808c7ee69318be66dd3daf29c6bf4568786f8d","arctic","arctic","3645","","<b>Where is the home of naval aviation?</b>","","","","1","swim-comprehension","","","","","","","","","","","","","{""Q0"":""Pensacola""}","","","",""
"survey-multi-choice","68","1860514","0.0-6.0-2.0-3.0-0.4","01d92d17ed0ea9d99d2bac6381808c7ee69318be66dd3daf29c6bf4568786f8d","arctic","arctic","4389","","<b>How many times did the astronaut candidates have to complete the final exercise to pass?</b>","","","","1","swim-comprehension","","","","","","","","","","","","","{""Q0"":""Two""}","","","",""
"survey-multi-choice","69","1867390","0.0-6.0-2.0-3.0-0.5","01d92d17ed0ea9d99d2bac6381808c7ee69318be66dd3daf29c6bf4568786f8d","arctic","arctic","6623","","<b>What was the final step of the first swim test in the pool?</b>","","","","1","swim-comprehension","","","","","","","","","","","","","{""Q0"":""Tread water with hands above the water""}","","","",""
"survey-multi-choice","70","1871893","0.0-6.0-2.0-3.0-0.6","01d92d17ed0ea9d99d2bac6381808c7ee69318be66dd3daf29c6bf4568786f8d","arctic","arctic","4250","","<b>How often does the narrator swim, now that he is a good swimmer?</b>","","","","1","swim-comprehension","","","","","","","","","","","","","{""Q0"":""Never swam again in his life""}","","","",""
"survey-multi-choice","71","1878091","0.0-6.0-2.0-3.0-0.7","01d92d17ed0ea9d99d2bac6381808c7ee69318be66dd3daf29c6bf4568786f8d","arctic","arctic","5945","","<b>What gave the narrator his greatest feeling of accomplishment?</b>","","","","1","swim-comprehension","","","","","","","","","","","","","{""Q0"":""Passing the water survival course""}","","","",""
"survey-multi-choice","72","1881573","0.0-6.0-2.0-3.0-0.8","01d92d17ed0ea9d99d2bac6381808c7ee69318be66dd3daf29c6bf4568786f8d","arctic","arctic","3229","","<b>What is the narrator afraid of, aside from the water?</b>","","","","1","swim-comprehension","","","","","","","","","","","","","{""Q0"":""Heights""}","","","",""
"survey-multi-choice","73","1885094","0.0-6.0-2.0-3.0-0.9","01d92d17ed0ea9d99d2bac6381808c7ee69318be66dd3daf29c6bf4568786f8d","arctic","arctic","3269","","<b>How many astronaut candidates reported for duty at the Johnson Space Center?</b>","","","","1","swim-comprehension","","","","","","","","","","","","","{""Q0"":""Forty-four""}","","","",""
"html-button-response","74","1886235","0.0-6.0-2.0-4.0","01d92d17ed0ea9d99d2bac6381808c7ee69318be66dd3daf29c6bf4568786f8d","arctic","arctic","889","","<p>Thank you for your responses.</p><p>You will now answer some questions about your impressions of the story.</p>","0","","","","","","","","","","","","","","","","","","","","",""
"html-button-response","75","1887372","0.0-6.0-2.0-5.0-0.0","01d92d17ed0ea9d99d2bac6381808c7ee69318be66dd3daf29c6bf4568786f8d","arctic","arctic","1137","","MS3","6","","","","swim-engagement","","","","","","","","","","","","","","7","mental-sim","",""
"html-button-response","76","1888028","0.0-6.0-2.0-5.0-0.1","01d92d17ed0ea9d99d2bac6381808c7ee69318be66dd3daf29c6bf4568786f8d","arctic","arctic","404","","A1","6","","","","swim-engagement","","","","","","","","","","","","","","7","absorption","",""
"html-button-response","77","1888587","0.0-6.0-2.0-5.0-0.2","01d92d17ed0ea9d99d2bac6381808c7ee69318be66dd3daf29c6bf4568786f8d","arctic","arctic","307","","EE1","6","","","","swim-engagement","","","","","","","","","","","","","","7","emo-engage","",""
"html-button-response","78","1889155","0.0-6.0-2.0-5.0-0.3","01d92d17ed0ea9d99d2bac6381808c7ee69318be66dd3daf29c6bf4568786f8d","arctic","arctic","317","","A4","6","","","","swim-engagement","","","","","","","","","","","","","","7","absorption","",""
"html-button-response","79","1890433","0.0-6.0-2.0-5.0-0.4","01d92d17ed0ea9d99d2bac6381808c7ee69318be66dd3daf29c6bf4568786f8d","arctic","arctic","1025","","EE5","6","","","","swim-engagement","","","","","","","","","","","","","","7","emo-engage","",""
"html-button-response","80","1891235","0.0-6.0-2.0-5.0-0.5","01d92d17ed0ea9d99d2bac6381808c7ee69318be66dd3daf29c6bf4568786f8d","arctic","arctic","549","","E1","6","","","","swim-engagement","","","","","","","","","","","","","","7","enjoyment","",""
"html-button-response","81","1892887","0.0-6.0-2.0-5.0-0.6","01d92d17ed0ea9d99d2bac6381808c7ee69318be66dd3daf29c6bf4568786f8d","arctic","arctic","1398","","E7","6","","","","swim-engagement","","","","","","","","","","","","","","7","enjoyment","",""
"html-button-response","82","1893954","0.0-6.0-2.0-5.0-0.7","01d92d17ed0ea9d99d2bac6381808c7ee69318be66dd3daf29c6bf4568786f8d","arctic","arctic","816","","A3","6","","","","swim-engagement","","","","","","","","","","","","","","7","absorption","",""
"html-button-response","83","1894881","0.0-6.0-2.0-5.0-0.8","01d92d17ed0ea9d99d2bac6381808c7ee69318be66dd3daf29c6bf4568786f8d","arctic","arctic","668","","EE2","6","","","","swim-engagement","","","","","","","","","","","","","","7","emo-engage","",""
"html-button-response","84","1896385","0.0-6.0-2.0-5.0-0.9","01d92d17ed0ea9d99d2bac6381808c7ee69318be66dd3daf29c6bf4568786f8d","arctic","arctic","1252","","EE4","6","","","","swim-engagement","","","","","","","","","","","","","","7","emo-engage","",""
"html-button-response","85","1897897","0.0-6.0-2.0-5.0-0.10","01d92d17ed0ea9d99d2bac6381808c7ee69318be66dd3daf29c6bf4568786f8d","arctic","arctic","1259","","E10","6","","","","swim-engagement","","","","","","","","","","","","","","7","enjoyment","",""
"html-button-response","86","1899157","0.0-6.0-2.0-5.0-0.11","01d92d17ed0ea9d99d2bac6381808c7ee69318be66dd3daf29c6bf4568786f8d","arctic","arctic","1008","","E8","6","","","","swim-engagement","","","","","","","","","","","","","","7","enjoyment","",""
"html-button-response","87","1900714","0.0-6.0-2.0-5.0-0.12","01d92d17ed0ea9d99d2bac6381808c7ee69318be66dd3daf29c6bf4568786f8d","arctic","arctic","1306","","EE3","6","","","","swim-engagement","","","","","","","","","","","","","","7","emo-engage","",""
"html-button-response","88","1903206","0.0-6.0-2.0-5.0-0.13","01d92d17ed0ea9d99d2bac6381808c7ee69318be66dd3daf29c6bf4568786f8d","arctic","arctic","2240","","A2","6","","","","swim-engagement","","","","","","","","","","","","","","7","absorption","",""
"html-button-response","89","1905458","0.0-6.0-2.0-5.0-0.14","01d92d17ed0ea9d99d2bac6381808c7ee69318be66dd3daf29c6bf4568786f8d","arctic","arctic","2000","","A5","6","","","","swim-engagement","","","","","","","","","","","","","","7","absorption","",""
"html-button-response","90","1906690","0.0-6.0-2.0-5.0-0.15","01d92d17ed0ea9d99d2bac6381808c7ee69318be66dd3daf29c6bf4568786f8d","arctic","arctic","980","","E6","6","","","","swim-engagement","","","","","","","","","","","","","","7","enjoyment","",""
"html-button-response","91","1908706","0.0-6.0-2.0-5.0-0.16","01d92d17ed0ea9d99d2bac6381808c7ee69318be66dd3daf29c6bf4568786f8d","arctic","arctic","1764","","MS2","6","","","","swim-engagement","","","","","","","","","","","","","","7","mental-sim","",""
"html-button-response","92","1911034","0.0-6.0-2.0-5.0-0.17","01d92d17ed0ea9d99d2bac6381808c7ee69318be66dd3daf29c6bf4568786f8d","arctic","arctic","2076","","MS1","6","","","","swim-engagement","","","","","","","","","","","","","","7","mental-sim","",""
"html-button-response","93","1913050","0.0-8.0","01d92d17ed0ea9d99d2bac6381808c7ee69318be66dd3daf29c6bf4568786f8d","arctic","arctic","1764","","<p>Thank you for your responses.</p><p>You will now answer some demographic, hearing, and general health questions.</p>","0","","","","","","","","","","","","","","","","","","","","",""
"survey-multi-choice","94","1914691","0.0-9.0-0.0","01d92d17ed0ea9d99d2bac6381808c7ee69318be66dd3daf29c6bf4568786f8d","arctic","arctic","1639","","","","","","","survey","","","","","","","","","","","","","{""Q0"":""Chrome""}","","","browser",""
"survey-text","95","1917432","0.0-9.0-1.0","01d92d17ed0ea9d99d2bac6381808c7ee69318be66dd3daf29c6bf4568786f8d","arctic","arctic","2486.699999809265","","","","","","","survey","","","","","","","","","","","","","{""AGE"":""36""}","","","age","36"
"survey-multi-choice","96","1919050","0.0-9.0-2.0","01d92d17ed0ea9d99d2bac6381808c7ee69318be66dd3daf29c6bf4568786f8d","arctic","arctic","1366","","","","","","","survey","","","","","","","","","","","","","{""Q0"":""Female""}","","","gender","Female"
"survey-multi-choice","97","1920948","0.0-9.0-4.0","01d92d17ed0ea9d99d2bac6381808c7ee69318be66dd3daf29c6bf4568786f8d","arctic","arctic","1647","","","","","","","survey","","","","","","","","","","","","","{""Q0"":""Right""}","","","handedness","Right"
"survey-multi-choice","98","1925275","0.0-9.0-5.0","01d92d17ed0ea9d99d2bac6381808c7ee69318be66dd3daf29c6bf4568786f8d","arctic","arctic","4075","","","","","","","survey","","","","","","","","","","","","","{""Q0"":""Some university undergraduate schooling""}","","","education","Some university undergraduate schooling"
"survey-text","99","1929157","0.0-10.0-0.0","01d92d17ed0ea9d99d2bac6381808c7ee69318be66dd3daf29c6bf4568786f8d","arctic","arctic","3628.0999999046326","","","","","","","survey","","","","","","","","","","","","","{""L1"":""English""}","","","first-language","English"
"survey-text","100","1932608","0.0-10.0-1.0","01d92d17ed0ea9d99d2bac6381808c7ee69318be66dd3daf29c6bf4568786f8d","arctic","arctic","3192.5999999046326","","","","","","","survey","","","","","","","","","","","","","{""L2name"":"""",""L2fluency"":"""",""L3name"":"""",""L3fluency"":"""",""L4name"":"""",""L4fluency"":""""}","","","additional-languages","{""L2name"":"""",""L2fluency"":"""",""L3name"":"""",""L3fluency"":"""",""L4name"":"""",""L4fluency"":""""}"
"survey-multi-choice","101","1934995","0.0-10.0-2.0","01d92d17ed0ea9d99d2bac6381808c7ee69318be66dd3daf29c6bf4568786f8d","arctic","arctic","2135","","","","","","","survey","","","","","","","","","","","","","{""Q0"":""No""}","","","hearing-aid","No"
"survey-multi-choice","102","1938941","0.0-10.0-3.0","01d92d17ed0ea9d99d2bac6381808c7ee69318be66dd3daf29c6bf4568786f8d","arctic","arctic","3694","","","","","","","survey","","","","","","","","","","","","","{""Q0"":""Sometimes""}","","","ringing-ears","Sometimes"
"survey-multi-choice","103","1943535","0.0-10.0-4.0-0.0","01d92d17ed0ea9d99d2bac6381808c7ee69318be66dd3daf29c6bf4568786f8d","arctic","arctic","4341","","","","","","","survey","","","","","","","","","","","","","{""Q0"":""Right Ear""}","","","ringing-ear-loc","Right Ear"
"survey-multi-choice","104","1947988","0.0-10.0-5.0","01d92d17ed0ea9d99d2bac6381808c7ee69318be66dd3daf29c6bf4568786f8d","arctic","arctic","4201","","","","","","","survey","","","","","","","","","","","","","{""Q0"":""No""}","","","neuro-disease","No"
"survey-multi-choice","105","1952323","0.0-10.0-7.0","01d92d17ed0ea9d99d2bac6381808c7ee69318be66dd3daf29c6bf4568786f8d","arctic","arctic","4083","","","","","","","survey","","","","","","","","","","","","","{""Q0"":""Yes""}","","","take-meds","Yes"
"survey-text","106","1961075","0.0-10.0-8.0-0.0","01d92d17ed0ea9d99d2bac6381808c7ee69318be66dd3daf29c6bf4568786f8d","arctic","arctic","8499.299999952316","","","","","","","survey","","","","","","","","","","","","","{""MED"":""Levothyroxine for Hashimoto's""}","","","take-meds-clarify","Levothyroxine for Hashimoto's"
"survey-text","107","1972275","0.0-10.0-9.0","01d92d17ed0ea9d99d2bac6381808c7ee69318be66dd3daf29c6bf4568786f8d","arctic","arctic","10942.200000047684","","","","","","","survey","","","","","","","","","","","","","{""HC"":""I get migraines off and on""}","","","health-concerns","I get migraines off and on"
"html-button-response","108","1976552","0.0-11.0-0.0","01d92d17ed0ea9d99d2bac6381808c7ee69318be66dd3daf29c6bf4568786f8d","arctic","arctic","4025","","<p>How would you describe your musical skills/experiences?</p>","1","","","","survey","","","","","","","","","","","","","","","","music-skill","2"
"survey-multi-choice","109","1978744","0.0-11.0-1.0","01d92d17ed0ea9d99d2bac6381808c7ee69318be66dd3daf29c6bf4568786f8d","arctic","arctic","1940","","","","","","","survey","","","","","","","","","","","","","{""Q0"":""Yes""}","","","music-instrument","Yes"
"survey-text","110","1981534","0.0-11.0-2.0-0.0","01d92d17ed0ea9d99d2bac6381808c7ee69318be66dd3daf29c6bf4568786f8d","arctic","arctic","2537.5","","","","","","","survey","","","","","","","","","","","","","{""MEXP"":""1""}","","","music-training-yrs","1"
"html-button-response","111","1984420","0.0-12.0-0.0","01d92d17ed0ea9d99d2bac6381808c7ee69318be66dd3daf29c6bf4568786f8d","arctic","arctic","2635","","<p>How would you describe your general hearing abilities?</p>","4","","","","survey","","","","","","","","","","","","","","","","ssq-01","5"
"html-button-response","112","1989540","0.0-12.0-1.0","01d92d17ed0ea9d99d2bac6381808c7ee69318be66dd3daf29c6bf4568786f8d","arctic","arctic","4868","","<p>When you talk with someone at a place that strongly reverberates/echoes (e.g., in a church or train station),</br>can you understand what the person says?</p>","7","","","","survey","","","","","","","","","","","","","","","","ssq-02","7"
"html-button-response","113","1992522","0.0-12.0-2.0","01d92d17ed0ea9d99d2bac6381808c7ee69318be66dd3daf29c6bf4568786f8d","arctic","arctic","2730","","<p>When you are with a group (~5 people) in a lively restaurant, can you follow the group's conversation?</p>","10","","","","survey","","","","","","","","","","","","","","","","ssq-03","10"
"html-button-response","114","1996056","0.0-12.0-3.0","01d92d17ed0ea9d99d2bac6381808c7ee69318be66dd3daf29c6bf4568786f8d","arctic","arctic","3281","","<p>Based on the sound of a bus or truck, can you tell whether it is moving towards or away from you?</p>","10","","","","survey","","","","","","","","","","","","","","","","ssq-04","10"
"html-button-response","115","2000474","0.0-12.0-4.0","01d92d17ed0ea9d99d2bac6381808c7ee69318be66dd3daf29c6bf4568786f8d","arctic","arctic","4167","","<p>When you are in an unknown environment, can you tell from which direction a brief sound originates?</p>","9","","","","survey","","","","","","","","","","","","","","","","ssq-05","9"
"html-button-response","116","2003846","0.0-12.0-5.0","01d92d17ed0ea9d99d2bac6381808c7ee69318be66dd3daf29c6bf4568786f8d","arctic","arctic","3120","","<p>Are you able to ignore distracting sounds when you concentrate on a specific aspect of your acoustic surrounding?</p>","8","","","","survey","","","","","","","","","","","","","","","","ssq-06","8"
"fullscreen","117","2005098","0.0-13.0","01d92d17ed0ea9d99d2bac6381808c7ee69318be66dd3daf29c6bf4568786f8d","arctic","arctic","","","","","","","","","true","","","","","","","","","","","","","","","",""
