"trial_type","trial_index","time_elapsed","internal_node_id","ParticipantID","firstStory","scramStory","rt","url","stimulus","button_pressed","key_press","correctRESP","correct","designation","success","letterStim","letterType","ONSET","TIMEOUT","CONDITION","Participant","ONSET_ACTUAL","RT","RESP","ACC","STORY","responses","response","type","surveyQuestion","QRESP"
"pavlovia","0","6","0.0-0.0","843779009b916bfa7b55047e973eb87d8d72d8729bc7265dafe7e8d655acadf1","swim","arctic","","","","","","","","","","","","","","","","","","","","","","","","",""
"external-html","1","159701","0.0-1.0","843779009b916bfa7b55047e973eb87d8d72d8729bc7265dafe7e8d655acadf1","swim","arctic","159480","consent/consent_updated.html","","","","","","","","","","","","","","","","","","","","","","",""
"html-button-response","2","196819","0.0-2.0-0.0","843779009b916bfa7b55047e973eb87d8d72d8729bc7265dafe7e8d655acadf1","swim","arctic","37116","","<p>Before we begin the main task, you will complete a short volume calibration and headphone check.</p><p>Please make sure you are in a quiet listening environment, that you are wearing headphones, and that your computer's volume is turned on.<p></p>","0","","","","","","","","","","","","","","","","","","","","",""
"html-button-response","3","198231","0.0-2.0-1.0","843779009b916bfa7b55047e973eb87d8d72d8729bc7265dafe7e8d655acadf1","swim","arctic","1159","","<p>The volume calibration will be first.</p><p>You will hear a thirty-second noise. Please adjust your computer's volume so that this noise is being presented at a comfortable level.<p></p>","0","","","","","","","","","","","","","","","","","","","","",""
"audio-button-response","4","200696","0.0-2.0-2.0","843779009b916bfa7b55047e973eb87d8d72d8729bc7265dafe7e8d655acadf1","swim","arctic","2183","","audio/volumetest.mp3","0","","","","","","","","","","","","","","","","","","","","",""
"html-keyboard-response","5","203197","0.0-3.0-0.0","843779009b916bfa7b55047e973eb87d8d72d8729bc7265dafe7e8d655acadf1","swim","arctic","2500","","<p>You will now complete a short headphone check.</p><p>On each trial, you will hear three tones. One of these tones will be quieter than the others. Your task is to identify whether the quiet tone occurred first, second, or third.</p><p>There are six trials in total.<p></p><p></p>(Press SPACEBAR to begin)","","32","","","","","","","","","","","","","","","","","","","",""
"html-keyboard-response","6","204014","0.0-3.0-1.0-0.0","843779009b916bfa7b55047e973eb87d8d72d8729bc7265dafe7e8d655acadf1","swim","arctic","null","","<div style=""font-size:60px;"">+</div>","","null","","","","","","","","","","","","","","","","","","","",""
"audio-button-response","7","207617","0.0-3.0-1.0-1.0","843779009b916bfa7b55047e973eb87d8d72d8729bc7265dafe7e8d655acadf1","swim","arctic","3597","","audio/t3_2.mp3","2","","2","1","headphone-test","","","","","","","","","","","","","","","","",""
"html-keyboard-response","8","208125","0.0-3.0-1.0-2.0","843779009b916bfa7b55047e973eb87d8d72d8729bc7265dafe7e8d655acadf1","swim","arctic","null","","<p>Correct</p>","","null","","","","","","","","","","","","","","","","","","","",""
"html-keyboard-response","9","208634","0.0-3.0-1.0-0.1","843779009b916bfa7b55047e973eb87d8d72d8729bc7265dafe7e8d655acadf1","swim","arctic","null","","<div style=""font-size:60px;"">+</div>","","null","","","","","","","","","","","","","","","","","","","",""
"audio-button-response","10","212119","0.0-3.0-1.0-1.1","843779009b916bfa7b55047e973eb87d8d72d8729bc7265dafe7e8d655acadf1","swim","arctic","3484","","audio/t1_1.mp3","0","","0","1","headphone-test","","","","","","","","","","","","","","","","",""
"html-keyboard-response","11","212634","0.0-3.0-1.0-2.1","843779009b916bfa7b55047e973eb87d8d72d8729bc7265dafe7e8d655acadf1","swim","arctic","null","","<p>Correct</p>","","null","","","","","","","","","","","","","","","","","","","",""
"html-keyboard-response","12","213148","0.0-3.0-1.0-0.2","843779009b916bfa7b55047e973eb87d8d72d8729bc7265dafe7e8d655acadf1","swim","arctic","null","","<div style=""font-size:60px;"">+</div>","","null","","","","","","","","","","","","","","","","","","","",""
"audio-button-response","13","216595","0.0-3.0-1.0-1.2","843779009b916bfa7b55047e973eb87d8d72d8729bc7265dafe7e8d655acadf1","swim","arctic","3446","","audio/t1_2.mp3","0","","0","1","headphone-test","","","","","","","","","","","","","","","","",""
"html-keyboard-response","14","217113","0.0-3.0-1.0-2.2","843779009b916bfa7b55047e973eb87d8d72d8729bc7265dafe7e8d655acadf1","swim","arctic","null","","<p>Correct</p>","","null","","","","","","","","","","","","","","","","","","","",""
"html-keyboard-response","15","217624","0.0-3.0-1.0-0.3","843779009b916bfa7b55047e973eb87d8d72d8729bc7265dafe7e8d655acadf1","swim","arctic","null","","<div style=""font-size:60px;"">+</div>","","null","","","","","","","","","","","","","","","","","","","",""
"audio-button-response","16","220902","0.0-3.0-1.0-1.3","843779009b916bfa7b55047e973eb87d8d72d8729bc7265dafe7e8d655acadf1","swim","arctic","3274","","audio/t2_1.mp3","1","","1","1","headphone-test","","","","","","","","","","","","","","","","",""
"html-keyboard-response","17","221405","0.0-3.0-1.0-2.3","843779009b916bfa7b55047e973eb87d8d72d8729bc7265dafe7e8d655acadf1","swim","arctic","null","","<p>Correct</p>","","null","","","","","","","","","","","","","","","","","","","",""
"html-keyboard-response","18","221923","0.0-3.0-1.0-0.4","843779009b916bfa7b55047e973eb87d8d72d8729bc7265dafe7e8d655acadf1","swim","arctic","null","","<div style=""font-size:60px;"">+</div>","","null","","","","","","","","","","","","","","","","","","","",""
"audio-button-response","19","225424","0.0-3.0-1.0-1.4","843779009b916bfa7b55047e973eb87d8d72d8729bc7265dafe7e8d655acadf1","swim","arctic","3496","","audio/t2_2.mp3","1","","1","1","headphone-test","","","","","","","","","","","","","","","","",""
"html-keyboard-response","20","225943","0.0-3.0-1.0-2.4","843779009b916bfa7b55047e973eb87d8d72d8729bc7265dafe7e8d655acadf1","swim","arctic","null","","<p>Correct</p>","","null","","","","","","","","","","","","","","","","","","","",""
"html-keyboard-response","21","226464","0.0-3.0-1.0-0.5","843779009b916bfa7b55047e973eb87d8d72d8729bc7265dafe7e8d655acadf1","swim","arctic","null","","<div style=""font-size:60px;"">+</div>","","null","","","","","","","","","","","","","","","","","","","",""
"audio-button-response","22","229996","0.0-3.0-1.0-1.5","843779009b916bfa7b55047e973eb87d8d72d8729bc7265dafe7e8d655acadf1","swim","arctic","3529","","audio/t3_1.mp3","2","","2","1","headphone-test","","","","","","","","","","","","","","","","",""
"html-keyboard-response","23","230514","0.0-3.0-1.0-2.5","843779009b916bfa7b55047e973eb87d8d72d8729bc7265dafe7e8d655acadf1","swim","arctic","null","","<p>Correct</p>","","null","","","","","","","","","","","","","","","","","","","",""
"fullscreen","24","232503","0.0-4.0","843779009b916bfa7b55047e973eb87d8d72d8729bc7265dafe7e8d655acadf1","swim","arctic","","","","","","","","","true","","","","","","","","","","","","","","","",""
"html-button-response","25","241083","0.0-5.0-0.0","843779009b916bfa7b55047e973eb87d8d72d8729bc7265dafe7e8d655acadf1","swim","arctic","8578","","<p>There are two blocks to this experiment.</p><p>In each block, you will hear a ~13.5 minute story. One of the stories will be scrambled. Please listen carefully to both stories and understand them as best you can.</p><p>After each story, you will be asked some questions to assess your comprehension.</p>","0","","","","","","","","","","","","","","","","","","","","",""
"html-button-response","26","252279","0.0-5.0-1.0","843779009b916bfa7b55047e973eb87d8d72d8729bc7265dafe7e8d655acadf1","swim","arctic","11193","","<p>During each story, there will be an additional task.</p><p>A letter will occasionally appear on the screen.</br>Your job is to - as quickly as you can - decide whether the letter is lowercase or uppercase and press one of two keys on the keyboard:</p><p>If the letter is <b>lowercase</b>, press key &lt;<b>x</b>&gt;.</p><p>If the letter is <b>uppercase</b>, press key &lt;<b>m</b>&gt;.</p>","0","","","","","","","","","","","","","","","","","","","","",""
"html-keyboard-response","27","255014","0.0-5.0-2.0","843779009b916bfa7b55047e973eb87d8d72d8729bc7265dafe7e8d655acadf1","swim","arctic","2735","","<p>Because we want your responses to be as quick as possible, please keep your index fingers over the keys while listening.</p><p>Each block lasts about 20 minutes.</p><p><b>Press &lt;x&gt; or &lt;m&gt; to start the first block!</b></p>","","88","","","","","","","","","","","","","","","","","","","",""
"html-keyboard-response","28","255533","0.0-7.0-0.0-0.0","843779009b916bfa7b55047e973eb87d8d72d8729bc7265dafe7e8d655acadf1","swim","arctic","null","","<div style=""font-size:60px;"" tabindex=""0"">+</div>","","null","","","","","","","","","","","","","","","","","","","",""
"dual-task","null","null","null","","swim","arctic","575.1999999284744","","h","null","88","88","1","swim-dual-task","","h","lowercase","16000","0","4","843779009b916bfa7b55047e973eb87d8d72d8729bc7265dafe7e8d655acadf1","16019.200000047684","575.1999999284744","88","1","swim","","","","",""
"dual-task","null","null","null","","swim","arctic","522.8999999761581","","a","null","88","88","1","swim-dual-task","","a","lowercase","22000","0","4","843779009b916bfa7b55047e973eb87d8d72d8729bc7265dafe7e8d655acadf1","22017.100000023842","522.8999999761581","88","1","swim","","","","",""
"dual-task","null","null","null","","swim","arctic","589","","E","null","77","77","1","swim-dual-task","","E","uppercase","36000","0","4","843779009b916bfa7b55047e973eb87d8d72d8729bc7265dafe7e8d655acadf1","36011.89999997616","589","77","1","swim","","","","",""
"dual-task","null","null","null","","swim","arctic","751.6000000238419","","n","null","88","88","1","swim-dual-task","","n","lowercase","46000","0","4","843779009b916bfa7b55047e973eb87d8d72d8729bc7265dafe7e8d655acadf1","46013.200000047684","751.6000000238419","88","1","swim","","","","",""
"dual-task","null","null","null","","swim","arctic","494.59999990463257","","f","null","88","88","1","swim-dual-task","","f","lowercase","52000","0","4","843779009b916bfa7b55047e973eb87d8d72d8729bc7265dafe7e8d655acadf1","52010.800000071526","494.59999990463257","88","1","swim","","","","",""
"dual-task","null","null","null","","swim","arctic","509.40000009536743","","f","null","88","88","1","swim-dual-task","","f","lowercase","60000","0","4","843779009b916bfa7b55047e973eb87d8d72d8729bc7265dafe7e8d655acadf1","60007.5","509.40000009536743","88","1","swim","","","","",""
"dual-task","null","null","null","","swim","arctic","565.7999999523163","","G","null","77","77","1","swim-dual-task","","G","uppercase","70000","0","4","843779009b916bfa7b55047e973eb87d8d72d8729bc7265dafe7e8d655acadf1","70008.89999997616","565.7999999523163","77","1","swim","","","","",""
"dual-task","null","null","null","","swim","arctic","646","","R","null","77","77","1","swim-dual-task","","R","uppercase","84000","0","4","843779009b916bfa7b55047e973eb87d8d72d8729bc7265dafe7e8d655acadf1","84025.30000007153","646","77","1","swim","","","","",""
"dual-task","null","null","null","","swim","arctic","473.7999999523163","","t","null","88","88","1","swim-dual-task","","t","lowercase","90000","0","4","843779009b916bfa7b55047e973eb87d8d72d8729bc7265dafe7e8d655acadf1","90014.39999997616","473.7999999523163","88","1","swim","","","","",""
"dual-task","null","null","null","","swim","arctic","620.0999999046326","","Q","null","77","77","1","swim-dual-task","","Q","uppercase","102000","0","4","843779009b916bfa7b55047e973eb87d8d72d8729bc7265dafe7e8d655acadf1","102007.70000004768","620.0999999046326","77","1","swim","","","","",""
"dual-task","null","null","null","","swim","arctic","524","","f","null","88","88","1","swim-dual-task","","f","lowercase","114000","0","4","843779009b916bfa7b55047e973eb87d8d72d8729bc7265dafe7e8d655acadf1","114002.39999997616","524","88","1","swim","","","","",""
"dual-task","null","null","null","","swim","arctic","560.8999999761581","","B","null","77","77","1","swim-dual-task","","B","uppercase","122000","0","4","843779009b916bfa7b55047e973eb87d8d72d8729bc7265dafe7e8d655acadf1","122017.30000007153","560.8999999761581","77","1","swim","","","","",""
"dual-task","null","null","null","","swim","arctic","474.39999997615814","","T","null","77","77","1","swim-dual-task","","T","uppercase","130000","0","4","843779009b916bfa7b55047e973eb87d8d72d8729bc7265dafe7e8d655acadf1","130007.80000007153","474.39999997615814","77","1","swim","","","","",""
"dual-task","null","null","null","","swim","arctic","711.3999999761581","","H","null","77","77","1","swim-dual-task","","H","uppercase","142000","0","4","843779009b916bfa7b55047e973eb87d8d72d8729bc7265dafe7e8d655acadf1","142017.60000002384","711.3999999761581","77","1","swim","","","","",""
"dual-task","null","null","null","","swim","arctic","539.7000000476837","","b","null","88","88","1","swim-dual-task","","b","lowercase","148000","0","4","843779009b916bfa7b55047e973eb87d8d72d8729bc7265dafe7e8d655acadf1","148007.30000007153","539.7000000476837","88","1","swim","","","","",""
"dual-task","null","null","null","","swim","arctic","568.2000000476837","","q","null","88","88","1","swim-dual-task","","q","lowercase","158000","0","4","843779009b916bfa7b55047e973eb87d8d72d8729bc7265dafe7e8d655acadf1","158017.39999997616","568.2000000476837","88","1","swim","","","","",""
"dual-task","null","null","null","","swim","arctic","558","","R","null","77","77","1","swim-dual-task","","R","uppercase","166000","0","4","843779009b916bfa7b55047e973eb87d8d72d8729bc7265dafe7e8d655acadf1","166007.80000007153","558","77","1","swim","","","","",""
"dual-task","null","null","null","","swim","arctic","531.2000000476837","","r","null","88","88","1","swim-dual-task","","r","lowercase","180000","0","4","843779009b916bfa7b55047e973eb87d8d72d8729bc7265dafe7e8d655acadf1","180008.5","531.2000000476837","88","1","swim","","","","",""
"dual-task","null","null","null","","swim","arctic","414","","b","null","88","88","1","swim-dual-task","","b","lowercase","192000","0","4","843779009b916bfa7b55047e973eb87d8d72d8729bc7265dafe7e8d655acadf1","192011.20000004768","414","88","1","swim","","","","",""
"dual-task","null","null","null","","swim","arctic","482.10000002384186","","a","null","88","88","1","swim-dual-task","","a","lowercase","200000","0","4","843779009b916bfa7b55047e973eb87d8d72d8729bc7265dafe7e8d655acadf1","200017.60000002384","482.10000002384186","88","1","swim","","","","",""
"dual-task","null","null","null","","swim","arctic","545.2999999523163","","D","null","77","77","1","swim-dual-task","","D","uppercase","206000","0","4","843779009b916bfa7b55047e973eb87d8d72d8729bc7265dafe7e8d655acadf1","206013","545.2999999523163","77","1","swim","","","","",""
"dual-task","null","null","null","","swim","arctic","521.5","","d","null","88","88","1","swim-dual-task","","d","lowercase","216000","0","4","843779009b916bfa7b55047e973eb87d8d72d8729bc7265dafe7e8d655acadf1","216012.5","521.5","88","1","swim","","","","",""
"dual-task","null","null","null","","swim","arctic","491.60000002384186","","B","null","77","77","1","swim-dual-task","","B","uppercase","222000","0","4","843779009b916bfa7b55047e973eb87d8d72d8729bc7265dafe7e8d655acadf1","222142","491.60000002384186","77","1","swim","","","","",""
"dual-task","null","null","null","","swim","arctic","529.7999999523163","","f","null","88","88","1","swim-dual-task","","f","lowercase","232000","0","4","843779009b916bfa7b55047e973eb87d8d72d8729bc7265dafe7e8d655acadf1","232008.60000002384","529.7999999523163","88","1","swim","","","","",""
"dual-task","null","null","null","","swim","arctic","574.6999999284744","","Q","null","77","77","1","swim-dual-task","","Q","uppercase","244000","0","4","843779009b916bfa7b55047e973eb87d8d72d8729bc7265dafe7e8d655acadf1","244275.60000002384","574.6999999284744","77","1","swim","","","","",""
"dual-task","null","null","null","","swim","arctic","567.2999999523163","","t","null","88","88","1","swim-dual-task","","t","lowercase","250000","0","4","843779009b916bfa7b55047e973eb87d8d72d8729bc7265dafe7e8d655acadf1","250020.70000004768","567.2999999523163","88","1","swim","","","","",""
"dual-task","null","null","null","","swim","arctic","544.2999999523163","","E","null","77","77","1","swim-dual-task","","E","uppercase","262000","0","4","843779009b916bfa7b55047e973eb87d8d72d8729bc7265dafe7e8d655acadf1","262008.70000004768","544.2999999523163","77","1","swim","","","","",""
"dual-task","null","null","null","","swim","arctic","491.5","","R","null","77","77","1","swim-dual-task","","R","uppercase","272000","0","4","843779009b916bfa7b55047e973eb87d8d72d8729bc7265dafe7e8d655acadf1","272020.89999997616","491.5","77","1","swim","","","","",""
"dual-task","null","null","null","","swim","arctic","592.3999999761581","","g","null","88","88","1","swim-dual-task","","g","lowercase","278000","0","4","843779009b916bfa7b55047e973eb87d8d72d8729bc7265dafe7e8d655acadf1","278002","592.3999999761581","88","1","swim","","","","",""
"dual-task","null","null","null","","swim","arctic","499","","r","null","88","88","1","swim-dual-task","","r","lowercase","292000","0","4","843779009b916bfa7b55047e973eb87d8d72d8729bc7265dafe7e8d655acadf1","292010.60000002384","499","88","1","swim","","","","",""
"dual-task","null","null","null","","swim","arctic","461.6999999284744","","H","null","77","77","1","swim-dual-task","","H","uppercase","304000","0","4","843779009b916bfa7b55047e973eb87d8d72d8729bc7265dafe7e8d655acadf1","304007.60000002384","461.6999999284744","77","1","swim","","","","",""
"dual-task","null","null","null","","swim","arctic","468.90000009536743","","e","null","88","88","1","swim-dual-task","","e","lowercase","316000","0","4","843779009b916bfa7b55047e973eb87d8d72d8729bc7265dafe7e8d655acadf1","316007.8000000715","468.90000009536743","88","1","swim","","","","",""
"dual-task","null","null","null","","swim","arctic","584.6000000238419","","E","null","77","77","1","swim-dual-task","","E","uppercase","324000","0","4","843779009b916bfa7b55047e973eb87d8d72d8729bc7265dafe7e8d655acadf1","324013.5","584.6000000238419","77","1","swim","","","","",""
"dual-task","null","null","null","","swim","arctic","551.5","","T","null","77","77","1","swim-dual-task","","T","uppercase","336000","0","4","843779009b916bfa7b55047e973eb87d8d72d8729bc7265dafe7e8d655acadf1","336022.60000002384","551.5","77","1","swim","","","","",""
"dual-task","null","null","null","","swim","arctic","436.2000000476837","","g","null","88","88","1","swim-dual-task","","g","lowercase","346000","0","4","843779009b916bfa7b55047e973eb87d8d72d8729bc7265dafe7e8d655acadf1","346020.89999997616","436.2000000476837","88","1","swim","","","","",""
"dual-task","null","null","null","","swim","arctic","454.39999997615814","","q","null","88","88","1","swim-dual-task","","q","lowercase","360000","0","4","843779009b916bfa7b55047e973eb87d8d72d8729bc7265dafe7e8d655acadf1","360019","454.39999997615814","88","1","swim","","","","",""
"dual-task","null","null","null","","swim","arctic","583.0999999046326","","D","null","77","77","1","swim-dual-task","","D","uppercase","368000","0","4","843779009b916bfa7b55047e973eb87d8d72d8729bc7265dafe7e8d655acadf1","368091.3000000715","583.0999999046326","77","1","swim","","","","",""
"dual-task","null","null","null","","swim","arctic","686.5999999046326","","A","null","77","77","1","swim-dual-task","","A","uppercase","378000","0","4","843779009b916bfa7b55047e973eb87d8d72d8729bc7265dafe7e8d655acadf1","378022.60000002384","686.5999999046326","77","1","swim","","","","",""
"dual-task","null","null","null","","swim","arctic","469.7999999523163","","r","null","88","88","1","swim-dual-task","","r","lowercase","386000","0","4","843779009b916bfa7b55047e973eb87d8d72d8729bc7265dafe7e8d655acadf1","386023.3000000715","469.7999999523163","88","1","swim","","","","",""
"dual-task","null","null","null","","swim","arctic","411.60000002384186","","R","null","77","77","1","swim-dual-task","","R","uppercase","398000","0","4","843779009b916bfa7b55047e973eb87d8d72d8729bc7265dafe7e8d655acadf1","398008.5","411.60000002384186","77","1","swim","","","","",""
"dual-task","null","null","null","","swim","arctic","455.1999999284744","","a","null","88","88","1","swim-dual-task","","a","lowercase","408000","0","4","843779009b916bfa7b55047e973eb87d8d72d8729bc7265dafe7e8d655acadf1","408018.60000002384","455.1999999284744","88","1","swim","","","","",""
"dual-task","null","null","null","","swim","arctic","649.1000000238419","","N","null","77","77","1","swim-dual-task","","N","uppercase","418000","0","4","843779009b916bfa7b55047e973eb87d8d72d8729bc7265dafe7e8d655acadf1","418010.5","649.1000000238419","77","1","swim","","","","",""
"dual-task","null","null","null","","swim","arctic","532.0999999046326","","h","null","88","88","1","swim-dual-task","","h","lowercase","426000","0","4","843779009b916bfa7b55047e973eb87d8d72d8729bc7265dafe7e8d655acadf1","426017.60000002384","532.0999999046326","88","1","swim","","","","",""
"dual-task","null","null","null","","swim","arctic","513","","n","null","88","88","1","swim-dual-task","","n","lowercase","432000","0","4","843779009b916bfa7b55047e973eb87d8d72d8729bc7265dafe7e8d655acadf1","432020.10000002384","513","88","1","swim","","","","",""
"dual-task","null","null","null","","swim","arctic","536.7000000476837","","N","null","77","77","1","swim-dual-task","","N","uppercase","440000","0","4","843779009b916bfa7b55047e973eb87d8d72d8729bc7265dafe7e8d655acadf1","440023.39999997616","536.7000000476837","77","1","swim","","","","",""
"dual-task","null","null","null","","swim","arctic","525.8000000715256","","h","null","88","88","1","swim-dual-task","","h","lowercase","448000","0","4","843779009b916bfa7b55047e973eb87d8d72d8729bc7265dafe7e8d655acadf1","448017.2000000477","525.8000000715256","88","1","swim","","","","",""
"dual-task","null","null","null","","swim","arctic","445.3000000715256","","d","null","88","88","1","swim-dual-task","","d","lowercase","458000","0","4","843779009b916bfa7b55047e973eb87d8d72d8729bc7265dafe7e8d655acadf1","458022.39999997616","445.3000000715256","88","1","swim","","","","",""
"dual-task","null","null","null","","swim","arctic","458.39999997615814","","q","null","88","88","1","swim-dual-task","","q","lowercase","472000","0","4","843779009b916bfa7b55047e973eb87d8d72d8729bc7265dafe7e8d655acadf1","472012.8000000715","458.39999997615814","88","1","swim","","","","",""
"dual-task","null","null","null","","swim","arctic","415.10000002384186","","n","null","88","88","1","swim-dual-task","","n","lowercase","484000","0","4","843779009b916bfa7b55047e973eb87d8d72d8729bc7265dafe7e8d655acadf1","484025","415.10000002384186","88","1","swim","","","","",""
"dual-task","null","null","null","","swim","arctic","485.89999997615814","","t","null","88","88","1","swim-dual-task","","t","lowercase","492000","0","4","843779009b916bfa7b55047e973eb87d8d72d8729bc7265dafe7e8d655acadf1","492005.2000000477","485.89999997615814","88","1","swim","","","","",""
"dual-task","null","null","null","","swim","arctic","483.7999999523163","","n","null","88","88","1","swim-dual-task","","n","lowercase","502000","0","4","843779009b916bfa7b55047e973eb87d8d72d8729bc7265dafe7e8d655acadf1","502018.3000000715","483.7999999523163","88","1","swim","","","","",""
"dual-task","null","null","null","","swim","arctic","424.39999997615814","","t","null","88","88","1","swim-dual-task","","t","lowercase","514000","0","4","843779009b916bfa7b55047e973eb87d8d72d8729bc7265dafe7e8d655acadf1","514010.8000000715","424.39999997615814","88","1","swim","","","","",""
"dual-task","null","null","null","","swim","arctic","636.3000000715256","","F","null","77","77","1","swim-dual-task","","F","uppercase","526000","0","4","843779009b916bfa7b55047e973eb87d8d72d8729bc7265dafe7e8d655acadf1","526015.3999999762","636.3000000715256","77","1","swim","","","","",""
"dual-task","null","null","null","","swim","arctic","465.5","","G","null","77","77","1","swim-dual-task","","G","uppercase","538000","0","4","843779009b916bfa7b55047e973eb87d8d72d8729bc7265dafe7e8d655acadf1","538018.3999999762","465.5","77","1","swim","","","","",""
"dual-task","null","null","null","","swim","arctic","526.8999999761581","","F","null","77","77","1","swim-dual-task","","F","uppercase","548000","0","4","843779009b916bfa7b55047e973eb87d8d72d8729bc7265dafe7e8d655acadf1","548022.7000000477","526.8999999761581","77","1","swim","","","","",""
"dual-task","null","null","null","","swim","arctic","458.39999997615814","","e","null","88","88","1","swim-dual-task","","e","lowercase","560000","0","4","843779009b916bfa7b55047e973eb87d8d72d8729bc7265dafe7e8d655acadf1","560031.6000000238","458.39999997615814","88","1","swim","","","","",""
"dual-task","null","null","null","","swim","arctic","452","","F","null","77","77","1","swim-dual-task","","F","uppercase","570000","0","4","843779009b916bfa7b55047e973eb87d8d72d8729bc7265dafe7e8d655acadf1","570007.8000000715","452","77","1","swim","","","","",""
"dual-task","null","null","null","","swim","arctic","799.8999999761581","","a","null","88","88","1","swim-dual-task","","a","lowercase","576000","0","4","843779009b916bfa7b55047e973eb87d8d72d8729bc7265dafe7e8d655acadf1","576011.3000000715","799.8999999761581","88","1","swim","","","","",""
"dual-task","null","null","null","","swim","arctic","647.7000000476837","","r","null","88","88","1","swim-dual-task","","r","lowercase","584000","0","4","843779009b916bfa7b55047e973eb87d8d72d8729bc7265dafe7e8d655acadf1","584023","647.7000000476837","88","1","swim","","","","",""
"dual-task","null","null","null","","swim","arctic","397","","e","null","88","88","1","swim-dual-task","","e","lowercase","596000","0","4","843779009b916bfa7b55047e973eb87d8d72d8729bc7265dafe7e8d655acadf1","596022.3000000715","397","88","1","swim","","","","",""
"dual-task","null","null","null","","swim","arctic","530.1999999284744","","G","null","77","77","1","swim-dual-task","","G","uppercase","608000","0","4","843779009b916bfa7b55047e973eb87d8d72d8729bc7265dafe7e8d655acadf1","608139.3999999762","530.1999999284744","77","1","swim","","","","",""
"dual-task","null","null","null","","swim","arctic","496.8000000715256","","E","null","88","77","0","swim-dual-task","","E","uppercase","618000","0","4","843779009b916bfa7b55047e973eb87d8d72d8729bc7265dafe7e8d655acadf1","618002.5","496.8000000715256","88","0","swim","","","","",""
"dual-task","null","null","null","","swim","arctic","553.2000000476837","","Q","null","77","77","1","swim-dual-task","","Q","uppercase","626000","0","4","843779009b916bfa7b55047e973eb87d8d72d8729bc7265dafe7e8d655acadf1","626007.8999999762","553.2000000476837","77","1","swim","","","","",""
"dual-task","null","null","null","","swim","arctic","625.3999999761581","","d","null","88","88","1","swim-dual-task","","d","lowercase","638000","0","4","843779009b916bfa7b55047e973eb87d8d72d8729bc7265dafe7e8d655acadf1","638012","625.3999999761581","88","1","swim","","","","",""
"dual-task","null","null","null","","swim","arctic","575.8999999761581","","H","null","77","77","1","swim-dual-task","","H","uppercase","644000","0","4","843779009b916bfa7b55047e973eb87d8d72d8729bc7265dafe7e8d655acadf1","644005.1000000238","575.8999999761581","77","1","swim","","","","",""
"dual-task","null","null","null","","swim","arctic","561.7999999523163","","g","null","88","88","1","swim-dual-task","","g","lowercase","658000","0","4","843779009b916bfa7b55047e973eb87d8d72d8729bc7265dafe7e8d655acadf1","658003.8000000715","561.7999999523163","88","1","swim","","","","",""
"dual-task","null","null","null","","swim","arctic","659.2999999523163","","A","null","77","77","1","swim-dual-task","","A","uppercase","668000","0","4","843779009b916bfa7b55047e973eb87d8d72d8729bc7265dafe7e8d655acadf1","668140.3999999762","659.2999999523163","77","1","swim","","","","",""
"dual-task","null","null","null","","swim","arctic","609.5","","H","null","77","77","1","swim-dual-task","","H","uppercase","678000","0","4","843779009b916bfa7b55047e973eb87d8d72d8729bc7265dafe7e8d655acadf1","678025.2000000477","609.5","77","1","swim","","","","",""
"dual-task","null","null","null","","swim","arctic","542.5","","N","null","77","77","1","swim-dual-task","","N","uppercase","686000","0","4","843779009b916bfa7b55047e973eb87d8d72d8729bc7265dafe7e8d655acadf1","686021.7000000477","542.5","77","1","swim","","","","",""
"dual-task","null","null","null","","swim","arctic","528.9000000953674","","b","null","88","88","1","swim-dual-task","","b","lowercase","698000","0","4","843779009b916bfa7b55047e973eb87d8d72d8729bc7265dafe7e8d655acadf1","698015.1000000238","528.9000000953674","88","1","swim","","","","",""
"dual-task","null","null","null","","swim","arctic","456.39999997615814","","q","null","88","88","1","swim-dual-task","","q","lowercase","706000","0","4","843779009b916bfa7b55047e973eb87d8d72d8729bc7265dafe7e8d655acadf1","706008.3999999762","456.39999997615814","88","1","swim","","","","",""
"dual-task","null","null","null","","swim","arctic","544.8000000715256","","F","null","77","77","1","swim-dual-task","","F","uppercase","714000","0","4","843779009b916bfa7b55047e973eb87d8d72d8729bc7265dafe7e8d655acadf1","714007.2000000477","544.8000000715256","77","1","swim","","","","",""
"dual-task","null","null","null","","swim","arctic","584.5999999046326","","A","null","77","77","1","swim-dual-task","","A","uppercase","728000","0","4","843779009b916bfa7b55047e973eb87d8d72d8729bc7265dafe7e8d655acadf1","728064.7000000477","584.5999999046326","77","1","swim","","","","",""
"dual-task","null","null","null","","swim","arctic","463.6999999284744","","N","null","77","77","1","swim-dual-task","","N","uppercase","738000","0","4","843779009b916bfa7b55047e973eb87d8d72d8729bc7265dafe7e8d655acadf1","738003.8000000715","463.6999999284744","77","1","swim","","","","",""
"dual-task","null","null","null","","swim","arctic","534.1000000238419","","Q","null","77","77","1","swim-dual-task","","Q","uppercase","750000","0","4","843779009b916bfa7b55047e973eb87d8d72d8729bc7265dafe7e8d655acadf1","750007.3000000715","534.1000000238419","77","1","swim","","","","",""
"dual-task","null","null","null","","swim","arctic","663.8000000715256","","D","null","77","77","1","swim-dual-task","","D","uppercase","758000","0","4","843779009b916bfa7b55047e973eb87d8d72d8729bc7265dafe7e8d655acadf1","758018.2000000477","663.8000000715256","77","1","swim","","","","",""
"dual-task","null","null","null","","swim","arctic","495.10000002384186","","g","null","88","88","1","swim-dual-task","","g","lowercase","764000","0","4","843779009b916bfa7b55047e973eb87d8d72d8729bc7265dafe7e8d655acadf1","764012.2000000477","495.10000002384186","88","1","swim","","","","",""
"dual-task","null","null","null","","swim","arctic","708.6000000238419","","B","null","77","77","1","swim-dual-task","","B","uppercase","774000","0","4","843779009b916bfa7b55047e973eb87d8d72d8729bc7265dafe7e8d655acadf1","774018.3000000715","708.6000000238419","77","1","swim","","","","",""
"dual-task","null","null","null","","swim","arctic","465.7000000476837","","T","null","77","77","1","swim-dual-task","","T","uppercase","780000","0","4","843779009b916bfa7b55047e973eb87d8d72d8729bc7265dafe7e8d655acadf1","780012.8999999762","465.7000000476837","77","1","swim","","","","",""
"dual-task","null","null","null","","swim","arctic","376","","G","null","77","77","1","swim-dual-task","","G","uppercase","786000","0","4","843779009b916bfa7b55047e973eb87d8d72d8729bc7265dafe7e8d655acadf1","786011.6000000238","376","77","1","swim","","","","",""
"dual-task","null","null","null","","swim","arctic","507.7000000476837","","b","null","88","88","1","swim-dual-task","","b","lowercase","796000","0","4","843779009b916bfa7b55047e973eb87d8d72d8729bc7265dafe7e8d655acadf1","796163.3999999762","507.7000000476837","88","1","swim","","","","",""
"audio-keyboard-response","29","1065577","0.0-7.0-0.0-1.0","843779009b916bfa7b55047e973eb87d8d72d8729bc7265dafe7e8d655acadf1","swim","arctic","null","","audio/story_swim.mp3","","null","","","","","","","","","","","","","","","","","","","",""
"html-button-response","30","1068227","0.0-7.0-0.0-2.0","843779009b916bfa7b55047e973eb87d8d72d8729bc7265dafe7e8d655acadf1","swim","arctic","2646","","<p>This concludes the story. Thank you for listening.</p><p>You will now answer some questions about the content of the story.</p>","0","","","","","","","","","","","","","","","","","","","","",""
"survey-multi-choice","31","1075677","0.0-7.0-0.0-3.0-0.0","843779009b916bfa7b55047e973eb87d8d72d8729bc7265dafe7e8d655acadf1","swim","arctic","7438","","<b>How many times did the astronaut candidates have to complete the final exercise to pass?</b>","","","","1","swim-comprehension","","","","","","","","","","","","","{""Q0"":""Two""}","","","",""
"survey-multi-choice","32","1092542","0.0-7.0-0.0-3.0-0.1","843779009b916bfa7b55047e973eb87d8d72d8729bc7265dafe7e8d655acadf1","swim","arctic","16497","","<b>How did the narrator train for his swim test?</b>","","","","0","swim-comprehension","","","","","","","","","","","","","{""Q0"":""Swam at the lake every day""}","","","",""
"survey-multi-choice","33","1096320","0.0-7.0-0.0-3.0-0.2","843779009b916bfa7b55047e973eb87d8d72d8729bc7265dafe7e8d655acadf1","swim","arctic","3511","","<b>How often does the narrator swim, now that he is a good swimmer?</b>","","","","1","swim-comprehension","","","","","","","","","","","","","{""Q0"":""Never swam again in his life""}","","","",""
"survey-multi-choice","34","1101962","0.0-7.0-0.0-3.0-0.3","843779009b916bfa7b55047e973eb87d8d72d8729bc7265dafe7e8d655acadf1","swim","arctic","5381","","<b>What gave the narrator his greatest feeling of accomplishment?</b>","","","","1","swim-comprehension","","","","","","","","","","","","","{""Q0"":""Passing the water survival course""}","","","",""
"survey-multi-choice","35","1109623","0.0-7.0-0.0-3.0-0.4","843779009b916bfa7b55047e973eb87d8d72d8729bc7265dafe7e8d655acadf1","swim","arctic","7402","","<b>What is the narrator afraid of, aside from the water?</b>","","","","1","swim-comprehension","","","","","","","","","","","","","{""Q0"":""Heights""}","","","",""
"survey-multi-choice","36","1113434","0.0-7.0-0.0-3.0-0.5","843779009b916bfa7b55047e973eb87d8d72d8729bc7265dafe7e8d655acadf1","swim","arctic","3551","","<b>How many astronaut candidates passed the first swim test?</b>","","","","1","swim-comprehension","","","","","","","","","","","","","{""Q0"":""All of them""}","","","",""
"survey-multi-choice","37","1118125","0.0-7.0-0.0-3.0-0.6","843779009b916bfa7b55047e973eb87d8d72d8729bc7265dafe7e8d655acadf1","swim","arctic","4432","","<b>Where is the home of naval aviation?</b>","","","","1","swim-comprehension","","","","","","","","","","","","","{""Q0"":""Pensacola""}","","","",""
"survey-multi-choice","38","1124334","0.0-7.0-0.0-3.0-0.7","843779009b916bfa7b55047e973eb87d8d72d8729bc7265dafe7e8d655acadf1","swim","arctic","5953","","<b>How many astronaut candidates reported for duty at the Johnson Space Center?</b>","","","","1","swim-comprehension","","","","","","","","","","","","","{""Q0"":""Forty-four""}","","","",""
"survey-multi-choice","39","1130881","0.0-7.0-0.0-3.0-0.8","843779009b916bfa7b55047e973eb87d8d72d8729bc7265dafe7e8d655acadf1","swim","arctic","6284","","<b>What were the astronaut candidates trained to do at the naval air station?</b>","","","","1","swim-comprehension","","","","","","","","","","","","","{""Q0"":""Eject out of aircraft and survive in water long enough to be rescued""}","","","",""
"survey-multi-choice","40","1138262","0.0-7.0-0.0-3.0-0.9","843779009b916bfa7b55047e973eb87d8d72d8729bc7265dafe7e8d655acadf1","swim","arctic","7120","","<b>What was the final step of the first swim test in the pool?</b>","","","","1","swim-comprehension","","","","","","","","","","","","","{""Q0"":""Tread water with hands above the water""}","","","",""
"html-button-response","41","1140049","0.0-7.0-0.0-4.0","843779009b916bfa7b55047e973eb87d8d72d8729bc7265dafe7e8d655acadf1","swim","arctic","1535","","<p>Thank you for your responses.</p><p>You will now answer some questions about your impressions of the story.</p>","0","","","","","","","","","","","","","","","","","","","","",""
"html-button-response","42","1143744","0.0-7.0-0.0-5.0-0.0","843779009b916bfa7b55047e973eb87d8d72d8729bc7265dafe7e8d655acadf1","swim","arctic","3692","","A4","5","","","","swim-engagement","","","","","","","","","","","","","","6","absorption","",""
"html-button-response","43","1145476","0.0-7.0-0.0-5.0-0.1","843779009b916bfa7b55047e973eb87d8d72d8729bc7265dafe7e8d655acadf1","swim","arctic","1477","","E6","6","","","","swim-engagement","","","","","","","","","","","","","","7","enjoyment","",""
"html-button-response","44","1146784","0.0-7.0-0.0-5.0-0.2","843779009b916bfa7b55047e973eb87d8d72d8729bc7265dafe7e8d655acadf1","swim","arctic","1053","","E1","5","","","","swim-engagement","","","","","","","","","","","","","","6","enjoyment","",""
"html-button-response","45","1148657","0.0-7.0-0.0-5.0-0.3","843779009b916bfa7b55047e973eb87d8d72d8729bc7265dafe7e8d655acadf1","swim","arctic","1620","","E8","4","","","","swim-engagement","","","","","","","","","","","","","","5","enjoyment","",""
"html-button-response","46","1150161","0.0-7.0-0.0-5.0-0.4","843779009b916bfa7b55047e973eb87d8d72d8729bc7265dafe7e8d655acadf1","swim","arctic","1250","","A3","5","","","","swim-engagement","","","","","","","","","","","","","","6","absorption","",""
"html-button-response","47","1154100","0.0-7.0-0.0-5.0-0.5","843779009b916bfa7b55047e973eb87d8d72d8729bc7265dafe7e8d655acadf1","swim","arctic","3683","","MS3","3","","","","swim-engagement","","","","","","","","","","","","","","4","mental-sim","",""
"html-button-response","48","1155919","0.0-7.0-0.0-5.0-0.6","843779009b916bfa7b55047e973eb87d8d72d8729bc7265dafe7e8d655acadf1","swim","arctic","1563","","EE4","3","","","","swim-engagement","","","","","","","","","","","","","","4","emo-engage","",""
"html-button-response","49","1157519","0.0-7.0-0.0-5.0-0.7","843779009b916bfa7b55047e973eb87d8d72d8729bc7265dafe7e8d655acadf1","swim","arctic","1346","","E7","5","","","","swim-engagement","","","","","","","","","","","","","","6","enjoyment","",""
"html-button-response","50","1160187","0.0-7.0-0.0-5.0-0.8","843779009b916bfa7b55047e973eb87d8d72d8729bc7265dafe7e8d655acadf1","swim","arctic","2415","","A1","4","","","","swim-engagement","","","","","","","","","","","","","","5","absorption","",""
"html-button-response","51","1162181","0.0-7.0-0.0-5.0-0.9","843779009b916bfa7b55047e973eb87d8d72d8729bc7265dafe7e8d655acadf1","swim","arctic","1738","","E10","6","","","","swim-engagement","","","","","","","","","","","","","","7","enjoyment","",""
"html-button-response","52","1164961","0.0-7.0-0.0-5.0-0.10","843779009b916bfa7b55047e973eb87d8d72d8729bc7265dafe7e8d655acadf1","swim","arctic","2527","","A5","5","","","","swim-engagement","","","","","","","","","","","","","","6","absorption","",""
"html-button-response","53","1167599","0.0-7.0-0.0-5.0-0.11","843779009b916bfa7b55047e973eb87d8d72d8729bc7265dafe7e8d655acadf1","swim","arctic","2385","","EE1","4","","","","swim-engagement","","","","","","","","","","","","","","5","emo-engage","",""
"html-button-response","54","1169400","0.0-7.0-0.0-5.0-0.12","843779009b916bfa7b55047e973eb87d8d72d8729bc7265dafe7e8d655acadf1","swim","arctic","1450","","EE3","4","","","","swim-engagement","","","","","","","","","","","","","","5","emo-engage","",""
"html-button-response","55","1170769","0.0-7.0-0.0-5.0-0.13","843779009b916bfa7b55047e973eb87d8d72d8729bc7265dafe7e8d655acadf1","swim","arctic","1116","","EE2","5","","","","swim-engagement","","","","","","","","","","","","","","6","emo-engage","",""
"html-button-response","56","1174274","0.0-7.0-0.0-5.0-0.14","843779009b916bfa7b55047e973eb87d8d72d8729bc7265dafe7e8d655acadf1","swim","arctic","3252","","MS2","4","","","","swim-engagement","","","","","","","","","","","","","","5","mental-sim","",""
"html-button-response","57","1177197","0.0-7.0-0.0-5.0-0.15","843779009b916bfa7b55047e973eb87d8d72d8729bc7265dafe7e8d655acadf1","swim","arctic","2556","","EE5","4","","","","swim-engagement","","","","","","","","","","","","","","5","emo-engage","",""
"html-button-response","58","1178951","0.0-7.0-0.0-5.0-0.16","843779009b916bfa7b55047e973eb87d8d72d8729bc7265dafe7e8d655acadf1","swim","arctic","1501","","A2","5","","","","swim-engagement","","","","","","","","","","","","","","6","absorption","",""
"html-button-response","59","1182282","0.0-7.0-0.0-5.0-0.17","843779009b916bfa7b55047e973eb87d8d72d8729bc7265dafe7e8d655acadf1","swim","arctic","3078","","MS1","5","","","","swim-engagement","","","","","","","","","","","","","","6","mental-sim","",""
"html-keyboard-response","60","2188692","0.0-7.0-1.0","843779009b916bfa7b55047e973eb87d8d72d8729bc7265dafe7e8d655acadf1","swim","arctic","1006158","","<p>Thank you for your responses. You will now listen to the second story.</p><p>Remember, as you listen to the story you will see letters appear on the screen.</br>As quickly as possible, press <b>&lt;x&gt;</b> if the letter is lowercase and <b>&lt;m&gt;</b> if the letter is uppercase.</p><p>Press <b>&lt;x&gt;</b> or <b>&lt;m&gt;</b> to begin listening!</p>","","88","","","","","","","","","","","","","","","","","","","",""
"html-keyboard-response","61","2189194","0.0-7.0-2.0-0.0","843779009b916bfa7b55047e973eb87d8d72d8729bc7265dafe7e8d655acadf1","swim","arctic","null","","<div style=""font-size:60px;"" tabindex=""0"">+</div>","","null","","","","","","","","","","","","","","","","","","","",""
"dual-task","null","null","null","","swim","arctic","618.2999999523163","","r","null","88","88","1","arctic-dual-task","","r","lowercase","16000","0","4","843779009b916bfa7b55047e973eb87d8d72d8729bc7265dafe7e8d655acadf1","16006.799999952316","618.2999999523163","88","1","arctic","","","","",""
"dual-task","null","null","null","","swim","arctic","567","","t","null","88","88","1","arctic-dual-task","","t","lowercase","22000","0","4","843779009b916bfa7b55047e973eb87d8d72d8729bc7265dafe7e8d655acadf1","22006.099999904633","567","88","1","arctic","","","","",""
"dual-task","null","null","null","","swim","arctic","652.1999999284744","","q","null","88","88","1","arctic-dual-task","","q","lowercase","30000","0","4","843779009b916bfa7b55047e973eb87d8d72d8729bc7265dafe7e8d655acadf1","30021.099999904633","652.1999999284744","88","1","arctic","","","","",""
"dual-task","null","null","null","","swim","arctic","562.1999999284744","","D","null","77","77","1","arctic-dual-task","","D","uppercase","40000","0","4","843779009b916bfa7b55047e973eb87d8d72d8729bc7265dafe7e8d655acadf1","40051.299999952316","562.1999999284744","77","1","arctic","","","","",""
"dual-task","null","null","null","","swim","arctic","650.1000000238419","","g","null","88","88","1","arctic-dual-task","","g","lowercase","52000","0","4","843779009b916bfa7b55047e973eb87d8d72d8729bc7265dafe7e8d655acadf1","52002.299999952316","650.1000000238419","88","1","arctic","","","","",""
"dual-task","null","null","null","","swim","arctic","452.60000002384186","","D","null","77","77","1","arctic-dual-task","","D","uppercase","60000","0","4","843779009b916bfa7b55047e973eb87d8d72d8729bc7265dafe7e8d655acadf1","60010.799999952316","452.60000002384186","77","1","arctic","","","","",""
"dual-task","null","null","null","","swim","arctic","558.2999999523163","","n","null","88","88","1","arctic-dual-task","","n","lowercase","66000","0","4","843779009b916bfa7b55047e973eb87d8d72d8729bc7265dafe7e8d655acadf1","66001.89999997616","558.2999999523163","88","1","arctic","","","","",""
"dual-task","null","null","null","","swim","arctic","449.59999990463257","","e","null","88","88","1","arctic-dual-task","","e","lowercase","74000","0","4","843779009b916bfa7b55047e973eb87d8d72d8729bc7265dafe7e8d655acadf1","74011","449.59999990463257","88","1","arctic","","","","",""
"dual-task","null","null","null","","swim","arctic","504","","q","null","88","88","1","arctic-dual-task","","q","lowercase","80000","0","4","843779009b916bfa7b55047e973eb87d8d72d8729bc7265dafe7e8d655acadf1","80010.5","504","88","1","arctic","","","","",""
"dual-task","null","null","null","","swim","arctic","502.1999999284744","","f","null","88","88","1","arctic-dual-task","","f","lowercase","94000","0","4","843779009b916bfa7b55047e973eb87d8d72d8729bc7265dafe7e8d655acadf1","94002.5","502.1999999284744","88","1","arctic","","","","",""
"dual-task","null","null","null","","swim","arctic","467.60000002384186","","b","null","88","88","1","arctic-dual-task","","b","lowercase","106000","0","4","843779009b916bfa7b55047e973eb87d8d72d8729bc7265dafe7e8d655acadf1","106002.29999995232","467.60000002384186","88","1","arctic","","","","",""
"dual-task","null","null","null","","swim","arctic","578.2000000476837","","R","null","77","77","1","arctic-dual-task","","R","uppercase","118000","0","4","843779009b916bfa7b55047e973eb87d8d72d8729bc7265dafe7e8d655acadf1","118011.09999990463","578.2000000476837","77","1","arctic","","","","",""
"dual-task","null","null","null","","swim","arctic","1028.5","","e","null","88","88","1","arctic-dual-task","","e","lowercase","130000","0","4","843779009b916bfa7b55047e973eb87d8d72d8729bc7265dafe7e8d655acadf1","130012.09999990463","1028.5","88","1","arctic","","","","",""
"dual-task","null","null","null","","swim","arctic","459.39999997615814","","a","null","88","88","1","arctic-dual-task","","a","lowercase","142000","0","4","843779009b916bfa7b55047e973eb87d8d72d8729bc7265dafe7e8d655acadf1","142000.89999997616","459.39999997615814","88","1","arctic","","","","",""
"dual-task","null","null","null","","swim","arctic","489.5","","g","null","88","88","1","arctic-dual-task","","g","lowercase","156000","0","4","843779009b916bfa7b55047e973eb87d8d72d8729bc7265dafe7e8d655acadf1","156005.09999990463","489.5","88","1","arctic","","","","",""
"dual-task","null","null","null","","swim","arctic","504.39999997615814","","e","null","88","88","1","arctic-dual-task","","e","lowercase","162000","0","4","843779009b916bfa7b55047e973eb87d8d72d8729bc7265dafe7e8d655acadf1","162011.79999995232","504.39999997615814","88","1","arctic","","","","",""
"dual-task","null","null","null","","swim","arctic","630.6000000238419","","Q","null","77","77","1","arctic-dual-task","","Q","uppercase","176000","0","4","843779009b916bfa7b55047e973eb87d8d72d8729bc7265dafe7e8d655acadf1","176012.39999997616","630.6000000238419","77","1","arctic","","","","",""
"dual-task","null","null","null","","swim","arctic","495.7000000476837","","q","null","88","88","1","arctic-dual-task","","q","lowercase","184000","0","4","843779009b916bfa7b55047e973eb87d8d72d8729bc7265dafe7e8d655acadf1","184021.19999992847","495.7000000476837","88","1","arctic","","","","",""
"dual-task","null","null","null","","swim","arctic","445.3000000715256","","r","null","88","88","1","arctic-dual-task","","r","lowercase","192000","0","4","843779009b916bfa7b55047e973eb87d8d72d8729bc7265dafe7e8d655acadf1","192015.59999990463","445.3000000715256","88","1","arctic","","","","",""
"dual-task","null","null","null","","swim","arctic","563.8999999761581","","N","null","77","77","1","arctic-dual-task","","N","uppercase","206000","0","4","843779009b916bfa7b55047e973eb87d8d72d8729bc7265dafe7e8d655acadf1","206001","563.8999999761581","77","1","arctic","","","","",""
"dual-task","null","null","null","","swim","arctic","600.7999999523163","","N","null","77","77","1","arctic-dual-task","","N","uppercase","216000","0","4","843779009b916bfa7b55047e973eb87d8d72d8729bc7265dafe7e8d655acadf1","216001.79999995232","600.7999999523163","77","1","arctic","","","","",""
"dual-task","null","null","null","","swim","arctic","625.1000000238419","","B","null","77","77","1","arctic-dual-task","","B","uppercase","226000","0","4","843779009b916bfa7b55047e973eb87d8d72d8729bc7265dafe7e8d655acadf1","226010.39999997616","625.1000000238419","77","1","arctic","","","","",""
"dual-task","null","null","null","","swim","arctic","684.8999999761581","","A","null","77","77","1","arctic-dual-task","","A","uppercase","238000","0","4","843779009b916bfa7b55047e973eb87d8d72d8729bc7265dafe7e8d655acadf1","238011.79999995232","684.8999999761581","77","1","arctic","","","","",""
"dual-task","null","null","null","","swim","arctic","441.8000000715256","","G","null","77","77","1","arctic-dual-task","","G","uppercase","252000","0","4","843779009b916bfa7b55047e973eb87d8d72d8729bc7265dafe7e8d655acadf1","252000.89999997616","441.8000000715256","77","1","arctic","","","","",""
"dual-task","null","null","null","","swim","arctic","487.60000002384186","","n","null","88","88","1","arctic-dual-task","","n","lowercase","262000","0","4","843779009b916bfa7b55047e973eb87d8d72d8729bc7265dafe7e8d655acadf1","262012.39999997616","487.60000002384186","88","1","arctic","","","","",""
"dual-task","null","null","null","","swim","arctic","510.1999999284744","","e","null","88","88","1","arctic-dual-task","","e","lowercase","272000","0","4","843779009b916bfa7b55047e973eb87d8d72d8729bc7265dafe7e8d655acadf1","272012","510.1999999284744","88","1","arctic","","","","",""
"dual-task","null","null","null","","swim","arctic","600","","a","null","88","88","1","arctic-dual-task","","a","lowercase","280000","0","4","843779009b916bfa7b55047e973eb87d8d72d8729bc7265dafe7e8d655acadf1","280011.09999990463","600","88","1","arctic","","","","",""
"dual-task","null","null","null","","swim","arctic","462.8000000715256","","h","null","88","88","1","arctic-dual-task","","h","lowercase","288000","0","4","843779009b916bfa7b55047e973eb87d8d72d8729bc7265dafe7e8d655acadf1","288012","462.8000000715256","88","1","arctic","","","","",""
"dual-task","null","null","null","","swim","arctic","573","","F","null","77","77","1","arctic-dual-task","","F","uppercase","294000","0","4","843779009b916bfa7b55047e973eb87d8d72d8729bc7265dafe7e8d655acadf1","294000.59999990463","573","77","1","arctic","","","","",""
"dual-task","null","null","null","","swim","arctic","718.5","","T","null","77","77","1","arctic-dual-task","","T","uppercase","302000","0","4","843779009b916bfa7b55047e973eb87d8d72d8729bc7265dafe7e8d655acadf1","302008","718.5","77","1","arctic","","","","",""
"dual-task","null","null","null","","swim","arctic","457.10000002384186","","T","null","77","77","1","arctic-dual-task","","T","uppercase","308000","0","4","843779009b916bfa7b55047e973eb87d8d72d8729bc7265dafe7e8d655acadf1","308011.89999997616","457.10000002384186","77","1","arctic","","","","",""
"dual-task","null","null","null","","swim","arctic","423.5","","G","null","77","77","1","arctic-dual-task","","G","uppercase","318000","0","4","843779009b916bfa7b55047e973eb87d8d72d8729bc7265dafe7e8d655acadf1","318002.2999999523","423.5","77","1","arctic","","","","",""
"dual-task","null","null","null","","swim","arctic","431","","f","null","77","88","0","arctic-dual-task","","f","lowercase","324000","0","4","843779009b916bfa7b55047e973eb87d8d72d8729bc7265dafe7e8d655acadf1","324011.39999997616","431","77","0","arctic","","","","",""
"dual-task","null","null","null","","swim","arctic","500.39999997615814","","b","null","88","88","1","arctic-dual-task","","b","lowercase","330000","0","4","843779009b916bfa7b55047e973eb87d8d72d8729bc7265dafe7e8d655acadf1","330034.2999999523","500.39999997615814","88","1","arctic","","","","",""
"dual-task","null","null","null","","swim","arctic","473.7999999523163","","G","null","77","77","1","arctic-dual-task","","G","uppercase","338000","0","4","843779009b916bfa7b55047e973eb87d8d72d8729bc7265dafe7e8d655acadf1","338020.89999997616","473.7999999523163","77","1","arctic","","","","",""
"dual-task","null","null","null","","swim","arctic","478.7000000476837","","b","null","88","88","1","arctic-dual-task","","b","lowercase","348000","0","4","843779009b916bfa7b55047e973eb87d8d72d8729bc7265dafe7e8d655acadf1","348011.7999999523","478.7000000476837","88","1","arctic","","","","",""
"dual-task","null","null","null","","swim","arctic","601.1000000238419","","q","null","88","88","1","arctic-dual-task","","q","lowercase","362000","0","4","843779009b916bfa7b55047e973eb87d8d72d8729bc7265dafe7e8d655acadf1","362011.5","601.1000000238419","88","1","arctic","","","","",""
"dual-task","null","null","null","","swim","arctic","477.5","","F","null","77","77","1","arctic-dual-task","","F","uppercase","374000","0","4","843779009b916bfa7b55047e973eb87d8d72d8729bc7265dafe7e8d655acadf1","374012.2999999523","477.5","77","1","arctic","","","","",""
"dual-task","null","null","null","","swim","arctic","943.8999999761581","","t","null","88","88","1","arctic-dual-task","","t","lowercase","384000","0","4","843779009b916bfa7b55047e973eb87d8d72d8729bc7265dafe7e8d655acadf1","384011.7999999523","943.8999999761581","88","1","arctic","","","","",""
"dual-task","null","null","null","","swim","arctic","486.39999997615814","","b","null","88","88","1","arctic-dual-task","","b","lowercase","390000","0","4","843779009b916bfa7b55047e973eb87d8d72d8729bc7265dafe7e8d655acadf1","390001.89999997616","486.39999997615814","88","1","arctic","","","","",""
"dual-task","null","null","null","","swim","arctic","604.1000000238419","","T","null","88","77","0","arctic-dual-task","","T","uppercase","402000","0","4","843779009b916bfa7b55047e973eb87d8d72d8729bc7265dafe7e8d655acadf1","402011.6999999285","604.1000000238419","88","0","arctic","","","","",""
"dual-task","null","null","null","","swim","arctic","704.5","","Q","null","77","77","1","arctic-dual-task","","Q","uppercase","410000","0","4","843779009b916bfa7b55047e973eb87d8d72d8729bc7265dafe7e8d655acadf1","410022.39999997616","704.5","77","1","arctic","","","","",""
"dual-task","null","null","null","","swim","arctic","719.1000000238419","","A","null","77","77","1","arctic-dual-task","","A","uppercase","416000","0","4","843779009b916bfa7b55047e973eb87d8d72d8729bc7265dafe7e8d655acadf1","416011.09999990463","719.1000000238419","77","1","arctic","","","","",""
"dual-task","null","null","null","","swim","arctic","598.8999999761581","","Q","null","77","77","1","arctic-dual-task","","Q","uppercase","426000","0","4","843779009b916bfa7b55047e973eb87d8d72d8729bc7265dafe7e8d655acadf1","426002","598.8999999761581","77","1","arctic","","","","",""
"dual-task","null","null","null","","swim","arctic","385.10000002384186","","G","null","77","77","1","arctic-dual-task","","G","uppercase","434000","0","4","843779009b916bfa7b55047e973eb87d8d72d8729bc7265dafe7e8d655acadf1","434011.7999999523","385.10000002384186","77","1","arctic","","","","",""
"dual-task","null","null","null","","swim","arctic","524.8999999761581","","N","null","77","77","1","arctic-dual-task","","N","uppercase","444000","0","4","843779009b916bfa7b55047e973eb87d8d72d8729bc7265dafe7e8d655acadf1","444006.39999997616","524.8999999761581","77","1","arctic","","","","",""
"dual-task","null","null","null","","swim","arctic","578.1000000238419","","h","null","88","88","1","arctic-dual-task","","h","lowercase","458000","0","4","843779009b916bfa7b55047e973eb87d8d72d8729bc7265dafe7e8d655acadf1","458002.1999999285","578.1000000238419","88","1","arctic","","","","",""
"dual-task","null","null","null","","swim","arctic","671.8000000715256","","d","null","88","88","1","arctic-dual-task","","d","lowercase","466000","0","4","843779009b916bfa7b55047e973eb87d8d72d8729bc7265dafe7e8d655acadf1","466011.1999999285","671.8000000715256","88","1","arctic","","","","",""
"dual-task","null","null","null","","swim","arctic","475.39999997615814","","t","null","88","88","1","arctic-dual-task","","t","lowercase","478000","0","4","843779009b916bfa7b55047e973eb87d8d72d8729bc7265dafe7e8d655acadf1","478012","475.39999997615814","88","1","arctic","","","","",""
"dual-task","null","null","null","","swim","arctic","675.3999999761581","","B","null","77","77","1","arctic-dual-task","","B","uppercase","492000","0","4","843779009b916bfa7b55047e973eb87d8d72d8729bc7265dafe7e8d655acadf1","492001.5","675.3999999761581","77","1","arctic","","","","",""
"dual-task","null","null","null","","swim","arctic","603.3999999761581","","E","null","77","77","1","arctic-dual-task","","E","uppercase","506000","0","4","843779009b916bfa7b55047e973eb87d8d72d8729bc7265dafe7e8d655acadf1","506077.59999990463","603.3999999761581","77","1","arctic","","","","",""
"dual-task","null","null","null","","swim","arctic","563.6000000238419","","R","null","77","77","1","arctic-dual-task","","R","uppercase","520000","0","4","843779009b916bfa7b55047e973eb87d8d72d8729bc7265dafe7e8d655acadf1","520005.6999999285","563.6000000238419","77","1","arctic","","","","",""
"dual-task","null","null","null","","swim","arctic","512.4000000953674","","D","null","77","77","1","arctic-dual-task","","D","uppercase","532000","0","4","843779009b916bfa7b55047e973eb87d8d72d8729bc7265dafe7e8d655acadf1","532021.8999999762","512.4000000953674","77","1","arctic","","","","",""
"dual-task","null","null","null","","swim","arctic","565.1999999284744","","f","null","88","88","1","arctic-dual-task","","f","lowercase","544000","0","4","843779009b916bfa7b55047e973eb87d8d72d8729bc7265dafe7e8d655acadf1","544011.8999999762","565.1999999284744","88","1","arctic","","","","",""
"dual-task","null","null","null","","swim","arctic","733.1999999284744","","H","null","77","77","1","arctic-dual-task","","H","uppercase","550000","0","4","843779009b916bfa7b55047e973eb87d8d72d8729bc7265dafe7e8d655acadf1","550001.7999999523","733.1999999284744","77","1","arctic","","","","",""
"dual-task","null","null","null","","swim","arctic","562.6000000238419","","A","null","77","77","1","arctic-dual-task","","A","uppercase","558000","0","4","843779009b916bfa7b55047e973eb87d8d72d8729bc7265dafe7e8d655acadf1","558012.1999999285","562.6000000238419","77","1","arctic","","","","",""
"dual-task","null","null","null","","swim","arctic","472.2999999523163","","d","null","88","88","1","arctic-dual-task","","d","lowercase","566000","0","4","843779009b916bfa7b55047e973eb87d8d72d8729bc7265dafe7e8d655acadf1","566010.6999999285","472.2999999523163","88","1","arctic","","","","",""
"dual-task","null","null","null","","swim","arctic","587.5","","Q","null","77","77","1","arctic-dual-task","","Q","uppercase","580000","0","4","843779009b916bfa7b55047e973eb87d8d72d8729bc7265dafe7e8d655acadf1","580001","587.5","77","1","arctic","","","","",""
"dual-task","null","null","null","","swim","arctic","899.6999999284744","","F","null","77","77","1","arctic-dual-task","","F","uppercase","588000","0","4","843779009b916bfa7b55047e973eb87d8d72d8729bc7265dafe7e8d655acadf1","588011","899.6999999284744","77","1","arctic","","","","",""
"dual-task","null","null","null","","swim","arctic","551.3000000715256","","D","null","77","77","1","arctic-dual-task","","D","uppercase","598000","0","4","843779009b916bfa7b55047e973eb87d8d72d8729bc7265dafe7e8d655acadf1","598022.7999999523","551.3000000715256","77","1","arctic","","","","",""
"dual-task","null","null","null","","swim","arctic","538.4000000953674","","B","null","77","77","1","arctic-dual-task","","B","uppercase","606000","0","4","843779009b916bfa7b55047e973eb87d8d72d8729bc7265dafe7e8d655acadf1","606021.1999999285","538.4000000953674","77","1","arctic","","","","",""
"dual-task","null","null","null","","swim","arctic","651","","r","null","88","88","1","arctic-dual-task","","r","lowercase","616000","0","4","843779009b916bfa7b55047e973eb87d8d72d8729bc7265dafe7e8d655acadf1","616009","651","88","1","arctic","","","","",""
"dual-task","null","null","null","","swim","arctic","469.5","","A","null","77","77","1","arctic-dual-task","","A","uppercase","630000","0","4","843779009b916bfa7b55047e973eb87d8d72d8729bc7265dafe7e8d655acadf1","630011.5999999046","469.5","77","1","arctic","","","","",""
"dual-task","null","null","null","","swim","arctic","551.0999999046326","","F","null","77","77","1","arctic-dual-task","","F","uppercase","640000","0","4","843779009b916bfa7b55047e973eb87d8d72d8729bc7265dafe7e8d655acadf1","640012.0999999046","551.0999999046326","77","1","arctic","","","","",""
"dual-task","null","null","null","","swim","arctic","513.2999999523163","","N","null","77","77","1","arctic-dual-task","","N","uppercase","652000","0","4","843779009b916bfa7b55047e973eb87d8d72d8729bc7265dafe7e8d655acadf1","652000.7999999523","513.2999999523163","77","1","arctic","","","","",""
"dual-task","null","null","null","","swim","arctic","583.5999999046326","","n","null","88","88","1","arctic-dual-task","","n","lowercase","666000","0","4","843779009b916bfa7b55047e973eb87d8d72d8729bc7265dafe7e8d655acadf1","666022.3999999762","583.5999999046326","88","1","arctic","","","","",""
"dual-task","null","null","null","","swim","arctic","496.1999999284744","","d","null","88","88","1","arctic-dual-task","","d","lowercase","676000","0","4","843779009b916bfa7b55047e973eb87d8d72d8729bc7265dafe7e8d655acadf1","676011.6999999285","496.1999999284744","88","1","arctic","","","","",""
"dual-task","null","null","null","","swim","arctic","544.5999999046326","","R","null","77","77","1","arctic-dual-task","","R","uppercase","684000","0","4","843779009b916bfa7b55047e973eb87d8d72d8729bc7265dafe7e8d655acadf1","684012","544.5999999046326","77","1","arctic","","","","",""
"dual-task","null","null","null","","swim","arctic","575.2999999523163","","g","null","88","88","1","arctic-dual-task","","g","lowercase","694000","0","4","843779009b916bfa7b55047e973eb87d8d72d8729bc7265dafe7e8d655acadf1","694021","575.2999999523163","88","1","arctic","","","","",""
"dual-task","null","null","null","","swim","arctic","547.3999999761581","","E","null","77","77","1","arctic-dual-task","","E","uppercase","706000","0","4","843779009b916bfa7b55047e973eb87d8d72d8729bc7265dafe7e8d655acadf1","706011.1999999285","547.3999999761581","77","1","arctic","","","","",""
"dual-task","null","null","null","","swim","arctic","488.39999997615814","","B","null","77","77","1","arctic-dual-task","","B","uppercase","714000","0","4","843779009b916bfa7b55047e973eb87d8d72d8729bc7265dafe7e8d655acadf1","714000.6999999285","488.39999997615814","77","1","arctic","","","","",""
"dual-task","null","null","null","","swim","arctic","534.5","","H","null","77","77","1","arctic-dual-task","","H","uppercase","728000","0","4","843779009b916bfa7b55047e973eb87d8d72d8729bc7265dafe7e8d655acadf1","728011.7999999523","534.5","77","1","arctic","","","","",""
"dual-task","null","null","null","","swim","arctic","758.6000000238419","","g","null","88","88","1","arctic-dual-task","","g","lowercase","742000","0","4","843779009b916bfa7b55047e973eb87d8d72d8729bc7265dafe7e8d655acadf1","742045.7999999523","758.6000000238419","88","1","arctic","","","","",""
"dual-task","null","null","null","","swim","arctic","664.8999999761581","","n","null","88","88","1","arctic-dual-task","","n","lowercase","756000","0","4","843779009b916bfa7b55047e973eb87d8d72d8729bc7265dafe7e8d655acadf1","756013.0999999046","664.8999999761581","88","1","arctic","","","","",""
"dual-task","null","null","null","","swim","arctic","776.6000000238419","","T","null","77","77","1","arctic-dual-task","","T","uppercase","762000","0","4","843779009b916bfa7b55047e973eb87d8d72d8729bc7265dafe7e8d655acadf1","762012","776.6000000238419","77","1","arctic","","","","",""
"dual-task","null","null","null","","swim","arctic","882.8999999761581","","r","null","88","88","1","arctic-dual-task","","r","lowercase","770000","0","4","843779009b916bfa7b55047e973eb87d8d72d8729bc7265dafe7e8d655acadf1","770011.6999999285","882.8999999761581","88","1","arctic","","","","",""
"dual-task","null","null","null","","swim","arctic","901.2000000476837","","E","null","77","77","1","arctic-dual-task","","E","uppercase","776000","0","4","843779009b916bfa7b55047e973eb87d8d72d8729bc7265dafe7e8d655acadf1","776011","901.2000000476837","77","1","arctic","","","","",""
"dual-task","null","null","null","","swim","arctic","717.3999999761581","","H","null","77","77","1","arctic-dual-task","","H","uppercase","784000","0","4","843779009b916bfa7b55047e973eb87d8d72d8729bc7265dafe7e8d655acadf1","784020.6999999285","717.3999999761581","77","1","arctic","","","","",""
"audio-keyboard-response","62","2987519","0.0-7.0-2.0-1.0","843779009b916bfa7b55047e973eb87d8d72d8729bc7265dafe7e8d655acadf1","swim","arctic","null","","audio/story_arctic_scrambled.mp3","","null","","","","","","","","","","","","","","","","","","","",""
"html-button-response","63","2990291","0.0-7.0-2.0-2.0","843779009b916bfa7b55047e973eb87d8d72d8729bc7265dafe7e8d655acadf1","swim","arctic","2771","","<p>This concludes the story. Thank you for listening.</p><p>You will now answer some questions about the content of the story.</p>","0","","","","","","","","","","","","","","","","","","","","",""
"survey-multi-choice","64","3001662","0.0-7.0-2.0-3.0-0.0","843779009b916bfa7b55047e973eb87d8d72d8729bc7265dafe7e8d655acadf1","swim","arctic","11367","","<b>How many sponsorships did the narrator receive to support her expedition?</b>","","","","1","arctic-comprehension","","","","","","","","","","","","","{""Q0"":""None""}","","","",""
"survey-multi-choice","65","3004990","0.0-7.0-2.0-3.0-0.1","843779009b916bfa7b55047e973eb87d8d72d8729bc7265dafe7e8d655acadf1","swim","arctic","3066","","<b>What is the name of the narrator&#39;s neighbour?</b>","","","","1","arctic-comprehension","","","","","","","","","","","","","{""Q0"":""Dave""}","","","",""
"survey-multi-choice","66","3008381","0.0-7.0-2.0-3.0-0.2","843779009b916bfa7b55047e973eb87d8d72d8729bc7265dafe7e8d655acadf1","swim","arctic","3136","","<b>What did the narrator do for leisure while in her tent?</b>","","","","1","arctic-comprehension","","","","","","","","","","","","","{""Q0"":""Read""}","","","",""
"survey-multi-choice","67","3013062","0.0-7.0-2.0-3.0-0.3","843779009b916bfa7b55047e973eb87d8d72d8729bc7265dafe7e8d655acadf1","swim","arctic","4426","","<b>What were the weather conditions in the Arctic like the winter of the narrator&#39;s expedition?</b>","","","","1","arctic-comprehension","","","","","","","","","","","","","{""Q0"":""There were more storms than any other winter in recorded history.""}","","","",""
"survey-multi-choice","68","3019931","0.0-7.0-2.0-3.0-0.4","843779009b916bfa7b55047e973eb87d8d72d8729bc7265dafe7e8d655acadf1","swim","arctic","6599","","<b>How did the narrator&#39;s neighbour respond when she told him about her expedition?</b>","","","","1","arctic-comprehension","","","","","","","","","","","","","{""Q0"":""He said she was going to fail.""}","","","",""
"survey-multi-choice","69","3026149","0.0-7.0-2.0-3.0-0.5","843779009b916bfa7b55047e973eb87d8d72d8729bc7265dafe7e8d655acadf1","swim","arctic","5956","","<b>How did the dogs respond when they saw the bears?</b>","","","","1","arctic-comprehension","","","","","","","","","","","","","{""Q0"":""Approached them""}","","","",""
"survey-multi-choice","70","3031881","0.0-7.0-2.0-3.0-0.6","843779009b916bfa7b55047e973eb87d8d72d8729bc7265dafe7e8d655acadf1","swim","arctic","5469","","<b>What was the objective of the narrator&#39;s expedition?</b>","","","","1","arctic-comprehension","","","","","","","","","","","","","{""Q0"":""Dogsled across Arctic America""}","","","",""
"survey-multi-choice","71","3036870","0.0-7.0-2.0-3.0-0.7","843779009b916bfa7b55047e973eb87d8d72d8729bc7265dafe7e8d655acadf1","swim","arctic","4726","","<b>Which dog on the narrator&#39;s dog team never followed instructions?</b>","","","","1","arctic-comprehension","","","","","","","","","","","","","{""Q0"":""Robert""}","","","",""
"survey-multi-choice","72","3046585","0.0-7.0-2.0-3.0-0.8","843779009b916bfa7b55047e973eb87d8d72d8729bc7265dafe7e8d655acadf1","swim","arctic","9457","","<b>How did the narrator prepare for her expedition?</b>","","","","1","arctic-comprehension","","","","","","","","","","","","","{""Q0"":""Trained in Alaska learning how to dogsled""}","","","",""
"survey-multi-choice","73","3051692","0.0-7.0-2.0-3.0-0.9","843779009b916bfa7b55047e973eb87d8d72d8729bc7265dafe7e8d655acadf1","swim","arctic","4848","","<b>How did the narrator&#39;s encounter with the polar bears end?</b>","","","","1","arctic-comprehension","","","","","","","","","","","","","{""Q0"":""The bears walked back to their den.""}","","","",""
"html-button-response","74","3052791","0.0-7.0-2.0-4.0","843779009b916bfa7b55047e973eb87d8d72d8729bc7265dafe7e8d655acadf1","swim","arctic","844","","<p>Thank you for your responses.</p><p>You will now answer some questions about your impressions of the story.</p>","0","","","","","","","","","","","","","","","","","","","","",""
"html-button-response","75","3054436","0.0-7.0-2.0-5.0-0.0","843779009b916bfa7b55047e973eb87d8d72d8729bc7265dafe7e8d655acadf1","swim","arctic","1643","","E1","3","","","","arctic-engagement","","","","","","","","","","","","","","4","enjoyment","",""
"html-button-response","76","3057133","0.0-7.0-2.0-5.0-0.1","843779009b916bfa7b55047e973eb87d8d72d8729bc7265dafe7e8d655acadf1","swim","arctic","2444","","A5","2","","","","arctic-engagement","","","","","","","","","","","","","","3","absorption","",""
"html-button-response","77","3059003","0.0-7.0-2.0-5.0-0.2","843779009b916bfa7b55047e973eb87d8d72d8729bc7265dafe7e8d655acadf1","swim","arctic","1616","","A4","2","","","","arctic-engagement","","","","","","","","","","","","","","3","absorption","",""
"html-button-response","78","3061533","0.0-7.0-2.0-5.0-0.3","843779009b916bfa7b55047e973eb87d8d72d8729bc7265dafe7e8d655acadf1","swim","arctic","2273","","E6","2","","","","arctic-engagement","","","","","","","","","","","","","","3","enjoyment","",""
"html-button-response","79","3063255","0.0-7.0-2.0-5.0-0.4","843779009b916bfa7b55047e973eb87d8d72d8729bc7265dafe7e8d655acadf1","swim","arctic","1469","","EE4","3","","","","arctic-engagement","","","","","","","","","","","","","","4","emo-engage","",""
"html-button-response","80","3065608","0.0-7.0-2.0-5.0-0.5","843779009b916bfa7b55047e973eb87d8d72d8729bc7265dafe7e8d655acadf1","swim","arctic","2099","","EE1","3","","","","arctic-engagement","","","","","","","","","","","","","","4","emo-engage","",""
"html-button-response","81","3068975","0.0-7.0-2.0-5.0-0.6","843779009b916bfa7b55047e973eb87d8d72d8729bc7265dafe7e8d655acadf1","swim","arctic","3111","","A1","1","","","","arctic-engagement","","","","","","","","","","","","","","2","absorption","",""
"html-button-response","82","3070777","0.0-7.0-2.0-5.0-0.7","843779009b916bfa7b55047e973eb87d8d72d8729bc7265dafe7e8d655acadf1","swim","arctic","1548","","E10","1","","","","arctic-engagement","","","","","","","","","","","","","","2","enjoyment","",""
"html-button-response","83","3073027","0.0-7.0-2.0-5.0-0.8","843779009b916bfa7b55047e973eb87d8d72d8729bc7265dafe7e8d655acadf1","swim","arctic","1996","","A2","2","","","","arctic-engagement","","","","","","","","","","","","","","3","absorption","",""
"html-button-response","84","3075552","0.0-7.0-2.0-5.0-0.9","843779009b916bfa7b55047e973eb87d8d72d8729bc7265dafe7e8d655acadf1","swim","arctic","2272","","MS2","3","","","","arctic-engagement","","","","","","","","","","","","","","4","mental-sim","",""
"html-button-response","85","3077681","0.0-7.0-2.0-5.0-0.10","843779009b916bfa7b55047e973eb87d8d72d8729bc7265dafe7e8d655acadf1","swim","arctic","1876","","EE3","2","","","","arctic-engagement","","","","","","","","","","","","","","3","emo-engage","",""
"html-button-response","86","3079827","0.0-7.0-2.0-5.0-0.11","843779009b916bfa7b55047e973eb87d8d72d8729bc7265dafe7e8d655acadf1","swim","arctic","1892","","MS1","2","","","","arctic-engagement","","","","","","","","","","","","","","3","mental-sim","",""
"html-button-response","87","3082574","0.0-7.0-2.0-5.0-0.12","843779009b916bfa7b55047e973eb87d8d72d8729bc7265dafe7e8d655acadf1","swim","arctic","2494","","EE2","3","","","","arctic-engagement","","","","","","","","","","","","","","4","emo-engage","",""
"html-button-response","88","3084465","0.0-7.0-2.0-5.0-0.13","843779009b916bfa7b55047e973eb87d8d72d8729bc7265dafe7e8d655acadf1","swim","arctic","1636","","MS3","2","","","","arctic-engagement","","","","","","","","","","","","","","3","mental-sim","",""
"html-button-response","89","3085791","0.0-7.0-2.0-5.0-0.14","843779009b916bfa7b55047e973eb87d8d72d8729bc7265dafe7e8d655acadf1","swim","arctic","1073","","A3","2","","","","arctic-engagement","","","","","","","","","","","","","","3","absorption","",""
"html-button-response","90","3088687","0.0-7.0-2.0-5.0-0.15","843779009b916bfa7b55047e973eb87d8d72d8729bc7265dafe7e8d655acadf1","swim","arctic","2641","","E7","2","","","","arctic-engagement","","","","","","","","","","","","","","3","enjoyment","",""
"html-button-response","91","3091047","0.0-7.0-2.0-5.0-0.16","843779009b916bfa7b55047e973eb87d8d72d8729bc7265dafe7e8d655acadf1","swim","arctic","2107","","EE5","3","","","","arctic-engagement","","","","","","","","","","","","","","4","emo-engage","",""
"html-button-response","92","3092803","0.0-7.0-2.0-5.0-0.17","843779009b916bfa7b55047e973eb87d8d72d8729bc7265dafe7e8d655acadf1","swim","arctic","1504","","E8","2","","","","arctic-engagement","","","","","","","","","","","","","","3","enjoyment","",""
"html-button-response","93","3094157","0.0-8.0","843779009b916bfa7b55047e973eb87d8d72d8729bc7265dafe7e8d655acadf1","swim","arctic","1100","","<p>Thank you for your responses.</p><p>You will now answer some demographic, hearing, and general health questions.</p>","0","","","","","","","","","","","","","","","","","","","","",""
"survey-multi-choice","94","3097201","0.0-9.0-0.0","843779009b916bfa7b55047e973eb87d8d72d8729bc7265dafe7e8d655acadf1","swim","arctic","3035","","","","","","","survey","","","","","","","","","","","","","{""Q0"":""Chrome""}","","","browser",""
"survey-text","95","3100209","0.0-9.0-1.0","843779009b916bfa7b55047e973eb87d8d72d8729bc7265dafe7e8d655acadf1","swim","arctic","2743.7000000476837","","","","","","","survey","","","","","","","","","","","","","{""AGE"":""38""}","","","age","38"
"survey-multi-choice","96","3101982","0.0-9.0-2.0","843779009b916bfa7b55047e973eb87d8d72d8729bc7265dafe7e8d655acadf1","swim","arctic","1518","","","","","","","survey","","","","","","","","","","","","","{""Q0"":""Female""}","","","gender","Female"
"survey-multi-choice","97","3104227","0.0-9.0-4.0","843779009b916bfa7b55047e973eb87d8d72d8729bc7265dafe7e8d655acadf1","swim","arctic","1990","","","","","","","survey","","","","","","","","","","","","","{""Q0"":""Left""}","","","handedness","Left"
"survey-multi-choice","98","3107074","0.0-9.0-5.0","843779009b916bfa7b55047e973eb87d8d72d8729bc7265dafe7e8d655acadf1","swim","arctic","2592","","","","","","","survey","","","","","","","","","","","","","{""Q0"":""Some university undergraduate schooling""}","","","education","Some university undergraduate schooling"
"survey-text","99","3112550","0.0-10.0-0.0","843779009b916bfa7b55047e973eb87d8d72d8729bc7265dafe7e8d655acadf1","swim","arctic","5218.199999928474","","","","","","","survey","","","","","","","","","","","","","{""L1"":""english""}","","","first-language","english"
"survey-text","100","3119110","0.0-10.0-1.0","843779009b916bfa7b55047e973eb87d8d72d8729bc7265dafe7e8d655acadf1","swim","arctic","6297.700000047684","","","","","","","survey","","","","","","","","","","","","","{""L2name"":"""",""L2fluency"":"""",""L3name"":"""",""L3fluency"":"""",""L4name"":"""",""L4fluency"":""""}","","","additional-languages","{""L2name"":"""",""L2fluency"":"""",""L3name"":"""",""L3fluency"":"""",""L4name"":"""",""L4fluency"":""""}"
"survey-multi-choice","101","3121381","0.0-10.0-2.0","843779009b916bfa7b55047e973eb87d8d72d8729bc7265dafe7e8d655acadf1","swim","arctic","2013","","","","","","","survey","","","","","","","","","","","","","{""Q0"":""No""}","","","hearing-aid","No"
"survey-multi-choice","102","3123484","0.0-10.0-3.0","843779009b916bfa7b55047e973eb87d8d72d8729bc7265dafe7e8d655acadf1","swim","arctic","1847","","","","","","","survey","","","","","","","","","","","","","{""Q0"":""Sometimes""}","","","ringing-ears","Sometimes"
"survey-multi-choice","103","3125891","0.0-10.0-4.0-0.0","843779009b916bfa7b55047e973eb87d8d72d8729bc7265dafe7e8d655acadf1","swim","arctic","2153","","","","","","","survey","","","","","","","","","","","","","{""Q0"":""Both Ears""}","","","ringing-ear-loc","Both Ears"
"survey-multi-choice","104","3128540","0.0-10.0-5.0","843779009b916bfa7b55047e973eb87d8d72d8729bc7265dafe7e8d655acadf1","swim","arctic","2391","","","","","","","survey","","","","","","","","","","","","","{""Q0"":""No""}","","","neuro-disease","No"
"survey-multi-choice","105","3132723","0.0-10.0-7.0","843779009b916bfa7b55047e973eb87d8d72d8729bc7265dafe7e8d655acadf1","swim","arctic","3930","","","","","","","survey","","","","","","","","","","","","","{""Q0"":""Yes""}","","","take-meds","Yes"
"survey-text","106","3145001","0.0-10.0-8.0-0.0","843779009b916bfa7b55047e973eb87d8d72d8729bc7265dafe7e8d655acadf1","swim","arctic","12018.300000071526","","","","","","","survey","","","","","","","","","","","","","{""MED"":""dyazide""}","","","take-meds-clarify","dyazide"
"survey-text","107","3147969","0.0-10.0-9.0","843779009b916bfa7b55047e973eb87d8d72d8729bc7265dafe7e8d655acadf1","swim","arctic","2705.0999999046326","","","","","","","survey","","","","","","","","","","","","","{""HC"":""""}","","","health-concerns",""
"html-button-response","108","3150595","0.0-11.0-0.0","843779009b916bfa7b55047e973eb87d8d72d8729bc7265dafe7e8d655acadf1","swim","arctic","2370","","<p>How would you describe your musical skills/experiences?</p>","3","","","","survey","","","","","","","","","","","","","","","","music-skill","4"
"survey-multi-choice","109","3152763","0.0-11.0-1.0","843779009b916bfa7b55047e973eb87d8d72d8729bc7265dafe7e8d655acadf1","swim","arctic","1848","","","","","","","survey","","","","","","","","","","","","","{""Q0"":""Yes""}","","","music-instrument","Yes"
"survey-text","110","3166395","0.0-11.0-2.0-0.0","843779009b916bfa7b55047e973eb87d8d72d8729bc7265dafe7e8d655acadf1","swim","arctic","13368.699999928474","","","","","","","survey","","","","","","","","","","","","","{""MEXP"":""10""}","","","music-training-yrs","10"
"html-button-response","111","3168189","0.0-12.0-0.0","843779009b916bfa7b55047e973eb87d8d72d8729bc7265dafe7e8d655acadf1","swim","arctic","1539","","<p>How would you describe your general hearing abilities?</p>","4","","","","survey","","","","","","","","","","","","","","","","ssq-01","5"
"html-button-response","112","3171505","0.0-12.0-1.0","843779009b916bfa7b55047e973eb87d8d72d8729bc7265dafe7e8d655acadf1","swim","arctic","3063","","<p>When you talk with someone at a place that strongly reverberates/echoes (e.g., in a church or train station),</br>can you understand what the person says?</p>","7","","","","survey","","","","","","","","","","","","","","","","ssq-02","7"
"html-button-response","113","3174647","0.0-12.0-2.0","843779009b916bfa7b55047e973eb87d8d72d8729bc7265dafe7e8d655acadf1","swim","arctic","2888","","<p>When you are with a group (~5 people) in a lively restaurant, can you follow the group's conversation?</p>","6","","","","survey","","","","","","","","","","","","","","","","ssq-03","6"
"html-button-response","114","3178261","0.0-12.0-3.0","843779009b916bfa7b55047e973eb87d8d72d8729bc7265dafe7e8d655acadf1","swim","arctic","3360","","<p>Based on the sound of a bus or truck, can you tell whether it is moving towards or away from you?</p>","4","","","","survey","","","","","","","","","","","","","","","","ssq-04","4"
"html-button-response","115","3181407","0.0-12.0-4.0","843779009b916bfa7b55047e973eb87d8d72d8729bc7265dafe7e8d655acadf1","swim","arctic","2892","","<p>When you are in an unknown environment, can you tell from which direction a brief sound originates?</p>","5","","","","survey","","","","","","","","","","","","","","","","ssq-05","5"
"html-button-response","116","3184897","0.0-12.0-5.0","843779009b916bfa7b55047e973eb87d8d72d8729bc7265dafe7e8d655acadf1","swim","arctic","3148","","<p>Are you able to ignore distracting sounds when you concentrate on a specific aspect of your acoustic surrounding?</p>","6","","","","survey","","","","","","","","","","","","","","","","ssq-06","6"
"fullscreen","117","3186151","0.0-13.0","843779009b916bfa7b55047e973eb87d8d72d8729bc7265dafe7e8d655acadf1","swim","arctic","","","","","","","","","true","","","","","","","","","","","","","","","",""
