"trial_type","trial_index","time_elapsed","internal_node_id","ParticipantID","firstStory","scramStory","rt","url","stimulus","button_pressed","key_press","correctRESP","correct","designation","success","letterStim","letterType","ONSET","TIMEOUT","CONDITION","Participant","ONSET_ACTUAL","RT","RESP","ACC","STORY","responses","response","type","surveyQuestion","QRESP"
"pavlovia","0","2","0.0-0.0","b68de581894bb73ac79811033110804dc5c441f690b243feaceabd60d9460e06","arctic","arctic","","","","","","","","","","","","","","","","","","","","","","","","",""
"external-html","1","5987","0.0-1.0","b68de581894bb73ac79811033110804dc5c441f690b243feaceabd60d9460e06","arctic","arctic","5860","consent/consent_updated.html","","","","","","","","","","","","","","","","","","","","","","",""
"html-button-response","2","15260","0.0-2.0-0.0","b68de581894bb73ac79811033110804dc5c441f690b243feaceabd60d9460e06","arctic","arctic","9273","","<p>Before we begin the main task, you will complete a short volume calibration and headphone check.</p><p>Please make sure you are in a quiet listening environment, that you are wearing headphones, and that your computer's volume is turned on.<p></p>","0","","","","","","","","","","","","","","","","","","","","",""
"html-button-response","3","20838","0.0-2.0-1.0","b68de581894bb73ac79811033110804dc5c441f690b243feaceabd60d9460e06","arctic","arctic","5327","","<p>The volume calibration will be first.</p><p>You will hear a thirty-second noise. Please adjust your computer's volume so that this noise is being presented at a comfortable level.<p></p>","0","","","","","","","","","","","","","","","","","","","","",""
"audio-button-response","4","37039","0.0-2.0-2.0","b68de581894bb73ac79811033110804dc5c441f690b243feaceabd60d9460e06","arctic","arctic","15937","","audio/volumetest.mp3","0","","","","","","","","","","","","","","","","","","","","",""
"html-keyboard-response","5","46314","0.0-3.0-0.0","b68de581894bb73ac79811033110804dc5c441f690b243feaceabd60d9460e06","arctic","arctic","9275","","<p>You will now complete a short headphone check.</p><p>On each trial, you will hear three tones. One of these tones will be quieter than the others. Your task is to identify whether the quiet tone occurred first, second, or third.</p><p>There are six trials in total.<p></p><p></p>(Press SPACEBAR to begin)","","32","","","","","","","","","","","","","","","","","","","",""
"html-keyboard-response","6","47095","0.0-3.0-1.0-0.0","b68de581894bb73ac79811033110804dc5c441f690b243feaceabd60d9460e06","arctic","arctic","null","","<div style=""font-size:60px;"">+</div>","","null","","","","","","","","","","","","","","","","","","","",""
"audio-button-response","7","51803","0.0-3.0-1.0-1.0","b68de581894bb73ac79811033110804dc5c441f690b243feaceabd60d9460e06","arctic","arctic","4708","","audio/t2_2.mp3","1","","1","1","headphone-test","","","","","","","","","","","","","","","","",""
"html-keyboard-response","8","52304","0.0-3.0-1.0-2.0","b68de581894bb73ac79811033110804dc5c441f690b243feaceabd60d9460e06","arctic","arctic","null","","<p>Correct</p>","","null","","","","","","","","","","","","","","","","","","","",""
"html-keyboard-response","9","52810","0.0-3.0-1.0-0.1","b68de581894bb73ac79811033110804dc5c441f690b243feaceabd60d9460e06","arctic","arctic","null","","<div style=""font-size:60px;"">+</div>","","null","","","","","","","","","","","","","","","","","","","",""
"audio-button-response","10","57447","0.0-3.0-1.0-1.1","b68de581894bb73ac79811033110804dc5c441f690b243feaceabd60d9460e06","arctic","arctic","4636","","audio/t1_2.mp3","0","","0","1","headphone-test","","","","","","","","","","","","","","","","",""
"html-keyboard-response","11","57948","0.0-3.0-1.0-2.1","b68de581894bb73ac79811033110804dc5c441f690b243feaceabd60d9460e06","arctic","arctic","null","","<p>Correct</p>","","null","","","","","","","","","","","","","","","","","","","",""
"html-keyboard-response","12","58454","0.0-3.0-1.0-0.2","b68de581894bb73ac79811033110804dc5c441f690b243feaceabd60d9460e06","arctic","arctic","null","","<div style=""font-size:60px;"">+</div>","","null","","","","","","","","","","","","","","","","","","","",""
"audio-button-response","13","62943","0.0-3.0-1.0-1.2","b68de581894bb73ac79811033110804dc5c441f690b243feaceabd60d9460e06","arctic","arctic","4488","","audio/t1_1.mp3","0","","0","1","headphone-test","","","","","","","","","","","","","","","","",""
"html-keyboard-response","14","63445","0.0-3.0-1.0-2.2","b68de581894bb73ac79811033110804dc5c441f690b243feaceabd60d9460e06","arctic","arctic","null","","<p>Correct</p>","","null","","","","","","","","","","","","","","","","","","","",""
"html-keyboard-response","15","63954","0.0-3.0-1.0-0.3","b68de581894bb73ac79811033110804dc5c441f690b243feaceabd60d9460e06","arctic","arctic","null","","<div style=""font-size:60px;"">+</div>","","null","","","","","","","","","","","","","","","","","","","",""
"audio-button-response","16","68298","0.0-3.0-1.0-1.3","b68de581894bb73ac79811033110804dc5c441f690b243feaceabd60d9460e06","arctic","arctic","4343","","audio/t3_1.mp3","2","","2","1","headphone-test","","","","","","","","","","","","","","","","",""
"html-keyboard-response","17","68804","0.0-3.0-1.0-2.3","b68de581894bb73ac79811033110804dc5c441f690b243feaceabd60d9460e06","arctic","arctic","null","","<p>Correct</p>","","null","","","","","","","","","","","","","","","","","","","",""
"html-keyboard-response","18","69314","0.0-3.0-1.0-0.4","b68de581894bb73ac79811033110804dc5c441f690b243feaceabd60d9460e06","arctic","arctic","null","","<div style=""font-size:60px;"">+</div>","","null","","","","","","","","","","","","","","","","","","","",""
"audio-button-response","19","73760","0.0-3.0-1.0-1.4","b68de581894bb73ac79811033110804dc5c441f690b243feaceabd60d9460e06","arctic","arctic","4445","","audio/t3_2.mp3","2","","2","1","headphone-test","","","","","","","","","","","","","","","","",""
"html-keyboard-response","20","74261","0.0-3.0-1.0-2.4","b68de581894bb73ac79811033110804dc5c441f690b243feaceabd60d9460e06","arctic","arctic","null","","<p>Correct</p>","","null","","","","","","","","","","","","","","","","","","","",""
"html-keyboard-response","21","74764","0.0-3.0-1.0-0.5","b68de581894bb73ac79811033110804dc5c441f690b243feaceabd60d9460e06","arctic","arctic","null","","<div style=""font-size:60px;"">+</div>","","null","","","","","","","","","","","","","","","","","","","",""
"audio-button-response","22","79198","0.0-3.0-1.0-1.5","b68de581894bb73ac79811033110804dc5c441f690b243feaceabd60d9460e06","arctic","arctic","4432","","audio/t2_1.mp3","1","","1","1","headphone-test","","","","","","","","","","","","","","","","",""
"html-keyboard-response","23","79704","0.0-3.0-1.0-2.5","b68de581894bb73ac79811033110804dc5c441f690b243feaceabd60d9460e06","arctic","arctic","null","","<p>Correct</p>","","null","","","","","","","","","","","","","","","","","","","",""
"fullscreen","24","83024","0.0-4.0","b68de581894bb73ac79811033110804dc5c441f690b243feaceabd60d9460e06","arctic","arctic","","","","","","","","","true","","","","","","","","","","","","","","","",""
"html-button-response","25","123514","0.0-5.0-0.0","b68de581894bb73ac79811033110804dc5c441f690b243feaceabd60d9460e06","arctic","arctic","40490","","<p>There are two blocks to this experiment.</p><p>In each block, you will hear a ~13.5 minute story. One of the stories will be scrambled. Please listen carefully to both stories and understand them as best you can.</p><p>After each story, you will be asked some questions to assess your comprehension.</p>","0","","","","","","","","","","","","","","","","","","","","",""
"html-button-response","26","141853","0.0-5.0-1.0","b68de581894bb73ac79811033110804dc5c441f690b243feaceabd60d9460e06","arctic","arctic","18339","","<p>During each story, there will be an additional task.</p><p>A letter will occasionally appear on the screen.</br>Your job is to - as quickly as you can - decide whether the letter is lowercase or uppercase and press one of two keys on the keyboard:</p><p>If the letter is <b>lowercase</b>, press key &lt;<b>x</b>&gt;.</p><p>If the letter is <b>uppercase</b>, press key &lt;<b>m</b>&gt;.</p>","0","","","","","","","","","","","","","","","","","","","","",""
"html-keyboard-response","27","179161","0.0-5.0-2.0","b68de581894bb73ac79811033110804dc5c441f690b243feaceabd60d9460e06","arctic","arctic","37307","","<p>Because we want your responses to be as quick as possible, please keep your index fingers over the keys while listening.</p><p>Each block lasts about 20 minutes.</p><p><b>Press &lt;x&gt; or &lt;m&gt; to start the first block!</b></p>","","77","","","","","","","","","","","","","","","","","","","",""
"html-keyboard-response","28","179662","0.0-6.0-0.0-0.0","b68de581894bb73ac79811033110804dc5c441f690b243feaceabd60d9460e06","arctic","arctic","null","","<div style=""font-size:60px;"" tabindex=""0"">+</div>","","null","","","","","","","","","","","","","","","","","","","",""
"dual-task","null","null","null","","arctic","arctic","NA","","n","null","NA","88","0","arctic-dual-task","","n","lowercase","12000","1","6","b68de581894bb73ac79811033110804dc5c441f690b243feaceabd60d9460e06","12014.79999999702","NA","NA","0","arctic","","","","",""
"dual-task","null","null","null","","arctic","arctic","811","","n","null","88","88","1","arctic-dual-task","","n","lowercase","24000","0","6","b68de581894bb73ac79811033110804dc5c441f690b243feaceabd60d9460e06","24014","811","88","1","arctic","","","","",""
"dual-task","null","null","null","","arctic","arctic","724.8000000007451","","f","null","88","88","1","arctic-dual-task","","f","lowercase","36000","0","6","b68de581894bb73ac79811033110804dc5c441f690b243feaceabd60d9460e06","36004.199999999255","724.8000000007451","88","1","arctic","","","","",""
"dual-task","null","null","null","","arctic","arctic","740.5999999977648","","B","null","77","77","1","arctic-dual-task","","B","uppercase","46000","0","6","b68de581894bb73ac79811033110804dc5c441f690b243feaceabd60d9460e06","46004.099999997765","740.5999999977648","77","1","arctic","","","","",""
"dual-task","null","null","null","","arctic","arctic","554.6000000014901","","b","null","88","88","1","arctic-dual-task","","b","lowercase","60000","0","6","b68de581894bb73ac79811033110804dc5c441f690b243feaceabd60d9460e06","60014.199999999255","554.6000000014901","88","1","arctic","","","","",""
"dual-task","null","null","null","","arctic","arctic","747","","a","null","88","88","1","arctic-dual-task","","a","lowercase","70000","0","6","b68de581894bb73ac79811033110804dc5c441f690b243feaceabd60d9460e06","70013.89999999851","747","88","1","arctic","","","","",""
"dual-task","null","null","null","","arctic","arctic","548.5","","a","null","88","88","1","arctic-dual-task","","a","lowercase","82000","0","6","b68de581894bb73ac79811033110804dc5c441f690b243feaceabd60d9460e06","82004.09999999776","548.5","88","1","arctic","","","","",""
"dual-task","null","null","null","","arctic","arctic","658.9000000022352","","b","null","88","88","1","arctic-dual-task","","b","lowercase","92000","0","6","b68de581894bb73ac79811033110804dc5c441f690b243feaceabd60d9460e06","92013.69999999925","658.9000000022352","88","1","arctic","","","","",""
"dual-task","null","null","null","","arctic","arctic","588.2999999970198","","t","null","88","88","1","arctic-dual-task","","t","lowercase","104000","0","6","b68de581894bb73ac79811033110804dc5c441f690b243feaceabd60d9460e06","104003.89999999851","588.2999999970198","88","1","arctic","","","","",""
"dual-task","null","null","null","","arctic","arctic","812.2000000029802","","g","null","88","88","1","arctic-dual-task","","g","lowercase","112000","0","6","b68de581894bb73ac79811033110804dc5c441f690b243feaceabd60d9460e06","112003.69999999925","812.2000000029802","88","1","arctic","","","","",""
"dual-task","null","null","null","","arctic","arctic","NA","","r","null","NA","88","0","arctic-dual-task","","r","lowercase","120000","1","6","b68de581894bb73ac79811033110804dc5c441f690b243feaceabd60d9460e06","120013.59999999776","NA","NA","0","arctic","","","","",""
"dual-task","null","null","null","","arctic","arctic","532.3000000007451","","E","null","88","77","0","arctic-dual-task","","E","uppercase","130000","0","6","b68de581894bb73ac79811033110804dc5c441f690b243feaceabd60d9460e06","130003.5","532.3000000007451","88","0","arctic","","","","",""
"dual-task","null","null","null","","arctic","arctic","522.4000000022352","","q","null","88","88","1","arctic-dual-task","","q","lowercase","136000","0","6","b68de581894bb73ac79811033110804dc5c441f690b243feaceabd60d9460e06","136013.69999999925","522.4000000022352","88","1","arctic","","","","",""
"dual-task","null","null","null","","arctic","arctic","450.80000000074506","","R","null","77","77","1","arctic-dual-task","","R","uppercase","144000","0","6","b68de581894bb73ac79811033110804dc5c441f690b243feaceabd60d9460e06","144013","450.80000000074506","77","1","arctic","","","","",""
"dual-task","null","null","null","","arctic","arctic","557.8000000007451","","d","null","88","88","1","arctic-dual-task","","d","lowercase","158000","0","6","b68de581894bb73ac79811033110804dc5c441f690b243feaceabd60d9460e06","158010.29999999702","557.8000000007451","88","1","arctic","","","","",""
"dual-task","null","null","null","","arctic","arctic","1002.5999999977648","","a","null","88","88","1","arctic-dual-task","","a","lowercase","168000","0","6","b68de581894bb73ac79811033110804dc5c441f690b243feaceabd60d9460e06","168013.09999999776","1002.5999999977648","88","1","arctic","","","","",""
"dual-task","null","null","null","","arctic","arctic","602.3000000007451","","r","null","88","88","1","arctic-dual-task","","r","lowercase","178000","0","6","b68de581894bb73ac79811033110804dc5c441f690b243feaceabd60d9460e06","178013.09999999776","602.3000000007451","88","1","arctic","","","","",""
"dual-task","null","null","null","","arctic","arctic","666.5","","H","null","77","77","1","arctic-dual-task","","H","uppercase","188000","0","6","b68de581894bb73ac79811033110804dc5c441f690b243feaceabd60d9460e06","188013.19999999925","666.5","77","1","arctic","","","","",""
"dual-task","null","null","null","","arctic","arctic","628.8000000007451","","t","null","88","88","1","arctic-dual-task","","t","lowercase","202000","0","6","b68de581894bb73ac79811033110804dc5c441f690b243feaceabd60d9460e06","202002.79999999702","628.8000000007451","88","1","arctic","","","","",""
"dual-task","null","null","null","","arctic","arctic","660.8000000007451","","r","null","88","88","1","arctic-dual-task","","r","lowercase","214000","0","6","b68de581894bb73ac79811033110804dc5c441f690b243feaceabd60d9460e06","214002.3999999985","660.8000000007451","88","1","arctic","","","","",""
"dual-task","null","null","null","","arctic","arctic","604.4000000022352","","N","null","77","77","1","arctic-dual-task","","N","uppercase","220000","0","6","b68de581894bb73ac79811033110804dc5c441f690b243feaceabd60d9460e06","220002.59999999776","604.4000000022352","77","1","arctic","","","","",""
"dual-task","null","null","null","","arctic","arctic","596.3999999985099","","d","null","88","88","1","arctic-dual-task","","d","lowercase","232000","0","6","b68de581894bb73ac79811033110804dc5c441f690b243feaceabd60d9460e06","232002.79999999702","596.3999999985099","88","1","arctic","","","","",""
"dual-task","null","null","null","","arctic","arctic","572.1000000014901","","B","null","77","77","1","arctic-dual-task","","B","uppercase","240000","0","6","b68de581894bb73ac79811033110804dc5c441f690b243feaceabd60d9460e06","240002.69999999925","572.1000000014901","77","1","arctic","","","","",""
"dual-task","null","null","null","","arctic","arctic","636.8999999985099","","e","null","88","88","1","arctic-dual-task","","e","lowercase","248000","0","6","b68de581894bb73ac79811033110804dc5c441f690b243feaceabd60d9460e06","248002.3999999985","636.8999999985099","88","1","arctic","","","","",""
"dual-task","null","null","null","","arctic","arctic","539","","G","null","77","77","1","arctic-dual-task","","G","uppercase","258000","0","6","b68de581894bb73ac79811033110804dc5c441f690b243feaceabd60d9460e06","258012","539","77","1","arctic","","","","",""
"dual-task","null","null","null","","arctic","arctic","575.5","","Q","null","77","77","1","arctic-dual-task","","Q","uppercase","270000","0","6","b68de581894bb73ac79811033110804dc5c441f690b243feaceabd60d9460e06","270015.299999997","575.5","77","1","arctic","","","","",""
"dual-task","null","null","null","","arctic","arctic","644.5","","T","null","77","77","1","arctic-dual-task","","T","uppercase","282000","0","6","b68de581894bb73ac79811033110804dc5c441f690b243feaceabd60d9460e06","282002.5","644.5","77","1","arctic","","","","",""
"dual-task","null","null","null","","arctic","arctic","594.3000000007451","","D","null","77","77","1","arctic-dual-task","","D","uppercase","292000","0","6","b68de581894bb73ac79811033110804dc5c441f690b243feaceabd60d9460e06","292012.3999999985","594.3000000007451","77","1","arctic","","","","",""
"dual-task","null","null","null","","arctic","arctic","620.8000000007451","","E","null","77","77","1","arctic-dual-task","","E","uppercase","300000","0","6","b68de581894bb73ac79811033110804dc5c441f690b243feaceabd60d9460e06","300002","620.8000000007451","77","1","arctic","","","","",""
"dual-task","null","null","null","","arctic","arctic","770.5","","q","null","88","88","1","arctic-dual-task","","q","lowercase","306000","0","6","b68de581894bb73ac79811033110804dc5c441f690b243feaceabd60d9460e06","306012.299999997","770.5","88","1","arctic","","","","",""
"dual-task","null","null","null","","arctic","arctic","452.30000000074506","","Q","null","77","77","1","arctic-dual-task","","Q","uppercase","312000","0","6","b68de581894bb73ac79811033110804dc5c441f690b243feaceabd60d9460e06","312002.19999999925","452.30000000074506","77","1","arctic","","","","",""
"dual-task","null","null","null","","arctic","arctic","524.5","","T","null","77","77","1","arctic-dual-task","","T","uppercase","318000","0","6","b68de581894bb73ac79811033110804dc5c441f690b243feaceabd60d9460e06","318002","524.5","77","1","arctic","","","","",""
"dual-task","null","null","null","","arctic","arctic","530.8000000007451","","A","null","77","77","1","arctic-dual-task","","A","uppercase","332000","0","6","b68de581894bb73ac79811033110804dc5c441f690b243feaceabd60d9460e06","332011.69999999925","530.8000000007451","77","1","arctic","","","","",""
"dual-task","null","null","null","","arctic","arctic","813","","e","null","77","88","0","arctic-dual-task","","e","lowercase","344000","0","6","b68de581894bb73ac79811033110804dc5c441f690b243feaceabd60d9460e06","344001.799999997","813","77","0","arctic","","","","",""
"dual-task","null","null","null","","arctic","arctic","733.8000000007451","","G","null","77","77","1","arctic-dual-task","","G","uppercase","350000","0","6","b68de581894bb73ac79811033110804dc5c441f690b243feaceabd60d9460e06","350008.299999997","733.8000000007451","77","1","arctic","","","","",""
"dual-task","null","null","null","","arctic","arctic","618.9000000022352","","h","null","88","88","1","arctic-dual-task","","h","lowercase","356000","0","6","b68de581894bb73ac79811033110804dc5c441f690b243feaceabd60d9460e06","356011.5","618.9000000022352","88","1","arctic","","","","",""
"dual-task","null","null","null","","arctic","arctic","596.6999999992549","","E","null","77","77","1","arctic-dual-task","","E","uppercase","368000","0","6","b68de581894bb73ac79811033110804dc5c441f690b243feaceabd60d9460e06","368001.3999999985","596.6999999992549","77","1","arctic","","","","",""
"dual-task","null","null","null","","arctic","arctic","659","","Q","null","77","77","1","arctic-dual-task","","Q","uppercase","378000","0","6","b68de581894bb73ac79811033110804dc5c441f690b243feaceabd60d9460e06","378011.299999997","659","77","1","arctic","","","","",""
"dual-task","null","null","null","","arctic","arctic","868.3999999985099","","g","null","88","88","1","arctic-dual-task","","g","lowercase","390000","0","6","b68de581894bb73ac79811033110804dc5c441f690b243feaceabd60d9460e06","390001.59999999776","868.3999999985099","88","1","arctic","","","","",""
"dual-task","null","null","null","","arctic","arctic","706.5","","R","null","77","77","1","arctic-dual-task","","R","uppercase","402000","0","6","b68de581894bb73ac79811033110804dc5c441f690b243feaceabd60d9460e06","402011.3999999985","706.5","77","1","arctic","","","","",""
"dual-task","null","null","null","","arctic","arctic","1042","","h","null","88","88","1","arctic-dual-task","","h","lowercase","408000","0","6","b68de581894bb73ac79811033110804dc5c441f690b243feaceabd60d9460e06","408011.299999997","1042","88","1","arctic","","","","",""
"dual-task","null","null","null","","arctic","arctic","701.4000000022352","","D","null","77","77","1","arctic-dual-task","","D","uppercase","414000","0","6","b68de581894bb73ac79811033110804dc5c441f690b243feaceabd60d9460e06","414008.5","701.4000000022352","77","1","arctic","","","","",""
"dual-task","null","null","null","","arctic","arctic","764.7999999970198","","H","null","77","77","1","arctic-dual-task","","H","uppercase","428000","0","6","b68de581894bb73ac79811033110804dc5c441f690b243feaceabd60d9460e06","428001","764.7999999970198","77","1","arctic","","","","",""
"dual-task","null","null","null","","arctic","arctic","706.5","","Q","null","77","77","1","arctic-dual-task","","Q","uppercase","442000","0","6","b68de581894bb73ac79811033110804dc5c441f690b243feaceabd60d9460e06","442011.09999999776","706.5","77","1","arctic","","","","",""
"dual-task","null","null","null","","arctic","arctic","655.3999999985099","","n","null","88","88","1","arctic-dual-task","","n","lowercase","448000","0","6","b68de581894bb73ac79811033110804dc5c441f690b243feaceabd60d9460e06","448006.09999999776","655.3999999985099","88","1","arctic","","","","",""
"dual-task","null","null","null","","arctic","arctic","652.6000000014901","","N","null","77","77","1","arctic-dual-task","","N","uppercase","458000","0","6","b68de581894bb73ac79811033110804dc5c441f690b243feaceabd60d9460e06","458000.69999999925","652.6000000014901","77","1","arctic","","","","",""
"dual-task","null","null","null","","arctic","arctic","652.1000000014901","","F","null","77","77","1","arctic-dual-task","","F","uppercase","468000","0","6","b68de581894bb73ac79811033110804dc5c441f690b243feaceabd60d9460e06","468001","652.1000000014901","77","1","arctic","","","","",""
"dual-task","null","null","null","","arctic","arctic","1154.2000000029802","","f","null","88","88","1","arctic-dual-task","","f","lowercase","476000","0","6","b68de581894bb73ac79811033110804dc5c441f690b243feaceabd60d9460e06","476011.299999997","1154.2000000029802","88","1","arctic","","","","",""
"dual-task","null","null","null","","arctic","arctic","844.6000000014901","","N","null","77","77","1","arctic-dual-task","","N","uppercase","486000","0","6","b68de581894bb73ac79811033110804dc5c441f690b243feaceabd60d9460e06","486000.5","844.6000000014901","77","1","arctic","","","","",""
"dual-task","null","null","null","","arctic","arctic","690.5","","A","null","77","77","1","arctic-dual-task","","A","uppercase","496000","0","6","b68de581894bb73ac79811033110804dc5c441f690b243feaceabd60d9460e06","496010.69999999925","690.5","77","1","arctic","","","","",""
"dual-task","null","null","null","","arctic","arctic","754.5","","R","null","77","77","1","arctic-dual-task","","R","uppercase","506000","0","6","b68de581894bb73ac79811033110804dc5c441f690b243feaceabd60d9460e06","506010.59999999776","754.5","77","1","arctic","","","","",""
"dual-task","null","null","null","","arctic","arctic","690.5","","H","null","77","77","1","arctic-dual-task","","H","uppercase","516000","0","6","b68de581894bb73ac79811033110804dc5c441f690b243feaceabd60d9460e06","516010.19999999925","690.5","77","1","arctic","","","","",""
"dual-task","null","null","null","","arctic","arctic","589.3000000007451","","T","null","77","77","1","arctic-dual-task","","T","uppercase","524000","0","6","b68de581894bb73ac79811033110804dc5c441f690b243feaceabd60d9460e06","524007.799999997","589.3000000007451","77","1","arctic","","","","",""
"dual-task","null","null","null","","arctic","arctic","834.5999999977648","","f","null","88","88","1","arctic-dual-task","","f","lowercase","532000","0","6","b68de581894bb73ac79811033110804dc5c441f690b243feaceabd60d9460e06","532010.0999999978","834.5999999977648","88","1","arctic","","","","",""
"dual-task","null","null","null","","arctic","arctic","665.1000000014901","","A","null","77","77","1","arctic-dual-task","","A","uppercase","540000","0","6","b68de581894bb73ac79811033110804dc5c441f690b243feaceabd60d9460e06","540011.799999997","665.1000000014901","77","1","arctic","","","","",""
"dual-task","null","null","null","","arctic","arctic","698.1999999992549","","N","null","77","77","1","arctic-dual-task","","N","uppercase","548000","0","6","b68de581894bb73ac79811033110804dc5c441f690b243feaceabd60d9460e06","548010.299999997","698.1999999992549","77","1","arctic","","","","",""
"dual-task","null","null","null","","arctic","arctic","610.5","","b","null","88","88","1","arctic-dual-task","","b","lowercase","558000","0","6","b68de581894bb73ac79811033110804dc5c441f690b243feaceabd60d9460e06","558010.0999999978","610.5","88","1","arctic","","","","",""
"dual-task","null","null","null","","arctic","arctic","634.3999999985099","","h","null","88","88","1","arctic-dual-task","","h","lowercase","566000","0","6","b68de581894bb73ac79811033110804dc5c441f690b243feaceabd60d9460e06","566010","634.3999999985099","88","1","arctic","","","","",""
"dual-task","null","null","null","","arctic","arctic","732.6000000014901","","G","null","77","77","1","arctic-dual-task","","G","uppercase","574000","0","6","b68de581894bb73ac79811033110804dc5c441f690b243feaceabd60d9460e06","574007.799999997","732.6000000014901","77","1","arctic","","","","",""
"dual-task","null","null","null","","arctic","arctic","752.5","","d","null","88","88","1","arctic-dual-task","","d","lowercase","582000","0","6","b68de581894bb73ac79811033110804dc5c441f690b243feaceabd60d9460e06","582019.6999999993","752.5","88","1","arctic","","","","",""
"dual-task","null","null","null","","arctic","arctic","858.5","","B","null","77","77","1","arctic-dual-task","","B","uppercase","588000","0","6","b68de581894bb73ac79811033110804dc5c441f690b243feaceabd60d9460e06","588009.8999999985","858.5","77","1","arctic","","","","",""
"dual-task","null","null","null","","arctic","arctic","624.6000000014901","","E","null","77","77","1","arctic-dual-task","","E","uppercase","596000","0","6","b68de581894bb73ac79811033110804dc5c441f690b243feaceabd60d9460e06","596019.5999999978","624.6000000014901","77","1","arctic","","","","",""
"dual-task","null","null","null","","arctic","arctic","786.3999999985099","","n","null","88","88","1","arctic-dual-task","","n","lowercase","606000","0","6","b68de581894bb73ac79811033110804dc5c441f690b243feaceabd60d9460e06","606009.799999997","786.3999999985099","88","1","arctic","","","","",""
"dual-task","null","null","null","","arctic","arctic","563.2000000029802","","g","null","88","88","1","arctic-dual-task","","g","lowercase","616000","0","6","b68de581894bb73ac79811033110804dc5c441f690b243feaceabd60d9460e06","616008.5999999978","563.2000000029802","88","1","arctic","","","","",""
"dual-task","null","null","null","","arctic","arctic","594.3999999985099","","G","null","77","77","1","arctic-dual-task","","G","uppercase","626000","0","6","b68de581894bb73ac79811033110804dc5c441f690b243feaceabd60d9460e06","626009.5","594.3999999985099","77","1","arctic","","","","",""
"dual-task","null","null","null","","arctic","arctic","674.0999999977648","","t","null","88","88","1","arctic-dual-task","","t","lowercase","634000","0","6","b68de581894bb73ac79811033110804dc5c441f690b243feaceabd60d9460e06","634001.6999999993","674.0999999977648","88","1","arctic","","","","",""
"dual-task","null","null","null","","arctic","arctic","602.6999999992549","","b","null","88","88","1","arctic-dual-task","","b","lowercase","640000","0","6","b68de581894bb73ac79811033110804dc5c441f690b243feaceabd60d9460e06","640009.299999997","602.6999999992549","88","1","arctic","","","","",""
"dual-task","null","null","null","","arctic","arctic","760.5","","A","null","77","77","1","arctic-dual-task","","A","uppercase","648000","0","6","b68de581894bb73ac79811033110804dc5c441f690b243feaceabd60d9460e06","648019.1999999993","760.5","77","1","arctic","","","","",""
"dual-task","null","null","null","","arctic","arctic","650.5","","d","null","88","88","1","arctic-dual-task","","d","lowercase","660000","0","6","b68de581894bb73ac79811033110804dc5c441f690b243feaceabd60d9460e06","660009.5999999978","650.5","88","1","arctic","","","","",""
"dual-task","null","null","null","","arctic","arctic","656.8000000007451","","t","null","88","88","1","arctic-dual-task","","t","lowercase","668000","0","6","b68de581894bb73ac79811033110804dc5c441f690b243feaceabd60d9460e06","668018.6999999993","656.8000000007451","88","1","arctic","","","","",""
"dual-task","null","null","null","","arctic","arctic","818.5","","F","null","77","77","1","arctic-dual-task","","F","uppercase","676000","0","6","b68de581894bb73ac79811033110804dc5c441f690b243feaceabd60d9460e06","676009.1999999993","818.5","77","1","arctic","","","","",""
"dual-task","null","null","null","","arctic","arctic","624.9000000022352","","r","null","88","88","1","arctic-dual-task","","r","lowercase","686000","0","6","b68de581894bb73ac79811033110804dc5c441f690b243feaceabd60d9460e06","686002.6999999993","624.9000000022352","88","1","arctic","","","","",""
"dual-task","null","null","null","","arctic","arctic","638.5","","g","null","88","88","1","arctic-dual-task","","g","lowercase","692000","0","6","b68de581894bb73ac79811033110804dc5c441f690b243feaceabd60d9460e06","692005.299999997","638.5","88","1","arctic","","","","",""
"dual-task","null","null","null","","arctic","arctic","608.4000000022352","","e","null","88","88","1","arctic-dual-task","","e","lowercase","702000","0","6","b68de581894bb73ac79811033110804dc5c441f690b243feaceabd60d9460e06","702019","608.4000000022352","88","1","arctic","","","","",""
"dual-task","null","null","null","","arctic","arctic","649.1000000014901","","H","null","77","77","1","arctic-dual-task","","H","uppercase","710000","0","6","b68de581894bb73ac79811033110804dc5c441f690b243feaceabd60d9460e06","710018.5999999978","649.1000000014901","77","1","arctic","","","","",""
"dual-task","null","null","null","","arctic","arctic","1032.6000000014901","","T","null","77","77","1","arctic-dual-task","","T","uppercase","716000","0","6","b68de581894bb73ac79811033110804dc5c441f690b243feaceabd60d9460e06","716010.5","1032.6000000014901","77","1","arctic","","","","",""
"dual-task","null","null","null","","arctic","arctic","888.2999999970198","","h","null","88","88","1","arctic-dual-task","","h","lowercase","724000","0","6","b68de581894bb73ac79811033110804dc5c441f690b243feaceabd60d9460e06","724018.8999999985","888.2999999970198","88","1","arctic","","","","",""
"dual-task","null","null","null","","arctic","arctic","786.5999999977648","","B","null","77","77","1","arctic-dual-task","","B","uppercase","732000","0","6","b68de581894bb73ac79811033110804dc5c441f690b243feaceabd60d9460e06","732008.3999999985","786.5999999977648","77","1","arctic","","","","",""
"dual-task","null","null","null","","arctic","arctic","672.8999999985099","","F","null","77","77","1","arctic-dual-task","","F","uppercase","740000","0","6","b68de581894bb73ac79811033110804dc5c441f690b243feaceabd60d9460e06","740018.1999999993","672.8999999985099","77","1","arctic","","","","",""
"dual-task","null","null","null","","arctic","arctic","663.8999999985099","","f","null","88","88","1","arctic-dual-task","","f","lowercase","748000","0","6","b68de581894bb73ac79811033110804dc5c441f690b243feaceabd60d9460e06","748018.8999999985","663.8999999985099","88","1","arctic","","","","",""
"dual-task","null","null","null","","arctic","arctic","626.6000000014901","","a","null","88","88","1","arctic-dual-task","","a","lowercase","760000","0","6","b68de581894bb73ac79811033110804dc5c441f690b243feaceabd60d9460e06","760008.5","626.6000000014901","88","1","arctic","","","","",""
"dual-task","null","null","null","","arctic","arctic","530.2999999970198","","F","null","77","77","1","arctic-dual-task","","F","uppercase","770000","0","6","b68de581894bb73ac79811033110804dc5c441f690b243feaceabd60d9460e06","770008.5","530.2999999970198","77","1","arctic","","","","",""
"dual-task","null","null","null","","arctic","arctic","629","","q","null","88","88","1","arctic-dual-task","","q","lowercase","776000","0","6","b68de581894bb73ac79811033110804dc5c441f690b243feaceabd60d9460e06","776006.0999999978","629","88","1","arctic","","","","",""
"dual-task","null","null","null","","arctic","arctic","666.8000000007451","","R","null","77","77","1","arctic-dual-task","","R","uppercase","790000","0","6","b68de581894bb73ac79811033110804dc5c441f690b243feaceabd60d9460e06","790008","666.8000000007451","77","1","arctic","","","","",""
"audio-keyboard-response","29","977682","0.0-6.0-0.0-1.0","b68de581894bb73ac79811033110804dc5c441f690b243feaceabd60d9460e06","arctic","arctic","null","","audio/story_arctic_scrambled.mp3","","null","","","","","","","","","","","","","","","","","","","",""
"html-button-response","30","983667","0.0-6.0-0.0-2.0","b68de581894bb73ac79811033110804dc5c441f690b243feaceabd60d9460e06","arctic","arctic","5984","","<p>This concludes the story. Thank you for listening.</p><p>You will now answer some questions about the content of the story.</p>","0","","","","","","","","","","","","","","","","","","","","",""
"survey-multi-choice","31","994128","0.0-6.0-0.0-3.0-0.0","b68de581894bb73ac79811033110804dc5c441f690b243feaceabd60d9460e06","arctic","arctic","10460","","<b>What were the weather conditions in the Arctic like the winter of the narrator&#39;s expedition?</b>","","","","1","arctic-comprehension","","","","","","","","","","","","","{""Q0"":""There were more storms than any other winter in recorded history.""}","","","",""
"survey-multi-choice","32","1000787","0.0-6.0-0.0-3.0-0.1","b68de581894bb73ac79811033110804dc5c441f690b243feaceabd60d9460e06","arctic","arctic","6407","","<b>How many sponsorships did the narrator receive to support her expedition?</b>","","","","1","arctic-comprehension","","","","","","","","","","","","","{""Q0"":""None""}","","","",""
"survey-multi-choice","33","1007642","0.0-6.0-0.0-3.0-0.2","b68de581894bb73ac79811033110804dc5c441f690b243feaceabd60d9460e06","arctic","arctic","6602","","<b>How did the dogs respond when they saw the bears?</b>","","","","1","arctic-comprehension","","","","","","","","","","","","","{""Q0"":""Approached them""}","","","",""
"survey-multi-choice","34","1012402","0.0-6.0-0.0-3.0-0.3","b68de581894bb73ac79811033110804dc5c441f690b243feaceabd60d9460e06","arctic","arctic","4507","","<b>What was the objective of the narrator&#39;s expedition?</b>","","","","1","arctic-comprehension","","","","","","","","","","","","","{""Q0"":""Dogsled across Arctic America""}","","","",""
"survey-multi-choice","35","1017465","0.0-6.0-0.0-3.0-0.4","b68de581894bb73ac79811033110804dc5c441f690b243feaceabd60d9460e06","arctic","arctic","4811","","<b>What is the name of the narrator&#39;s neighbour?</b>","","","","1","arctic-comprehension","","","","","","","","","","","","","{""Q0"":""Dave""}","","","",""
"survey-multi-choice","36","1028615","0.0-6.0-0.0-3.0-0.5","b68de581894bb73ac79811033110804dc5c441f690b243feaceabd60d9460e06","arctic","arctic","10899","","<b>Which dog on the narrator&#39;s dog team never followed instructions?</b>","","","","1","arctic-comprehension","","","","","","","","","","","","","{""Q0"":""Robert""}","","","",""
"survey-multi-choice","37","1035550","0.0-6.0-0.0-3.0-0.6","b68de581894bb73ac79811033110804dc5c441f690b243feaceabd60d9460e06","arctic","arctic","6683","","<b>How did the narrator prepare for her expedition?</b>","","","","1","arctic-comprehension","","","","","","","","","","","","","{""Q0"":""Trained in Alaska learning how to dogsled""}","","","",""
"survey-multi-choice","38","1041697","0.0-6.0-0.0-3.0-0.7","b68de581894bb73ac79811033110804dc5c441f690b243feaceabd60d9460e06","arctic","arctic","5894","","<b>How did the narrator&#39;s neighbour respond when she told him about her expedition?</b>","","","","1","arctic-comprehension","","","","","","","","","","","","","{""Q0"":""He said she was going to fail.""}","","","",""
"survey-multi-choice","39","1050054","0.0-6.0-0.0-3.0-0.8","b68de581894bb73ac79811033110804dc5c441f690b243feaceabd60d9460e06","arctic","arctic","8106","","<b>What did the narrator do for leisure while in her tent?</b>","","","","1","arctic-comprehension","","","","","","","","","","","","","{""Q0"":""Read""}","","","",""
"survey-multi-choice","40","1059622","0.0-6.0-0.0-3.0-0.9","b68de581894bb73ac79811033110804dc5c441f690b243feaceabd60d9460e06","arctic","arctic","9316","","<b>How did the narrator&#39;s encounter with the polar bears end?</b>","","","","1","arctic-comprehension","","","","","","","","","","","","","{""Q0"":""The bears walked back to their den.""}","","","",""
"html-button-response","41","1062592","0.0-6.0-0.0-4.0","b68de581894bb73ac79811033110804dc5c441f690b243feaceabd60d9460e06","arctic","arctic","2718","","<p>Thank you for your responses.</p><p>You will now answer some questions about your impressions of the story.</p>","0","","","","","","","","","","","","","","","","","","","","",""
"html-button-response","42","1065349","0.0-6.0-0.0-5.0-0.0","b68de581894bb73ac79811033110804dc5c441f690b243feaceabd60d9460e06","arctic","arctic","2757","","A3","5","","","","arctic-engagement","","","","","","","","","","","","","","6","absorption","",""
"html-button-response","43","1071495","0.0-6.0-0.0-5.0-0.1","b68de581894bb73ac79811033110804dc5c441f690b243feaceabd60d9460e06","arctic","arctic","5895","","MS2","5","","","","arctic-engagement","","","","","","","","","","","","","","6","mental-sim","",""
"html-button-response","44","1075902","0.0-6.0-0.0-5.0-0.2","b68de581894bb73ac79811033110804dc5c441f690b243feaceabd60d9460e06","arctic","arctic","4156","","A5","5","","","","arctic-engagement","","","","","","","","","","","","","","6","absorption","",""
"html-button-response","45","1078041","0.0-6.0-0.0-5.0-0.3","b68de581894bb73ac79811033110804dc5c441f690b243feaceabd60d9460e06","arctic","arctic","1888","","E8","4","","","","arctic-engagement","","","","","","","","","","","","","","5","enjoyment","",""
"html-button-response","46","1080710","0.0-6.0-0.0-5.0-0.4","b68de581894bb73ac79811033110804dc5c441f690b243feaceabd60d9460e06","arctic","arctic","2418","","E6","5","","","","arctic-engagement","","","","","","","","","","","","","","6","enjoyment","",""
"html-button-response","47","1085225","0.0-6.0-0.0-5.0-0.5","b68de581894bb73ac79811033110804dc5c441f690b243feaceabd60d9460e06","arctic","arctic","4264","","A4","4","","","","arctic-engagement","","","","","","","","","","","","","","5","absorption","",""
"html-button-response","48","1087085","0.0-6.0-0.0-5.0-0.6","b68de581894bb73ac79811033110804dc5c441f690b243feaceabd60d9460e06","arctic","arctic","1609","","EE2","5","","","","arctic-engagement","","","","","","","","","","","","","","6","emo-engage","",""
"html-button-response","49","1088945","0.0-6.0-0.0-5.0-0.7","b68de581894bb73ac79811033110804dc5c441f690b243feaceabd60d9460e06","arctic","arctic","1609","","EE3","5","","","","arctic-engagement","","","","","","","","","","","","","","6","emo-engage","",""
"html-button-response","50","1092786","0.0-6.0-0.0-5.0-0.8","b68de581894bb73ac79811033110804dc5c441f690b243feaceabd60d9460e06","arctic","arctic","3590","","MS1","3","","","","arctic-engagement","","","","","","","","","","","","","","4","mental-sim","",""
"html-button-response","51","1094963","0.0-6.0-0.0-5.0-0.9","b68de581894bb73ac79811033110804dc5c441f690b243feaceabd60d9460e06","arctic","arctic","1926","","E7","5","","","","arctic-engagement","","","","","","","","","","","","","","6","enjoyment","",""
"html-button-response","52","1098745","0.0-6.0-0.0-5.0-0.10","b68de581894bb73ac79811033110804dc5c441f690b243feaceabd60d9460e06","arctic","arctic","3530","","EE1","5","","","","arctic-engagement","","","","","","","","","","","","","","6","emo-engage","",""
"html-button-response","53","1101058","0.0-6.0-0.0-5.0-0.11","b68de581894bb73ac79811033110804dc5c441f690b243feaceabd60d9460e06","arctic","arctic","2061","","E10","5","","","","arctic-engagement","","","","","","","","","","","","","","6","enjoyment","",""
"html-button-response","54","1103668","0.0-6.0-0.0-5.0-0.12","b68de581894bb73ac79811033110804dc5c441f690b243feaceabd60d9460e06","arctic","arctic","2359","","EE4","4","","","","arctic-engagement","","","","","","","","","","","","","","5","emo-engage","",""
"html-button-response","55","1107351","0.0-6.0-0.0-5.0-0.13","b68de581894bb73ac79811033110804dc5c441f690b243feaceabd60d9460e06","arctic","arctic","3431","","A1","3","","","","arctic-engagement","","","","","","","","","","","","","","4","absorption","",""
"html-button-response","56","1109567","0.0-6.0-0.0-5.0-0.14","b68de581894bb73ac79811033110804dc5c441f690b243feaceabd60d9460e06","arctic","arctic","1964","","EE5","4","","","","arctic-engagement","","","","","","","","","","","","","","5","emo-engage","",""
"html-button-response","57","1112927","0.0-6.0-0.0-5.0-0.15","b68de581894bb73ac79811033110804dc5c441f690b243feaceabd60d9460e06","arctic","arctic","3109","","A2","6","","","","arctic-engagement","","","","","","","","","","","","","","7","absorption","",""
"html-button-response","58","1116577","0.0-6.0-0.0-5.0-0.16","b68de581894bb73ac79811033110804dc5c441f690b243feaceabd60d9460e06","arctic","arctic","3398","","MS3","5","","","","arctic-engagement","","","","","","","","","","","","","","6","mental-sim","",""
"html-button-response","59","1118204","0.0-6.0-0.0-5.0-0.17","b68de581894bb73ac79811033110804dc5c441f690b243feaceabd60d9460e06","arctic","arctic","1376","","E1","5","","","","arctic-engagement","","","","","","","","","","","","","","6","enjoyment","",""
"html-keyboard-response","60","1148824","0.0-6.0-1.0","b68de581894bb73ac79811033110804dc5c441f690b243feaceabd60d9460e06","arctic","arctic","30369","","<p>Thank you for your responses. You will now listen to the second story.</p><p>Remember, as you listen to the story you will see letters appear on the screen.</br>As quickly as possible, press <b>&lt;x&gt;</b> if the letter is lowercase and <b>&lt;m&gt;</b> if the letter is uppercase.</p><p>Press <b>&lt;x&gt;</b> or <b>&lt;m&gt;</b> to begin listening!</p>","","77","","","","","","","","","","","","","","","","","","","",""
"html-keyboard-response","61","1149325","0.0-6.0-2.0-0.0","b68de581894bb73ac79811033110804dc5c441f690b243feaceabd60d9460e06","arctic","arctic","null","","<div style=""font-size:60px;"" tabindex=""0"">+</div>","","null","","","","","","","","","","","","","","","","","","","",""
"dual-task","null","null","null","","arctic","arctic","753.3999999985099","","r","null","88","88","1","swim-dual-task","","r","lowercase","18000","0","6","b68de581894bb73ac79811033110804dc5c441f690b243feaceabd60d9460e06","18008.89999999851","753.3999999985099","88","1","swim","","","","",""
"dual-task","null","null","null","","arctic","arctic","657.3999999985099","","F","null","77","77","1","swim-dual-task","","F","uppercase","30000","0","6","b68de581894bb73ac79811033110804dc5c441f690b243feaceabd60d9460e06","30008.699999999255","657.3999999985099","77","1","swim","","","","",""
"dual-task","null","null","null","","arctic","arctic","570.3999999985099","","e","null","88","88","1","swim-dual-task","","e","lowercase","40000","0","6","b68de581894bb73ac79811033110804dc5c441f690b243feaceabd60d9460e06","39999.39999999851","570.3999999985099","88","1","swim","","","","",""
"dual-task","null","null","null","","arctic","arctic","640.5","","Q","null","77","77","1","swim-dual-task","","Q","uppercase","54000","0","6","b68de581894bb73ac79811033110804dc5c441f690b243feaceabd60d9460e06","54009.39999999851","640.5","77","1","swim","","","","",""
"dual-task","null","null","null","","arctic","arctic","598.3000000007451","","n","null","88","88","1","swim-dual-task","","n","lowercase","62000","0","6","b68de581894bb73ac79811033110804dc5c441f690b243feaceabd60d9460e06","62019.300000000745","598.3000000007451","88","1","swim","","","","",""
"dual-task","null","null","null","","arctic","arctic","643","","E","null","77","77","1","swim-dual-task","","E","uppercase","76000","0","6","b68de581894bb73ac79811033110804dc5c441f690b243feaceabd60d9460e06","76014.5","643","77","1","swim","","","","",""
"dual-task","null","null","null","","arctic","arctic","518.4000000022352","","g","null","88","88","1","swim-dual-task","","g","lowercase","86000","0","6","b68de581894bb73ac79811033110804dc5c441f690b243feaceabd60d9460e06","86019.10000000149","518.4000000022352","88","1","swim","","","","",""
"dual-task","null","null","null","","arctic","arctic","630.3999999985099","","A","null","77","77","1","swim-dual-task","","A","uppercase","100000","0","6","b68de581894bb73ac79811033110804dc5c441f690b243feaceabd60d9460e06","100019.10000000149","630.3999999985099","77","1","swim","","","","",""
"dual-task","null","null","null","","arctic","arctic","928.3999999985099","","t","null","88","88","1","swim-dual-task","","t","lowercase","106000","0","6","b68de581894bb73ac79811033110804dc5c441f690b243feaceabd60d9460e06","106008.60000000149","928.3999999985099","88","1","swim","","","","",""
"dual-task","null","null","null","","arctic","arctic","573.5","","R","null","77","77","1","swim-dual-task","","R","uppercase","114000","0","6","b68de581894bb73ac79811033110804dc5c441f690b243feaceabd60d9460e06","114011.69999999925","573.5","77","1","swim","","","","",""
"dual-task","null","null","null","","arctic","arctic","616.1999999992549","","b","null","88","88","1","swim-dual-task","","b","lowercase","128000","0","6","b68de581894bb73ac79811033110804dc5c441f690b243feaceabd60d9460e06","128017.5","616.1999999992549","88","1","swim","","","","",""
"dual-task","null","null","null","","arctic","arctic","614.8999999985099","","g","null","88","88","1","swim-dual-task","","g","lowercase","140000","0","6","b68de581894bb73ac79811033110804dc5c441f690b243feaceabd60d9460e06","140018.5","614.8999999985099","88","1","swim","","","","",""
"dual-task","null","null","null","","arctic","arctic","606.6999999992549","","t","null","88","88","1","swim-dual-task","","t","lowercase","152000","0","6","b68de581894bb73ac79811033110804dc5c441f690b243feaceabd60d9460e06","152018.5","606.6999999992549","88","1","swim","","","","",""
"dual-task","null","null","null","","arctic","arctic","654.5","","q","null","88","88","1","swim-dual-task","","q","lowercase","164000","0","6","b68de581894bb73ac79811033110804dc5c441f690b243feaceabd60d9460e06","164018.6000000015","654.5","88","1","swim","","","","",""
"dual-task","null","null","null","","arctic","arctic","606.1999999992549","","f","null","88","88","1","swim-dual-task","","f","lowercase","172000","0","6","b68de581894bb73ac79811033110804dc5c441f690b243feaceabd60d9460e06","172018.5","606.1999999992549","88","1","swim","","","","",""
"dual-task","null","null","null","","arctic","arctic","798.5","","A","null","77","77","1","swim-dual-task","","A","uppercase","184000","0","6","b68de581894bb73ac79811033110804dc5c441f690b243feaceabd60d9460e06","184018.5","798.5","77","1","swim","","","","",""
"dual-task","null","null","null","","arctic","arctic","534.5","","H","null","77","77","1","swim-dual-task","","H","uppercase","194000","0","6","b68de581894bb73ac79811033110804dc5c441f690b243feaceabd60d9460e06","194018.30000000075","534.5","77","1","swim","","","","",""
"dual-task","null","null","null","","arctic","arctic","590.5999999977648","","g","null","88","88","1","swim-dual-task","","g","lowercase","206000","0","6","b68de581894bb73ac79811033110804dc5c441f690b243feaceabd60d9460e06","206018.30000000075","590.5999999977648","88","1","swim","","","","",""
"dual-task","null","null","null","","arctic","arctic","651.1000000014901","","Q","null","77","77","1","swim-dual-task","","Q","uppercase","220000","0","6","b68de581894bb73ac79811033110804dc5c441f690b243feaceabd60d9460e06","220005.5","651.1000000014901","77","1","swim","","","","",""
"dual-task","null","null","null","","arctic","arctic","598.6000000014901","","R","null","77","77","1","swim-dual-task","","R","uppercase","232000","0","6","b68de581894bb73ac79811033110804dc5c441f690b243feaceabd60d9460e06","232017.80000000075","598.6000000014901","77","1","swim","","","","",""
"dual-task","null","null","null","","arctic","arctic","550.5","","H","null","77","77","1","swim-dual-task","","H","uppercase","242000","0","6","b68de581894bb73ac79811033110804dc5c441f690b243feaceabd60d9460e06","242017.69999999925","550.5","77","1","swim","","","","",""
"dual-task","null","null","null","","arctic","arctic","566.6000000014901","","N","null","77","77","1","swim-dual-task","","N","uppercase","256000","0","6","b68de581894bb73ac79811033110804dc5c441f690b243feaceabd60d9460e06","256017.6000000015","566.6000000014901","77","1","swim","","","","",""
"dual-task","null","null","null","","arctic","arctic","742.3000000007451","","a","null","88","88","1","swim-dual-task","","a","lowercase","262000","0","6","b68de581894bb73ac79811033110804dc5c441f690b243feaceabd60d9460e06","262017.5","742.3000000007451","88","1","swim","","","","",""
"dual-task","null","null","null","","arctic","arctic","694.8999999985099","","F","null","77","77","1","swim-dual-task","","F","uppercase","272000","0","6","b68de581894bb73ac79811033110804dc5c441f690b243feaceabd60d9460e06","272017.3999999985","694.8999999985099","77","1","swim","","","","",""
"dual-task","null","null","null","","arctic","arctic","654.5","","E","null","77","77","1","swim-dual-task","","E","uppercase","280000","0","6","b68de581894bb73ac79811033110804dc5c441f690b243feaceabd60d9460e06","280017.3999999985","654.5","77","1","swim","","","","",""
"dual-task","null","null","null","","arctic","arctic","551.1000000014901","","A","null","77","77","1","swim-dual-task","","A","uppercase","288000","0","6","b68de581894bb73ac79811033110804dc5c441f690b243feaceabd60d9460e06","288001","551.1000000014901","77","1","swim","","","","",""
"dual-task","null","null","null","","arctic","arctic","736.5","","f","null","88","88","1","swim-dual-task","","f","lowercase","300000","0","6","b68de581894bb73ac79811033110804dc5c441f690b243feaceabd60d9460e06","300007.5","736.5","88","1","swim","","","","",""
"dual-task","null","null","null","","arctic","arctic","598.3000000007451","","T","null","77","77","1","swim-dual-task","","T","uppercase","308000","0","6","b68de581894bb73ac79811033110804dc5c441f690b243feaceabd60d9460e06","308017.19999999925","598.3000000007451","77","1","swim","","","","",""
"dual-task","null","null","null","","arctic","arctic","694.6999999992549","","a","null","88","88","1","swim-dual-task","","a","lowercase","314000","0","6","b68de581894bb73ac79811033110804dc5c441f690b243feaceabd60d9460e06","314017.1000000015","694.6999999992549","88","1","swim","","","","",""
"dual-task","null","null","null","","arctic","arctic","742.6999999992549","","q","null","88","88","1","swim-dual-task","","q","lowercase","324000","0","6","b68de581894bb73ac79811033110804dc5c441f690b243feaceabd60d9460e06","324017","742.6999999992549","88","1","swim","","","","",""
"dual-task","null","null","null","","arctic","arctic","608.6000000014901","","b","null","88","88","1","swim-dual-task","","b","lowercase","334000","0","6","b68de581894bb73ac79811033110804dc5c441f690b243feaceabd60d9460e06","334006.8999999985","608.6000000014901","88","1","swim","","","","",""
"dual-task","null","null","null","","arctic","arctic","650.0999999977648","","a","null","88","88","1","swim-dual-task","","a","lowercase","342000","0","6","b68de581894bb73ac79811033110804dc5c441f690b243feaceabd60d9460e06","342005.5","650.0999999977648","88","1","swim","","","","",""
"dual-task","null","null","null","","arctic","arctic","582.1999999992549","","B","null","77","77","1","swim-dual-task","","B","uppercase","350000","0","6","b68de581894bb73ac79811033110804dc5c441f690b243feaceabd60d9460e06","350017.1000000015","582.1999999992549","77","1","swim","","","","",""
"dual-task","null","null","null","","arctic","arctic","527","","G","null","77","77","1","swim-dual-task","","G","uppercase","358000","0","6","b68de581894bb73ac79811033110804dc5c441f690b243feaceabd60d9460e06","358008.5","527","77","1","swim","","","","",""
"dual-task","null","null","null","","arctic","arctic","616.1999999992549","","e","null","88","88","1","swim-dual-task","","e","lowercase","368000","0","6","b68de581894bb73ac79811033110804dc5c441f690b243feaceabd60d9460e06","368006.8999999985","616.1999999992549","88","1","swim","","","","",""
"dual-task","null","null","null","","arctic","arctic","608.3000000007451","","D","null","77","77","1","swim-dual-task","","D","uppercase","376000","0","6","b68de581894bb73ac79811033110804dc5c441f690b243feaceabd60d9460e06","376006.6000000015","608.3000000007451","77","1","swim","","","","",""
"dual-task","null","null","null","","arctic","arctic","622.3000000007451","","E","null","77","77","1","swim-dual-task","","E","uppercase","386000","0","6","b68de581894bb73ac79811033110804dc5c441f690b243feaceabd60d9460e06","386016.80000000075","622.3000000007451","77","1","swim","","","","",""
"dual-task","null","null","null","","arctic","arctic","534.5","","B","null","77","77","1","swim-dual-task","","B","uppercase","396000","0","6","b68de581894bb73ac79811033110804dc5c441f690b243feaceabd60d9460e06","396016.30000000075","534.5","77","1","swim","","","","",""
"dual-task","null","null","null","","arctic","arctic","664.5","","H","null","77","77","1","swim-dual-task","","H","uppercase","402000","0","6","b68de581894bb73ac79811033110804dc5c441f690b243feaceabd60d9460e06","402006.69999999925","664.5","77","1","swim","","","","",""
"dual-task","null","null","null","","arctic","arctic","712.3000000007451","","N","null","77","77","1","swim-dual-task","","N","uppercase","414000","0","6","b68de581894bb73ac79811033110804dc5c441f690b243feaceabd60d9460e06","414006.6000000015","712.3000000007451","77","1","swim","","","","",""
"dual-task","null","null","null","","arctic","arctic","594","","D","null","77","77","1","swim-dual-task","","D","uppercase","426000","0","6","b68de581894bb73ac79811033110804dc5c441f690b243feaceabd60d9460e06","426013","594","77","1","swim","","","","",""
"dual-task","null","null","null","","arctic","arctic","678.6000000014901","","h","null","88","88","1","swim-dual-task","","h","lowercase","434000","0","6","b68de581894bb73ac79811033110804dc5c441f690b243feaceabd60d9460e06","434016.19999999925","678.6000000014901","88","1","swim","","","","",""
"dual-task","null","null","null","","arctic","arctic","654.3000000007451","","Q","null","77","77","1","swim-dual-task","","Q","uppercase","446000","0","6","b68de581894bb73ac79811033110804dc5c441f690b243feaceabd60d9460e06","446016.30000000075","654.3000000007451","77","1","swim","","","","",""
"dual-task","null","null","null","","arctic","arctic","1216.699999999255","","b","null","88","88","1","swim-dual-task","","b","lowercase","452000","0","6","b68de581894bb73ac79811033110804dc5c441f690b243feaceabd60d9460e06","452006","1216.699999999255","88","1","swim","","","","",""
"dual-task","null","null","null","","arctic","arctic","644.6000000014901","","F","null","77","77","1","swim-dual-task","","F","uppercase","462000","0","6","b68de581894bb73ac79811033110804dc5c441f690b243feaceabd60d9460e06","462001.8999999985","644.6000000014901","77","1","swim","","","","",""
"dual-task","null","null","null","","arctic","arctic","720.1999999992549","","d","null","88","88","1","swim-dual-task","","d","lowercase","468000","0","6","b68de581894bb73ac79811033110804dc5c441f690b243feaceabd60d9460e06","468006.1000000015","720.1999999992549","88","1","swim","","","","",""
"dual-task","null","null","null","","arctic","arctic","624.6000000014901","","B","null","77","77","1","swim-dual-task","","B","uppercase","480000","0","6","b68de581894bb73ac79811033110804dc5c441f690b243feaceabd60d9460e06","480005.69999999925","624.6000000014901","77","1","swim","","","","",""
"dual-task","null","null","null","","arctic","arctic","712.5","","N","null","77","77","1","swim-dual-task","","N","uppercase","488000","0","6","b68de581894bb73ac79811033110804dc5c441f690b243feaceabd60d9460e06","488005.69999999925","712.5","77","1","swim","","","","",""
"dual-task","null","null","null","","arctic","arctic","641.1000000014901","","T","null","77","77","1","swim-dual-task","","T","uppercase","496000","0","6","b68de581894bb73ac79811033110804dc5c441f690b243feaceabd60d9460e06","496005.30000000075","641.1000000014901","77","1","swim","","","","",""
"dual-task","null","null","null","","arctic","arctic","600.1999999992549","","D","null","77","77","1","swim-dual-task","","D","uppercase","504000","0","6","b68de581894bb73ac79811033110804dc5c441f690b243feaceabd60d9460e06","504005.69999999925","600.1999999992549","77","1","swim","","","","",""
"dual-task","null","null","null","","arctic","arctic","544.5999999977648","","G","null","77","77","1","swim-dual-task","","G","uppercase","514000","0","6","b68de581894bb73ac79811033110804dc5c441f690b243feaceabd60d9460e06","514005.5","544.5999999977648","77","1","swim","","","","",""
"dual-task","null","null","null","","arctic","arctic","760.4000000022352","","h","null","88","88","1","swim-dual-task","","h","lowercase","526000","0","6","b68de581894bb73ac79811033110804dc5c441f690b243feaceabd60d9460e06","526005.5","760.4000000022352","88","1","swim","","","","",""
"dual-task","null","null","null","","arctic","arctic","983.2999999970198","","g","null","88","88","1","swim-dual-task","","g","lowercase","534000","0","6","b68de581894bb73ac79811033110804dc5c441f690b243feaceabd60d9460e06","534005.6000000015","983.2999999970198","88","1","swim","","","","",""
"dual-task","null","null","null","","arctic","arctic","584.5","","f","null","88","88","1","swim-dual-task","","f","lowercase","546000","0","6","b68de581894bb73ac79811033110804dc5c441f690b243feaceabd60d9460e06","546005.3999999985","584.5","88","1","swim","","","","",""
"dual-task","null","null","null","","arctic","arctic","528.5","","R","null","77","77","1","swim-dual-task","","R","uppercase","558000","0","6","b68de581894bb73ac79811033110804dc5c441f690b243feaceabd60d9460e06","558005.3999999985","528.5","77","1","swim","","","","",""
"dual-task","null","null","null","","arctic","arctic","768.5","","d","null","88","88","1","swim-dual-task","","d","lowercase","570000","0","6","b68de581894bb73ac79811033110804dc5c441f690b243feaceabd60d9460e06","570005.3000000007","768.5","88","1","swim","","","","",""
"dual-task","null","null","null","","arctic","arctic","626.9000000022352","","d","null","88","88","1","swim-dual-task","","d","lowercase","582000","0","6","b68de581894bb73ac79811033110804dc5c441f690b243feaceabd60d9460e06","582002.8000000007","626.9000000022352","88","1","swim","","","","",""
"dual-task","null","null","null","","arctic","arctic","630.8000000007451","","e","null","88","88","1","swim-dual-task","","e","lowercase","594000","0","6","b68de581894bb73ac79811033110804dc5c441f690b243feaceabd60d9460e06","594015.1000000015","630.8000000007451","88","1","swim","","","","",""
"dual-task","null","null","null","","arctic","arctic","622.6999999992549","","T","null","77","77","1","swim-dual-task","","T","uppercase","602000","0","6","b68de581894bb73ac79811033110804dc5c441f690b243feaceabd60d9460e06","602006.3999999985","622.6999999992549","77","1","swim","","","","",""
"dual-task","null","null","null","","arctic","arctic","568.6999999992549","","D","null","77","77","1","swim-dual-task","","D","uppercase","616000","0","6","b68de581894bb73ac79811033110804dc5c441f690b243feaceabd60d9460e06","616004.6999999993","568.6999999992549","77","1","swim","","","","",""
"dual-task","null","null","null","","arctic","arctic","624.6000000014901","","Q","null","77","77","1","swim-dual-task","","Q","uppercase","622000","0","6","b68de581894bb73ac79811033110804dc5c441f690b243feaceabd60d9460e06","622004.6000000015","624.6000000014901","77","1","swim","","","","",""
"dual-task","null","null","null","","arctic","arctic","585.6000000014901","","A","null","77","77","1","swim-dual-task","","A","uppercase","636000","0","6","b68de581894bb73ac79811033110804dc5c441f690b243feaceabd60d9460e06","636019.6999999993","585.6000000014901","77","1","swim","","","","",""
"dual-task","null","null","null","","arctic","arctic","584.3000000007451","","h","null","88","88","1","swim-dual-task","","h","lowercase","644000","0","6","b68de581894bb73ac79811033110804dc5c441f690b243feaceabd60d9460e06","644004.6000000015","584.3000000007451","88","1","swim","","","","",""
"dual-task","null","null","null","","arctic","arctic","654.6000000014901","","r","null","88","88","1","swim-dual-task","","r","lowercase","654000","0","6","b68de581894bb73ac79811033110804dc5c441f690b243feaceabd60d9460e06","654014.3000000007","654.6000000014901","88","1","swim","","","","",""
"dual-task","null","null","null","","arctic","arctic","600.5","","a","null","88","88","1","swim-dual-task","","a","lowercase","668000","0","6","b68de581894bb73ac79811033110804dc5c441f690b243feaceabd60d9460e06","668004.3000000007","600.5","88","1","swim","","","","",""
"dual-task","null","null","null","","arctic","arctic","734.1999999992549","","n","null","88","88","1","swim-dual-task","","n","lowercase","676000","0","6","b68de581894bb73ac79811033110804dc5c441f690b243feaceabd60d9460e06","676014.1999999993","734.1999999992549","88","1","swim","","","","",""
"dual-task","null","null","null","","arctic","arctic","622.6999999992549","","n","null","88","88","1","swim-dual-task","","n","lowercase","686000","0","6","b68de581894bb73ac79811033110804dc5c441f690b243feaceabd60d9460e06","686014","622.6999999992549","88","1","swim","","","","",""
"dual-task","null","null","null","","arctic","arctic","568.6999999992549","","e","null","88","88","1","swim-dual-task","","e","lowercase","698000","0","6","b68de581894bb73ac79811033110804dc5c441f690b243feaceabd60d9460e06","698004","568.6999999992549","88","1","swim","","","","",""
"dual-task","null","null","null","","arctic","arctic","670.7000000029802","","G","null","77","77","1","swim-dual-task","","G","uppercase","708000","0","6","b68de581894bb73ac79811033110804dc5c441f690b243feaceabd60d9460e06","708013.8999999985","670.7000000029802","77","1","swim","","","","",""
"dual-task","null","null","null","","arctic","arctic","758.6999999992549","","d","null","88","88","1","swim-dual-task","","d","lowercase","720000","0","6","b68de581894bb73ac79811033110804dc5c441f690b243feaceabd60d9460e06","720013.8000000007","758.6999999992549","88","1","swim","","","","",""
"dual-task","null","null","null","","arctic","arctic","662.1999999992549","","H","null","77","77","1","swim-dual-task","","H","uppercase","728000","0","6","b68de581894bb73ac79811033110804dc5c441f690b243feaceabd60d9460e06","728014","662.1999999992549","77","1","swim","","","","",""
"dual-task","null","null","null","","arctic","arctic","599.0999999977648","","r","null","88","88","1","swim-dual-task","","r","lowercase","740000","0","6","b68de581894bb73ac79811033110804dc5c441f690b243feaceabd60d9460e06","740013.6999999993","599.0999999977648","88","1","swim","","","","",""
"dual-task","null","null","null","","arctic","arctic","664.6000000014901","","B","null","77","77","1","swim-dual-task","","B","uppercase","754000","0","6","b68de581894bb73ac79811033110804dc5c441f690b243feaceabd60d9460e06","754003.8000000007","664.6000000014901","77","1","swim","","","","",""
"dual-task","null","null","null","","arctic","arctic","577.8999999985099","","E","null","77","77","1","swim-dual-task","","E","uppercase","762000","0","6","b68de581894bb73ac79811033110804dc5c441f690b243feaceabd60d9460e06","762002","577.8999999985099","77","1","swim","","","","",""
"dual-task","null","null","null","","arctic","arctic","702.3000000007451","","t","null","88","88","1","swim-dual-task","","t","lowercase","770000","0","6","b68de581894bb73ac79811033110804dc5c441f690b243feaceabd60d9460e06","770013.6000000015","702.3000000007451","88","1","swim","","","","",""
"dual-task","null","null","null","","arctic","arctic","766.8000000007451","","f","null","88","88","1","swim-dual-task","","f","lowercase","778000","0","6","b68de581894bb73ac79811033110804dc5c441f690b243feaceabd60d9460e06","778013.3999999985","766.8000000007451","88","1","swim","","","","",""
"dual-task","null","null","null","","arctic","arctic","608.5","","R","null","77","77","1","swim-dual-task","","R","uppercase","786000","0","6","b68de581894bb73ac79811033110804dc5c441f690b243feaceabd60d9460e06","786003.1999999993","608.5","77","1","swim","","","","",""
"dual-task","null","null","null","","arctic","arctic","614.8000000007451","","G","null","77","77","1","swim-dual-task","","G","uppercase","800000","0","6","b68de581894bb73ac79811033110804dc5c441f690b243feaceabd60d9460e06","800013.1000000015","614.8000000007451","77","1","swim","","","","",""
"audio-keyboard-response","62","1959380","0.0-6.0-2.0-1.0","b68de581894bb73ac79811033110804dc5c441f690b243feaceabd60d9460e06","arctic","arctic","null","","audio/story_swim.mp3","","null","","","","","","","","","","","","","","","","","","","",""
"html-button-response","63","1963718","0.0-6.0-2.0-2.0","b68de581894bb73ac79811033110804dc5c441f690b243feaceabd60d9460e06","arctic","arctic","4337","","<p>This concludes the story. Thank you for listening.</p><p>You will now answer some questions about the content of the story.</p>","0","","","","","","","","","","","","","","","","","","","","",""
"survey-multi-choice","64","1975153","0.0-6.0-2.0-3.0-0.0","b68de581894bb73ac79811033110804dc5c441f690b243feaceabd60d9460e06","arctic","arctic","11434","","<b>What were the astronaut candidates trained to do at the naval air station?</b>","","","","1","swim-comprehension","","","","","","","","","","","","","{""Q0"":""Eject out of aircraft and survive in water long enough to be rescued""}","","","",""
"survey-multi-choice","65","1981526","0.0-6.0-2.0-3.0-0.1","b68de581894bb73ac79811033110804dc5c441f690b243feaceabd60d9460e06","arctic","arctic","6121","","<b>What was the final step of the first swim test in the pool?</b>","","","","1","swim-comprehension","","","","","","","","","","","","","{""Q0"":""Tread water with hands above the water""}","","","",""
"survey-multi-choice","66","1984843","0.0-6.0-2.0-3.0-0.2","b68de581894bb73ac79811033110804dc5c441f690b243feaceabd60d9460e06","arctic","arctic","3064","","<b>Where is the home of naval aviation?</b>","","","","1","swim-comprehension","","","","","","","","","","","","","{""Q0"":""Pensacola""}","","","",""
"survey-multi-choice","67","1993299","0.0-6.0-2.0-3.0-0.3","b68de581894bb73ac79811033110804dc5c441f690b243feaceabd60d9460e06","arctic","arctic","8199","","<b>How often does the narrator swim, now that he is a good swimmer?</b>","","","","1","swim-comprehension","","","","","","","","","","","","","{""Q0"":""Never swam again in his life""}","","","",""
"survey-multi-choice","68","2011140","0.0-6.0-2.0-3.0-0.4","b68de581894bb73ac79811033110804dc5c441f690b243feaceabd60d9460e06","arctic","arctic","17590","","<b>How many astronaut candidates reported for duty at the Johnson Space Center?</b>","","","","1","swim-comprehension","","","","","","","","","","","","","{""Q0"":""Forty-four""}","","","",""
"survey-multi-choice","69","2015819","0.0-6.0-2.0-3.0-0.5","b68de581894bb73ac79811033110804dc5c441f690b243feaceabd60d9460e06","arctic","arctic","4426","","<b>How many astronaut candidates passed the first swim test?</b>","","","","1","swim-comprehension","","","","","","","","","","","","","{""Q0"":""All of them""}","","","",""
"survey-multi-choice","70","2021242","0.0-6.0-2.0-3.0-0.6","b68de581894bb73ac79811033110804dc5c441f690b243feaceabd60d9460e06","arctic","arctic","5171","","<b>How many times did the astronaut candidates have to complete the final exercise to pass?</b>","","","","1","swim-comprehension","","","","","","","","","","","","","{""Q0"":""Two""}","","","",""
"survey-multi-choice","71","2024523","0.0-6.0-2.0-3.0-0.7","b68de581894bb73ac79811033110804dc5c441f690b243feaceabd60d9460e06","arctic","arctic","3029","","<b>What is the narrator afraid of, aside from the water?</b>","","","","1","swim-comprehension","","","","","","","","","","","","","{""Q0"":""Heights""}","","","",""
"survey-multi-choice","72","2029616","0.0-6.0-2.0-3.0-0.8","b68de581894bb73ac79811033110804dc5c441f690b243feaceabd60d9460e06","arctic","arctic","4841","","<b>How did the narrator train for his swim test?</b>","","","","1","swim-comprehension","","","","","","","","","","","","","{""Q0"":""Took his kids to the pool every day""}","","","",""
"survey-multi-choice","73","2037558","0.0-6.0-2.0-3.0-0.9","b68de581894bb73ac79811033110804dc5c441f690b243feaceabd60d9460e06","arctic","arctic","7688","","<b>What gave the narrator his greatest feeling of accomplishment?</b>","","","","1","swim-comprehension","","","","","","","","","","","","","{""Q0"":""Passing the water survival course""}","","","",""
"html-button-response","74","2039483","0.0-6.0-2.0-4.0","b68de581894bb73ac79811033110804dc5c441f690b243feaceabd60d9460e06","arctic","arctic","1675","","<p>Thank you for your responses.</p><p>You will now answer some questions about your impressions of the story.</p>","0","","","","","","","","","","","","","","","","","","","","",""
"html-button-response","75","2040778","0.0-6.0-2.0-5.0-0.0","b68de581894bb73ac79811033110804dc5c441f690b243feaceabd60d9460e06","arctic","arctic","1294","","A3","5","","","","swim-engagement","","","","","","","","","","","","","","6","absorption","",""
"html-button-response","76","2044179","0.0-6.0-2.0-5.0-0.1","b68de581894bb73ac79811033110804dc5c441f690b243feaceabd60d9460e06","arctic","arctic","3149","","MS1","4","","","","swim-engagement","","","","","","","","","","","","","","5","mental-sim","",""
"html-button-response","77","2046318","0.0-6.0-2.0-5.0-0.2","b68de581894bb73ac79811033110804dc5c441f690b243feaceabd60d9460e06","arctic","arctic","1888","","E7","5","","","","swim-engagement","","","","","","","","","","","","","","6","enjoyment","",""
"html-button-response","78","2050246","0.0-6.0-2.0-5.0-0.3","b68de581894bb73ac79811033110804dc5c441f690b243feaceabd60d9460e06","arctic","arctic","3675","","MS2","5","","","","swim-engagement","","","","","","","","","","","","","","6","mental-sim","",""
"html-button-response","79","2052426","0.0-6.0-2.0-5.0-0.4","b68de581894bb73ac79811033110804dc5c441f690b243feaceabd60d9460e06","arctic","arctic","1930","","EE3","5","","","","swim-engagement","","","","","","","","","","","","","","6","emo-engage","",""
"html-button-response","80","2054599","0.0-6.0-2.0-5.0-0.5","b68de581894bb73ac79811033110804dc5c441f690b243feaceabd60d9460e06","arctic","arctic","1921","","E6","4","","","","swim-engagement","","","","","","","","","","","","","","5","enjoyment","",""
"html-button-response","81","2057633","0.0-6.0-2.0-5.0-0.6","b68de581894bb73ac79811033110804dc5c441f690b243feaceabd60d9460e06","arctic","arctic","2783","","A1","4","","","","swim-engagement","","","","","","","","","","","","","","5","absorption","",""
"html-button-response","82","2059961","0.0-6.0-2.0-5.0-0.7","b68de581894bb73ac79811033110804dc5c441f690b243feaceabd60d9460e06","arctic","arctic","2077","","E10","5","","","","swim-engagement","","","","","","","","","","","","","","6","enjoyment","",""
"html-button-response","83","2061593","0.0-6.0-2.0-5.0-0.8","b68de581894bb73ac79811033110804dc5c441f690b243feaceabd60d9460e06","arctic","arctic","1381","","E1","4","","","","swim-engagement","","","","","","","","","","","","","","5","enjoyment","",""
"html-button-response","84","2064178","0.0-6.0-2.0-5.0-0.9","b68de581894bb73ac79811033110804dc5c441f690b243feaceabd60d9460e06","arctic","arctic","2335","","MS3","5","","","","swim-engagement","","","","","","","","","","","","","","6","mental-sim","",""
"html-button-response","85","2067849","0.0-6.0-2.0-5.0-0.10","b68de581894bb73ac79811033110804dc5c441f690b243feaceabd60d9460e06","arctic","arctic","3420","","A4","5","","","","swim-engagement","","","","","","","","","","","","","","6","absorption","",""
"html-button-response","86","2069421","0.0-6.0-2.0-5.0-0.11","b68de581894bb73ac79811033110804dc5c441f690b243feaceabd60d9460e06","arctic","arctic","1321","","E8","4","","","","swim-engagement","","","","","","","","","","","","","","5","enjoyment","",""
"html-button-response","87","2074463","0.0-6.0-2.0-5.0-0.12","b68de581894bb73ac79811033110804dc5c441f690b243feaceabd60d9460e06","arctic","arctic","4790","","A5","5","","","","swim-engagement","","","","","","","","","","","","","","6","absorption","",""
"html-button-response","88","2077604","0.0-6.0-2.0-5.0-0.13","b68de581894bb73ac79811033110804dc5c441f690b243feaceabd60d9460e06","arctic","arctic","2890","","EE5","4","","","","swim-engagement","","","","","","","","","","","","","","5","emo-engage","",""
"html-button-response","89","2080956","0.0-6.0-2.0-5.0-0.14","b68de581894bb73ac79811033110804dc5c441f690b243feaceabd60d9460e06","arctic","arctic","3101","","EE1","5","","","","swim-engagement","","","","","","","","","","","","","","6","emo-engage","",""
"html-button-response","90","2083816","0.0-6.0-2.0-5.0-0.15","b68de581894bb73ac79811033110804dc5c441f690b243feaceabd60d9460e06","arctic","arctic","2608","","EE2","4","","","","swim-engagement","","","","","","","","","","","","","","5","emo-engage","",""
"html-button-response","91","2086478","0.0-6.0-2.0-5.0-0.16","b68de581894bb73ac79811033110804dc5c441f690b243feaceabd60d9460e06","arctic","arctic","2411","","EE4","4","","","","swim-engagement","","","","","","","","","","","","","","5","emo-engage","",""
"html-button-response","92","2089586","0.0-6.0-2.0-5.0-0.17","b68de581894bb73ac79811033110804dc5c441f690b243feaceabd60d9460e06","arctic","arctic","2856","","A2","6","","","","swim-engagement","","","","","","","","","","","","","","7","absorption","",""
"html-button-response","93","2091581","0.0-8.0","b68de581894bb73ac79811033110804dc5c441f690b243feaceabd60d9460e06","arctic","arctic","1745","","<p>Thank you for your responses.</p><p>You will now answer some demographic, hearing, and general health questions.</p>","0","","","","","","","","","","","","","","","","","","","","",""
"survey-multi-choice","94","2094411","0.0-9.0-0.0","b68de581894bb73ac79811033110804dc5c441f690b243feaceabd60d9460e06","arctic","arctic","2829","","","","","","","survey","","","","","","","","","","","","","{""Q0"":""Chrome""}","","","browser",""
"survey-text","95","2098938","0.0-9.0-1.0","b68de581894bb73ac79811033110804dc5c441f690b243feaceabd60d9460e06","arctic","arctic","4275.10000000149","","","","","","","survey","","","","","","","","","","","","","{""AGE"":""23""}","","","age","23"
"survey-multi-choice","96","2100909","0.0-9.0-2.0","b68de581894bb73ac79811033110804dc5c441f690b243feaceabd60d9460e06","arctic","arctic","1719","","","","","","","survey","","","","","","","","","","","","","{""Q0"":""Male""}","","","gender","Male"
"survey-multi-choice","97","2102984","0.0-9.0-4.0","b68de581894bb73ac79811033110804dc5c441f690b243feaceabd60d9460e06","arctic","arctic","1822","","","","","","","survey","","","","","","","","","","","","","{""Q0"":""Right""}","","","handedness","Right"
"survey-multi-choice","98","2107473","0.0-9.0-5.0","b68de581894bb73ac79811033110804dc5c441f690b243feaceabd60d9460e06","arctic","arctic","4238","","","","","","","survey","","","","","","","","","","","","","{""Q0"":""Some university undergraduate schooling""}","","","education","Some university undergraduate schooling"
"survey-text","99","2113823","0.0-10.0-0.0","b68de581894bb73ac79811033110804dc5c441f690b243feaceabd60d9460e06","arctic","arctic","6098.70000000298","","","","","","","survey","","","","","","","","","","","","","{""L1"":""English""}","","","first-language","English"
"survey-text","100","2119202","0.0-10.0-1.0","b68de581894bb73ac79811033110804dc5c441f690b243feaceabd60d9460e06","arctic","arctic","5125.5","","","","","","","survey","","","","","","","","","","","","","{""L2name"":"""",""L2fluency"":"""",""L3name"":"""",""L3fluency"":"""",""L4name"":"""",""L4fluency"":""""}","","","additional-languages","{""L2name"":"""",""L2fluency"":"""",""L3name"":"""",""L3fluency"":"""",""L4name"":"""",""L4fluency"":""""}"
"survey-multi-choice","101","2124002","0.0-10.0-2.0","b68de581894bb73ac79811033110804dc5c441f690b243feaceabd60d9460e06","arctic","arctic","4548","","","","","","","survey","","","","","","","","","","","","","{""Q0"":""No""}","","","hearing-aid","No"
"survey-multi-choice","102","2127715","0.0-10.0-3.0","b68de581894bb73ac79811033110804dc5c441f690b243feaceabd60d9460e06","arctic","arctic","3461","","","","","","","survey","","","","","","","","","","","","","{""Q0"":""Always""}","","","ringing-ears","Always"
"survey-multi-choice","103","2130325","0.0-10.0-4.0-0.0","b68de581894bb73ac79811033110804dc5c441f690b243feaceabd60d9460e06","arctic","arctic","2359","","","","","","","survey","","","","","","","","","","","","","{""Q0"":""Both Ears""}","","","ringing-ear-loc","Both Ears"
"survey-multi-choice","104","2133509","0.0-10.0-5.0","b68de581894bb73ac79811033110804dc5c441f690b243feaceabd60d9460e06","arctic","arctic","2933","","","","","","","survey","","","","","","","","","","","","","{""Q0"":""No""}","","","neuro-disease","No"
"survey-multi-choice","105","2136862","0.0-10.0-7.0","b68de581894bb73ac79811033110804dc5c441f690b243feaceabd60d9460e06","arctic","arctic","3102","","","","","","","survey","","","","","","","","","","","","","{""Q0"":""No""}","","","take-meds","No"
"survey-text","106","2140444","0.0-10.0-9.0","b68de581894bb73ac79811033110804dc5c441f690b243feaceabd60d9460e06","arctic","arctic","3327.60000000149","","","","","","","survey","","","","","","","","","","","","","{""HC"":""""}","","","health-concerns",""
"html-button-response","107","2146332","0.0-11.0-0.0","b68de581894bb73ac79811033110804dc5c441f690b243feaceabd60d9460e06","arctic","arctic","5635","","<p>How would you describe your musical skills/experiences?</p>","2","","","","survey","","","","","","","","","","","","","","","","music-skill","3"
"survey-multi-choice","108","2148559","0.0-11.0-1.0","b68de581894bb73ac79811033110804dc5c441f690b243feaceabd60d9460e06","arctic","arctic","1975","","","","","","","survey","","","","","","","","","","","","","{""Q0"":""Yes""}","","","music-instrument","Yes"
"survey-text","109","2158375","0.0-11.0-2.0-0.0","b68de581894bb73ac79811033110804dc5c441f690b243feaceabd60d9460e06","arctic","arctic","9564.599999997765","","","","","","","survey","","","","","","","","","","","","","{""MEXP"":""5""}","","","music-training-yrs","5"
"html-button-response","110","2161699","0.0-12.0-0.0","b68de581894bb73ac79811033110804dc5c441f690b243feaceabd60d9460e06","arctic","arctic","3073","","<p>How would you describe your general hearing abilities?</p>","4","","","","survey","","","","","","","","","","","","","","","","ssq-01","5"
"html-button-response","111","2167124","0.0-12.0-1.0","b68de581894bb73ac79811033110804dc5c441f690b243feaceabd60d9460e06","arctic","arctic","5173","","<p>When you talk with someone at a place that strongly reverberates/echoes (e.g., in a church or train station),</br>can you understand what the person says?</p>","5","","","","survey","","","","","","","","","","","","","","","","ssq-02","5"
"html-button-response","112","2171899","0.0-12.0-2.0","b68de581894bb73ac79811033110804dc5c441f690b243feaceabd60d9460e06","arctic","arctic","4523","","<p>When you are with a group (~5 people) in a lively restaurant, can you follow the group's conversation?</p>","7","","","","survey","","","","","","","","","","","","","","","","ssq-03","7"
"html-button-response","113","2177881","0.0-12.0-3.0","b68de581894bb73ac79811033110804dc5c441f690b243feaceabd60d9460e06","arctic","arctic","5732","","<p>Based on the sound of a bus or truck, can you tell whether it is moving towards or away from you?</p>","9","","","","survey","","","","","","","","","","","","","","","","ssq-04","9"
"html-button-response","114","2183168","0.0-12.0-4.0","b68de581894bb73ac79811033110804dc5c441f690b243feaceabd60d9460e06","arctic","arctic","5036","","<p>When you are in an unknown environment, can you tell from which direction a brief sound originates?</p>","9","","","","survey","","","","","","","","","","","","","","","","ssq-05","9"
"html-button-response","115","2188481","0.0-12.0-5.0","b68de581894bb73ac79811033110804dc5c441f690b243feaceabd60d9460e06","arctic","arctic","5061","","<p>Are you able to ignore distracting sounds when you concentrate on a specific aspect of your acoustic surrounding?</p>","7","","","","survey","","","","","","","","","","","","","","","","ssq-06","7"
"fullscreen","116","2189733","0.0-13.0","b68de581894bb73ac79811033110804dc5c441f690b243feaceabd60d9460e06","arctic","arctic","","","","","","","","","true","","","","","","","","","","","","","","","",""
