"trial_type","trial_index","time_elapsed","internal_node_id","ParticipantID","firstStory","scramStory","rt","url","stimulus","button_pressed","key_press","correctRESP","correct","designation","success","letterStim","letterType","ONSET","TIMEOUT","CONDITION","Participant","ONSET_ACTUAL","RT","RESP","ACC","STORY","responses","response","type","surveyQuestion","QRESP"
"pavlovia","0","5","0.0-0.0","43e50e9a3e3c28344370af941468251d2b671d4e81b50ecdfca45aeaa8ba8a1c","swim","swim","","","","","","","","","","","","","","","","","","","","","","","","",""
"external-html","1","5152","0.0-1.0","43e50e9a3e3c28344370af941468251d2b671d4e81b50ecdfca45aeaa8ba8a1c","swim","swim","4993","consent/consent_updated.html","","","","","","","","","","","","","","","","","","","","","","",""
"html-button-response","2","9071","0.0-2.0-0.0","43e50e9a3e3c28344370af941468251d2b671d4e81b50ecdfca45aeaa8ba8a1c","swim","swim","3918","","<p>Before we begin the main task, you will complete a short volume calibration and headphone check.</p><p>Please make sure you are in a quiet listening environment, that you are wearing headphones, and that your computer's volume is turned on.<p></p>","0","","","","","","","","","","","","","","","","","","","","",""
"html-button-response","3","11742","0.0-2.0-1.0","43e50e9a3e3c28344370af941468251d2b671d4e81b50ecdfca45aeaa8ba8a1c","swim","swim","2419","","<p>The volume calibration will be first.</p><p>You will hear a thirty-second noise. Please adjust your computer's volume so that this noise is being presented at a comfortable level.<p></p>","0","","","","","","","","","","","","","","","","","","","","",""
"audio-button-response","4","15310","0.0-2.0-2.0","43e50e9a3e3c28344370af941468251d2b671d4e81b50ecdfca45aeaa8ba8a1c","swim","swim","3315","","audio/volumetest.mp3","0","","","","","","","","","","","","","","","","","","","","",""
"html-keyboard-response","5","20593","0.0-3.0-0.0","43e50e9a3e3c28344370af941468251d2b671d4e81b50ecdfca45aeaa8ba8a1c","swim","swim","5281","","<p>You will now complete a short headphone check.</p><p>On each trial, you will hear three tones. One of these tones will be quieter than the others. Your task is to identify whether the quiet tone occurred first, second, or third.</p><p>There are six trials in total.<p></p><p></p>(Press SPACEBAR to begin)","","32","","","","","","","","","","","","","","","","","","","",""
"html-keyboard-response","6","21373","0.0-3.0-1.0-0.0","43e50e9a3e3c28344370af941468251d2b671d4e81b50ecdfca45aeaa8ba8a1c","swim","swim","null","","<div style=""font-size:60px;"">+</div>","","null","","","","","","","","","","","","","","","","","","","",""
"audio-button-response","7","26526","0.0-3.0-1.0-1.0","43e50e9a3e3c28344370af941468251d2b671d4e81b50ecdfca45aeaa8ba8a1c","swim","swim","5151","","audio/t2_1.mp3","0","","1","0","headphone-test","","","","","","","","","","","","","","","","",""
"html-keyboard-response","8","27033","0.0-3.0-1.0-2.0","43e50e9a3e3c28344370af941468251d2b671d4e81b50ecdfca45aeaa8ba8a1c","swim","swim","null","","<p>Incorrect</p>","","null","","","","","","","","","","","","","","","","","","","",""
"html-keyboard-response","9","27543","0.0-3.0-1.0-0.1","43e50e9a3e3c28344370af941468251d2b671d4e81b50ecdfca45aeaa8ba8a1c","swim","swim","null","","<div style=""font-size:60px;"">+</div>","","null","","","","","","","","","","","","","","","","","","","",""
"audio-button-response","10","32142","0.0-3.0-1.0-1.1","43e50e9a3e3c28344370af941468251d2b671d4e81b50ecdfca45aeaa8ba8a1c","swim","swim","4598","","audio/t3_1.mp3","2","","2","1","headphone-test","","","","","","","","","","","","","","","","",""
"html-keyboard-response","11","32644","0.0-3.0-1.0-2.1","43e50e9a3e3c28344370af941468251d2b671d4e81b50ecdfca45aeaa8ba8a1c","swim","swim","null","","<p>Correct</p>","","null","","","","","","","","","","","","","","","","","","","",""
"html-keyboard-response","12","33153","0.0-3.0-1.0-0.2","43e50e9a3e3c28344370af941468251d2b671d4e81b50ecdfca45aeaa8ba8a1c","swim","swim","null","","<div style=""font-size:60px;"">+</div>","","null","","","","","","","","","","","","","","","","","","","",""
"audio-button-response","13","37166","0.0-3.0-1.0-1.2","43e50e9a3e3c28344370af941468251d2b671d4e81b50ecdfca45aeaa8ba8a1c","swim","swim","4012","","audio/t3_2.mp3","1","","2","0","headphone-test","","","","","","","","","","","","","","","","",""
"html-keyboard-response","14","37683","0.0-3.0-1.0-2.2","43e50e9a3e3c28344370af941468251d2b671d4e81b50ecdfca45aeaa8ba8a1c","swim","swim","null","","<p>Incorrect</p>","","null","","","","","","","","","","","","","","","","","","","",""
"html-keyboard-response","15","38197","0.0-3.0-1.0-0.3","43e50e9a3e3c28344370af941468251d2b671d4e81b50ecdfca45aeaa8ba8a1c","swim","swim","null","","<div style=""font-size:60px;"">+</div>","","null","","","","","","","","","","","","","","","","","","","",""
"audio-button-response","16","60959","0.0-3.0-1.0-1.3","43e50e9a3e3c28344370af941468251d2b671d4e81b50ecdfca45aeaa8ba8a1c","swim","swim","22760","","audio/t1_2.mp3","2","","0","0","headphone-test","","","","","","","","","","","","","","","","",""
"html-keyboard-response","17","61465","0.0-3.0-1.0-2.3","43e50e9a3e3c28344370af941468251d2b671d4e81b50ecdfca45aeaa8ba8a1c","swim","swim","null","","<p>Incorrect</p>","","null","","","","","","","","","","","","","","","","","","","",""
"html-keyboard-response","18","61967","0.0-3.0-1.0-0.4","43e50e9a3e3c28344370af941468251d2b671d4e81b50ecdfca45aeaa8ba8a1c","swim","swim","null","","<div style=""font-size:60px;"">+</div>","","null","","","","","","","","","","","","","","","","","","","",""
"audio-button-response","19","66646","0.0-3.0-1.0-1.4","43e50e9a3e3c28344370af941468251d2b671d4e81b50ecdfca45aeaa8ba8a1c","swim","swim","4678","","audio/t2_2.mp3","1","","1","1","headphone-test","","","","","","","","","","","","","","","","",""
"html-keyboard-response","20","67149","0.0-3.0-1.0-2.4","43e50e9a3e3c28344370af941468251d2b671d4e81b50ecdfca45aeaa8ba8a1c","swim","swim","null","","<p>Correct</p>","","null","","","","","","","","","","","","","","","","","","","",""
"html-keyboard-response","21","67652","0.0-3.0-1.0-0.5","43e50e9a3e3c28344370af941468251d2b671d4e81b50ecdfca45aeaa8ba8a1c","swim","swim","null","","<div style=""font-size:60px;"">+</div>","","null","","","","","","","","","","","","","","","","","","","",""
"audio-button-response","22","71894","0.0-3.0-1.0-1.5","43e50e9a3e3c28344370af941468251d2b671d4e81b50ecdfca45aeaa8ba8a1c","swim","swim","4241","","audio/t1_1.mp3","0","","0","1","headphone-test","","","","","","","","","","","","","","","","",""
"html-keyboard-response","23","72395","0.0-3.0-1.0-2.5","43e50e9a3e3c28344370af941468251d2b671d4e81b50ecdfca45aeaa8ba8a1c","swim","swim","null","","<p>Correct</p>","","null","","","","","","","","","","","","","","","","","","","",""
"fullscreen","24","74568","0.0-4.0","43e50e9a3e3c28344370af941468251d2b671d4e81b50ecdfca45aeaa8ba8a1c","swim","swim","","","","","","","","","true","","","","","","","","","","","","","","","",""
"html-button-response","25","76439","0.0-5.0-0.0","43e50e9a3e3c28344370af941468251d2b671d4e81b50ecdfca45aeaa8ba8a1c","swim","swim","1870","","<p>There are two blocks to this experiment.</p><p>In each block, you will hear a ~13.5 minute story. One of the stories will be scrambled. Please listen carefully to both stories and understand them as best you can.</p><p>After each story, you will be asked some questions to assess your comprehension.</p>","0","","","","","","","","","","","","","","","","","","","","",""
"html-button-response","26","91375","0.0-5.0-1.0","43e50e9a3e3c28344370af941468251d2b671d4e81b50ecdfca45aeaa8ba8a1c","swim","swim","14936","","<p>During each story, there will be an additional task.</p><p>A letter will occasionally appear on the screen.</br>Your job is to - as quickly as you can - decide whether the letter is lowercase or uppercase and press one of two keys on the keyboard:</p><p>If the letter is <b>lowercase</b>, press key &lt;<b>x</b>&gt;.</p><p>If the letter is <b>uppercase</b>, press key &lt;<b>m</b>&gt;.</p>","0","","","","","","","","","","","","","","","","","","","","",""
"html-keyboard-response","27","98967","0.0-5.0-2.0","43e50e9a3e3c28344370af941468251d2b671d4e81b50ecdfca45aeaa8ba8a1c","swim","swim","7592","","<p>Because we want your responses to be as quick as possible, please keep your index fingers over the keys while listening.</p><p>Each block lasts about 20 minutes.</p><p><b>Press &lt;x&gt; or &lt;m&gt; to start the first block!</b></p>","","88","","","","","","","","","","","","","","","","","","","",""
"html-keyboard-response","28","99484","0.0-7.0-0.0-0.0","43e50e9a3e3c28344370af941468251d2b671d4e81b50ecdfca45aeaa8ba8a1c","swim","swim","null","","<div style=""font-size:60px;"" tabindex=""0"">+</div>","","null","","","","","","","","","","","","","","","","","","","",""
"dual-task","null","null","null","","swim","swim","905","","T","null","77","77","1","swim-dual-task","","T","uppercase","18000","0","6","43e50e9a3e3c28344370af941468251d2b671d4e81b50ecdfca45aeaa8ba8a1c","18007.799999952316","905","77","1","swim","","","","",""
"dual-task","null","null","null","","swim","swim","465.89999985694885","","n","null","88","88","1","swim-dual-task","","n","lowercase","30000","0","6","43e50e9a3e3c28344370af941468251d2b671d4e81b50ecdfca45aeaa8ba8a1c","30007.299999952316","465.89999985694885","88","1","swim","","","","",""
"dual-task","null","null","null","","swim","swim","992.9000000953674","","f","null","88","88","1","swim-dual-task","","f","lowercase","40000","0","6","43e50e9a3e3c28344370af941468251d2b671d4e81b50ecdfca45aeaa8ba8a1c","40007.799999952316","992.9000000953674","88","1","swim","","","","",""
"dual-task","null","null","null","","swim","swim","471.39999985694885","","D","null","77","77","1","swim-dual-task","","D","uppercase","54000","0","6","43e50e9a3e3c28344370af941468251d2b671d4e81b50ecdfca45aeaa8ba8a1c","54017.799999952316","471.39999985694885","77","1","swim","","","","",""
"dual-task","null","null","null","","swim","swim","416.60000014305115","","E","null","88","77","0","swim-dual-task","","E","uppercase","62000","0","6","43e50e9a3e3c28344370af941468251d2b671d4e81b50ecdfca45aeaa8ba8a1c","62007.5","416.60000014305115","88","0","swim","","","","",""
"dual-task","null","null","null","","swim","swim","509.90000009536743","","G","null","77","77","1","swim-dual-task","","G","uppercase","76000","0","6","43e50e9a3e3c28344370af941468251d2b671d4e81b50ecdfca45aeaa8ba8a1c","76002.59999990463","509.90000009536743","77","1","swim","","","","",""
"dual-task","null","null","null","","swim","swim","585.6000001430511","","f","null","88","88","1","swim-dual-task","","f","lowercase","86000","0","6","43e50e9a3e3c28344370af941468251d2b671d4e81b50ecdfca45aeaa8ba8a1c","86007.20000004768","585.6000001430511","88","1","swim","","","","",""
"dual-task","null","null","null","","swim","swim","527.1000001430511","","Q","null","77","77","1","swim-dual-task","","Q","uppercase","100000","0","6","43e50e9a3e3c28344370af941468251d2b671d4e81b50ecdfca45aeaa8ba8a1c","100017.5","527.1000001430511","77","1","swim","","","","",""
"dual-task","null","null","null","","swim","swim","502.39999985694885","","T","null","77","77","1","swim-dual-task","","T","uppercase","106000","0","6","43e50e9a3e3c28344370af941468251d2b671d4e81b50ecdfca45aeaa8ba8a1c","106017.59999990463","502.39999985694885","77","1","swim","","","","",""
"dual-task","null","null","null","","swim","swim","515.8999998569489","","A","null","77","77","1","swim-dual-task","","A","uppercase","114000","0","6","43e50e9a3e3c28344370af941468251d2b671d4e81b50ecdfca45aeaa8ba8a1c","114004.70000004768","515.8999998569489","77","1","swim","","","","",""
"dual-task","null","null","null","","swim","swim","455.59999990463257","","T","null","77","77","1","swim-dual-task","","T","uppercase","128000","0","6","43e50e9a3e3c28344370af941468251d2b671d4e81b50ecdfca45aeaa8ba8a1c","128017.20000004768","455.59999990463257","77","1","swim","","","","",""
"dual-task","null","null","null","","swim","swim","489.7999999523163","","D","null","77","77","1","swim-dual-task","","D","uppercase","140000","0","6","43e50e9a3e3c28344370af941468251d2b671d4e81b50ecdfca45aeaa8ba8a1c","140007.29999995232","489.7999999523163","77","1","swim","","","","",""
"dual-task","null","null","null","","swim","swim","455.89999985694885","","Q","null","77","77","1","swim-dual-task","","Q","uppercase","152000","0","6","43e50e9a3e3c28344370af941468251d2b671d4e81b50ecdfca45aeaa8ba8a1c","152017.20000004768","455.89999985694885","77","1","swim","","","","",""
"dual-task","null","null","null","","swim","swim","455.90000009536743","","R","null","77","77","1","swim-dual-task","","R","uppercase","164000","0","6","43e50e9a3e3c28344370af941468251d2b671d4e81b50ecdfca45aeaa8ba8a1c","164017.20000004768","455.90000009536743","77","1","swim","","","","",""
"dual-task","null","null","null","","swim","swim","672.2999999523163","","a","null","88","88","1","swim-dual-task","","a","lowercase","172000","0","6","43e50e9a3e3c28344370af941468251d2b671d4e81b50ecdfca45aeaa8ba8a1c","172007.5","672.2999999523163","88","1","swim","","","","",""
"dual-task","null","null","null","","swim","swim","559.2000000476837","","t","null","88","88","1","swim-dual-task","","t","lowercase","184000","0","6","43e50e9a3e3c28344370af941468251d2b671d4e81b50ecdfca45aeaa8ba8a1c","184001.29999995232","559.2000000476837","88","1","swim","","","","",""
"dual-task","null","null","null","","swim","swim","519.0999999046326","","g","null","88","88","1","swim-dual-task","","g","lowercase","194000","0","6","43e50e9a3e3c28344370af941468251d2b671d4e81b50ecdfca45aeaa8ba8a1c","194017.20000004768","519.0999999046326","88","1","swim","","","","",""
"dual-task","null","null","null","","swim","swim","657.6999998092651","","h","null","88","88","1","swim-dual-task","","h","lowercase","206000","0","6","43e50e9a3e3c28344370af941468251d2b671d4e81b50ecdfca45aeaa8ba8a1c","206007.29999995232","657.6999998092651","88","1","swim","","","","",""
"dual-task","null","null","null","","swim","swim","511.2000000476837","","H","null","77","77","1","swim-dual-task","","H","uppercase","220000","0","6","43e50e9a3e3c28344370af941468251d2b671d4e81b50ecdfca45aeaa8ba8a1c","220017.40000009537","511.2000000476837","77","1","swim","","","","",""
"dual-task","null","null","null","","swim","swim","554.9000000953674","","N","null","77","77","1","swim-dual-task","","N","uppercase","232000","0","6","43e50e9a3e3c28344370af941468251d2b671d4e81b50ecdfca45aeaa8ba8a1c","232011.70000004768","554.9000000953674","77","1","swim","","","","",""
"dual-task","null","null","null","","swim","swim","465","","b","null","88","88","1","swim-dual-task","","b","lowercase","242000","0","6","43e50e9a3e3c28344370af941468251d2b671d4e81b50ecdfca45aeaa8ba8a1c","242007","465","88","1","swim","","","","",""
"dual-task","null","null","null","","swim","swim","569.3000001907349","","a","null","88","88","1","swim-dual-task","","a","lowercase","256000","0","6","43e50e9a3e3c28344370af941468251d2b671d4e81b50ecdfca45aeaa8ba8a1c","256007","569.3000001907349","88","1","swim","","","","",""
"dual-task","null","null","null","","swim","swim","870.7999999523163","","d","null","88","88","1","swim-dual-task","","d","lowercase","262000","0","6","43e50e9a3e3c28344370af941468251d2b671d4e81b50ecdfca45aeaa8ba8a1c","262016.90000009537","870.7999999523163","88","1","swim","","","","",""
"dual-task","null","null","null","","swim","swim","495","","r","null","88","88","1","swim-dual-task","","r","lowercase","272000","0","6","43e50e9a3e3c28344370af941468251d2b671d4e81b50ecdfca45aeaa8ba8a1c","272017.2999999523","495","88","1","swim","","","","",""
"dual-task","null","null","null","","swim","swim","648.3999998569489","","g","null","88","88","1","swim-dual-task","","g","lowercase","280000","0","6","43e50e9a3e3c28344370af941468251d2b671d4e81b50ecdfca45aeaa8ba8a1c","280007.2999999523","648.3999998569489","88","1","swim","","","","",""
"dual-task","null","null","null","","swim","swim","471.2000000476837","","h","null","88","88","1","swim-dual-task","","h","lowercase","288000","0","6","43e50e9a3e3c28344370af941468251d2b671d4e81b50ecdfca45aeaa8ba8a1c","288017.09999990463","471.2000000476837","88","1","swim","","","","",""
"dual-task","null","null","null","","swim","swim","409.5","","R","null","77","77","1","swim-dual-task","","R","uppercase","300000","0","6","43e50e9a3e3c28344370af941468251d2b671d4e81b50ecdfca45aeaa8ba8a1c","300006.90000009537","409.5","77","1","swim","","","","",""
"dual-task","null","null","null","","swim","swim","528.7999999523163","","E","null","77","77","1","swim-dual-task","","E","uppercase","308000","0","6","43e50e9a3e3c28344370af941468251d2b671d4e81b50ecdfca45aeaa8ba8a1c","308006.90000009537","528.7999999523163","77","1","swim","","","","",""
"dual-task","null","null","null","","swim","swim","505.2999999523163","","B","null","77","77","1","swim-dual-task","","B","uppercase","314000","0","6","43e50e9a3e3c28344370af941468251d2b671d4e81b50ecdfca45aeaa8ba8a1c","314007.2000000477","505.2999999523163","77","1","swim","","","","",""
"dual-task","null","null","null","","swim","swim","490.59999990463257","","H","null","77","77","1","swim-dual-task","","H","uppercase","324000","0","6","43e50e9a3e3c28344370af941468251d2b671d4e81b50ecdfca45aeaa8ba8a1c","324007.40000009537","490.59999990463257","77","1","swim","","","","",""
"dual-task","null","null","null","","swim","swim","497.60000014305115","","Q","null","77","77","1","swim-dual-task","","Q","uppercase","334000","0","6","43e50e9a3e3c28344370af941468251d2b671d4e81b50ecdfca45aeaa8ba8a1c","334006.7999999523","497.60000014305115","77","1","swim","","","","",""
"dual-task","null","null","null","","swim","swim","481.2000000476837","","B","null","77","77","1","swim-dual-task","","B","uppercase","342000","0","6","43e50e9a3e3c28344370af941468251d2b671d4e81b50ecdfca45aeaa8ba8a1c","342006.90000009537","481.2000000476837","77","1","swim","","","","",""
"dual-task","null","null","null","","swim","swim","553.8000001907349","","h","null","88","88","1","swim-dual-task","","h","lowercase","350000","0","6","43e50e9a3e3c28344370af941468251d2b671d4e81b50ecdfca45aeaa8ba8a1c","350007.09999990463","553.8000001907349","88","1","swim","","","","",""
"dual-task","null","null","null","","swim","swim","998.0999999046326","","e","null","88","88","1","swim-dual-task","","e","lowercase","358000","0","6","43e50e9a3e3c28344370af941468251d2b671d4e81b50ecdfca45aeaa8ba8a1c","358001.7999999523","998.0999999046326","88","1","swim","","","","",""
"dual-task","null","null","null","","swim","swim","521.3999998569489","","r","null","88","88","1","swim-dual-task","","r","lowercase","368000","0","6","43e50e9a3e3c28344370af941468251d2b671d4e81b50ecdfca45aeaa8ba8a1c","368007.40000009537","521.3999998569489","88","1","swim","","","","",""
"dual-task","null","null","null","","swim","swim","497.59999990463257","","A","null","77","77","1","swim-dual-task","","A","uppercase","376000","0","6","43e50e9a3e3c28344370af941468251d2b671d4e81b50ecdfca45aeaa8ba8a1c","376006.7999999523","497.59999990463257","77","1","swim","","","","",""
"dual-task","null","null","null","","swim","swim","473.7000000476837","","n","null","88","88","1","swim-dual-task","","n","lowercase","386000","0","6","43e50e9a3e3c28344370af941468251d2b671d4e81b50ecdfca45aeaa8ba8a1c","386006.90000009537","473.7000000476837","88","1","swim","","","","",""
"dual-task","null","null","null","","swim","swim","545.5","","T","null","77","77","1","swim-dual-task","","T","uppercase","396000","0","6","43e50e9a3e3c28344370af941468251d2b671d4e81b50ecdfca45aeaa8ba8a1c","396006.7999999523","545.5","77","1","swim","","","","",""
"dual-task","null","null","null","","swim","swim","521.2000000476837","","E","null","77","77","1","swim-dual-task","","E","uppercase","402000","0","6","43e50e9a3e3c28344370af941468251d2b671d4e81b50ecdfca45aeaa8ba8a1c","402006.5","521.2000000476837","77","1","swim","","","","",""
"dual-task","null","null","null","","swim","swim","526.5999999046326","","G","null","77","77","1","swim-dual-task","","G","uppercase","414000","0","6","43e50e9a3e3c28344370af941468251d2b671d4e81b50ecdfca45aeaa8ba8a1c","414001.90000009537","526.5999999046326","77","1","swim","","","","",""
"dual-task","null","null","null","","swim","swim","655.7999999523163","","t","null","88","88","1","swim-dual-task","","t","lowercase","426000","0","6","43e50e9a3e3c28344370af941468251d2b671d4e81b50ecdfca45aeaa8ba8a1c","426016.7999999523","655.7999999523163","88","1","swim","","","","",""
"dual-task","null","null","null","","swim","swim","432.60000014305115","","D","null","77","77","1","swim-dual-task","","D","uppercase","434000","0","6","43e50e9a3e3c28344370af941468251d2b671d4e81b50ecdfca45aeaa8ba8a1c","434007","432.60000014305115","77","1","swim","","","","",""
"dual-task","null","null","null","","swim","swim","505.59999990463257","","R","null","77","77","1","swim-dual-task","","R","uppercase","446000","0","6","43e50e9a3e3c28344370af941468251d2b671d4e81b50ecdfca45aeaa8ba8a1c","446007","505.59999990463257","77","1","swim","","","","",""
"dual-task","null","null","null","","swim","swim","584.5999999046326","","E","null","77","77","1","swim-dual-task","","E","uppercase","452000","0","6","43e50e9a3e3c28344370af941468251d2b671d4e81b50ecdfca45aeaa8ba8a1c","452006.90000009537","584.5999999046326","77","1","swim","","","","",""
"dual-task","null","null","null","","swim","swim","585.2999999523163","","t","null","88","88","1","swim-dual-task","","t","lowercase","462000","0","6","43e50e9a3e3c28344370af941468251d2b671d4e81b50ecdfca45aeaa8ba8a1c","462007.09999990463","585.2999999523163","88","1","swim","","","","",""
"dual-task","null","null","null","","swim","swim","601","","g","null","88","88","1","swim-dual-task","","g","lowercase","468000","0","6","43e50e9a3e3c28344370af941468251d2b671d4e81b50ecdfca45aeaa8ba8a1c","468006.5","601","88","1","swim","","","","",""
"dual-task","null","null","null","","swim","swim","464","","q","null","88","88","1","swim-dual-task","","q","lowercase","480000","0","6","43e50e9a3e3c28344370af941468251d2b671d4e81b50ecdfca45aeaa8ba8a1c","480016.7999999523","464","88","1","swim","","","","",""
"dual-task","null","null","null","","swim","swim","486.7999999523163","","e","null","88","88","1","swim-dual-task","","e","lowercase","488000","0","6","43e50e9a3e3c28344370af941468251d2b671d4e81b50ecdfca45aeaa8ba8a1c","488016.7999999523","486.7999999523163","88","1","swim","","","","",""
"dual-task","null","null","null","","swim","swim","535.2000000476837","","N","null","77","77","1","swim-dual-task","","N","uppercase","496000","0","6","43e50e9a3e3c28344370af941468251d2b671d4e81b50ecdfca45aeaa8ba8a1c","496016.59999990463","535.2000000476837","77","1","swim","","","","",""
"dual-task","null","null","null","","swim","swim","561.0999999046326","","B","null","77","77","1","swim-dual-task","","B","uppercase","504000","0","6","43e50e9a3e3c28344370af941468251d2b671d4e81b50ecdfca45aeaa8ba8a1c","504006.59999990463","561.0999999046326","77","1","swim","","","","",""
"dual-task","null","null","null","","swim","swim","661","","G","null","77","77","1","swim-dual-task","","G","uppercase","514000","0","6","43e50e9a3e3c28344370af941468251d2b671d4e81b50ecdfca45aeaa8ba8a1c","514003","661","77","1","swim","","","","",""
"dual-task","null","null","null","","swim","swim","585.4000000953674","","e","null","88","88","1","swim-dual-task","","e","lowercase","526000","0","6","43e50e9a3e3c28344370af941468251d2b671d4e81b50ecdfca45aeaa8ba8a1c","526006.5","585.4000000953674","88","1","swim","","","","",""
"dual-task","null","null","null","","swim","swim","582.9000000953674","","f","null","88","88","1","swim-dual-task","","f","lowercase","534000","0","6","43e50e9a3e3c28344370af941468251d2b671d4e81b50ecdfca45aeaa8ba8a1c","534016.7000000477","582.9000000953674","88","1","swim","","","","",""
"dual-task","null","null","null","","swim","swim","455.2999999523163","","b","null","88","88","1","swim-dual-task","","b","lowercase","546000","0","6","43e50e9a3e3c28344370af941468251d2b671d4e81b50ecdfca45aeaa8ba8a1c","546001.0999999046","455.2999999523163","88","1","swim","","","","",""
"dual-task","null","null","null","","swim","swim","641.7000000476837","","b","null","88","88","1","swim-dual-task","","b","lowercase","558000","0","6","43e50e9a3e3c28344370af941468251d2b671d4e81b50ecdfca45aeaa8ba8a1c","558006.9000000954","641.7000000476837","88","1","swim","","","","",""
"dual-task","null","null","null","","swim","swim","535.5999999046326","","G","null","77","77","1","swim-dual-task","","G","uppercase","570000","0","6","43e50e9a3e3c28344370af941468251d2b671d4e81b50ecdfca45aeaa8ba8a1c","570009.4000000954","535.5999999046326","77","1","swim","","","","",""
"dual-task","null","null","null","","swim","swim","421.09999990463257","","a","null","88","88","1","swim-dual-task","","a","lowercase","582000","0","6","43e50e9a3e3c28344370af941468251d2b671d4e81b50ecdfca45aeaa8ba8a1c","582006.9000000954","421.09999990463257","88","1","swim","","","","",""
"dual-task","null","null","null","","swim","swim","432.7999999523163","","g","null","88","88","1","swim-dual-task","","g","lowercase","594000","0","6","43e50e9a3e3c28344370af941468251d2b671d4e81b50ecdfca45aeaa8ba8a1c","594006.9000000954","432.7999999523163","88","1","swim","","","","",""
"dual-task","null","null","null","","swim","swim","592.7000000476837","","n","null","88","88","1","swim-dual-task","","n","lowercase","602000","0","6","43e50e9a3e3c28344370af941468251d2b671d4e81b50ecdfca45aeaa8ba8a1c","602006.7000000477","592.7000000476837","88","1","swim","","","","",""
"dual-task","null","null","null","","swim","swim","401.5","","N","null","77","77","1","swim-dual-task","","N","uppercase","616000","0","6","43e50e9a3e3c28344370af941468251d2b671d4e81b50ecdfca45aeaa8ba8a1c","616006.4000000954","401.5","77","1","swim","","","","",""
"dual-task","null","null","null","","swim","swim","875.5","","F","null","77","77","1","swim-dual-task","","F","uppercase","622000","0","6","43e50e9a3e3c28344370af941468251d2b671d4e81b50ecdfca45aeaa8ba8a1c","622011.7000000477","875.5","77","1","swim","","","","",""
"dual-task","null","null","null","","swim","swim","505.2000000476837","","d","null","88","88","1","swim-dual-task","","d","lowercase","636000","0","6","43e50e9a3e3c28344370af941468251d2b671d4e81b50ecdfca45aeaa8ba8a1c","636006.5","505.2000000476837","88","1","swim","","","","",""
"dual-task","null","null","null","","swim","swim","530.5","","d","null","88","88","1","swim-dual-task","","d","lowercase","644000","0","6","43e50e9a3e3c28344370af941468251d2b671d4e81b50ecdfca45aeaa8ba8a1c","644016.7999999523","530.5","88","1","swim","","","","",""
"dual-task","null","null","null","","swim","swim","621.2999999523163","","r","null","88","88","1","swim-dual-task","","r","lowercase","654000","0","6","43e50e9a3e3c28344370af941468251d2b671d4e81b50ecdfca45aeaa8ba8a1c","654006.4000000954","621.2999999523163","88","1","swim","","","","",""
"dual-task","null","null","null","","swim","swim","465.5","","n","null","88","88","1","swim-dual-task","","n","lowercase","668000","0","6","43e50e9a3e3c28344370af941468251d2b671d4e81b50ecdfca45aeaa8ba8a1c","668006.2999999523","465.5","88","1","swim","","","","",""
"dual-task","null","null","null","","swim","swim","624.4000000953674","","A","null","77","77","1","swim-dual-task","","A","uppercase","676000","0","6","43e50e9a3e3c28344370af941468251d2b671d4e81b50ecdfca45aeaa8ba8a1c","676006.4000000954","624.4000000953674","77","1","swim","","","","",""
"dual-task","null","null","null","","swim","swim","585.7999999523163","","h","null","88","88","1","swim-dual-task","","h","lowercase","686000","0","6","43e50e9a3e3c28344370af941468251d2b671d4e81b50ecdfca45aeaa8ba8a1c","686006.5","585.7999999523163","88","1","swim","","","","",""
"dual-task","null","null","null","","swim","swim","585.6000001430511","","f","null","88","88","1","swim-dual-task","","f","lowercase","698000","0","6","43e50e9a3e3c28344370af941468251d2b671d4e81b50ecdfca45aeaa8ba8a1c","698006.5999999046","585.6000001430511","88","1","swim","","","","",""
"dual-task","null","null","null","","swim","swim","665.7999999523163","","N","null","77","77","1","swim-dual-task","","N","uppercase","708000","0","6","43e50e9a3e3c28344370af941468251d2b671d4e81b50ecdfca45aeaa8ba8a1c","708006.2999999523","665.7999999523163","77","1","swim","","","","",""
"dual-task","null","null","null","","swim","swim","675.0999999046326","","H","null","77","77","1","swim-dual-task","","H","uppercase","720000","0","6","43e50e9a3e3c28344370af941468251d2b671d4e81b50ecdfca45aeaa8ba8a1c","720006.2000000477","675.0999999046326","77","1","swim","","","","",""
"dual-task","null","null","null","","swim","swim","491.10000014305115","","F","null","77","77","1","swim-dual-task","","F","uppercase","728000","0","6","43e50e9a3e3c28344370af941468251d2b671d4e81b50ecdfca45aeaa8ba8a1c","728006.2000000477","491.10000014305115","77","1","swim","","","","",""
"dual-task","null","null","null","","swim","swim","501.7000000476837","","e","null","88","88","1","swim-dual-task","","e","lowercase","740000","0","6","43e50e9a3e3c28344370af941468251d2b671d4e81b50ecdfca45aeaa8ba8a1c","740006.5","501.7000000476837","88","1","swim","","","","",""
"dual-task","null","null","null","","swim","swim","499.2999999523163","","b","null","88","88","1","swim-dual-task","","b","lowercase","754000","0","6","43e50e9a3e3c28344370af941468251d2b671d4e81b50ecdfca45aeaa8ba8a1c","754012.2999999523","499.2999999523163","88","1","swim","","","","",""
"dual-task","null","null","null","","swim","swim","535.1000001430511","","q","null","88","88","1","swim-dual-task","","q","lowercase","762000","0","6","43e50e9a3e3c28344370af941468251d2b671d4e81b50ecdfca45aeaa8ba8a1c","762016.2999999523","535.1000001430511","88","1","swim","","","","",""
"dual-task","null","null","null","","swim","swim","553.5999999046326","","F","null","77","77","1","swim-dual-task","","F","uppercase","770000","0","6","43e50e9a3e3c28344370af941468251d2b671d4e81b50ecdfca45aeaa8ba8a1c","770006.4000000954","553.5999999046326","77","1","swim","","","","",""
"dual-task","null","null","null","","swim","swim","496.89999985694885","","F","null","77","77","1","swim-dual-task","","F","uppercase","778000","0","6","43e50e9a3e3c28344370af941468251d2b671d4e81b50ecdfca45aeaa8ba8a1c","778006.0999999046","496.89999985694885","77","1","swim","","","","",""
"dual-task","null","null","null","","swim","swim","561.6999998092651","","r","null","88","88","1","swim-dual-task","","r","lowercase","786000","0","6","43e50e9a3e3c28344370af941468251d2b671d4e81b50ecdfca45aeaa8ba8a1c","786006.2999999523","561.6999998092651","88","1","swim","","","","",""
"dual-task","null","null","null","","swim","swim","505.90000009536743","","H","null","77","77","1","swim-dual-task","","H","uppercase","800000","0","6","43e50e9a3e3c28344370af941468251d2b671d4e81b50ecdfca45aeaa8ba8a1c","800006.2999999523","505.90000009536743","77","1","swim","","","","",""
"audio-keyboard-response","29","909463","0.0-7.0-0.0-1.0","43e50e9a3e3c28344370af941468251d2b671d4e81b50ecdfca45aeaa8ba8a1c","swim","swim","null","","audio/story_swim_scrambled.mp3","","null","","","","","","","","","","","","","","","","","","","",""
"html-button-response","30","912900","0.0-7.0-0.0-2.0","43e50e9a3e3c28344370af941468251d2b671d4e81b50ecdfca45aeaa8ba8a1c","swim","swim","3436","","<p>This concludes the story. Thank you for listening.</p><p>You will now answer some questions about the content of the story.</p>","0","","","","","","","","","","","","","","","","","","","","",""
"survey-multi-choice","31","917344","0.0-7.0-0.0-3.0-0.0","43e50e9a3e3c28344370af941468251d2b671d4e81b50ecdfca45aeaa8ba8a1c","swim","swim","4441","","<b>Where is the home of naval aviation?</b>","","","","1","swim-comprehension","","","","","","","","","","","","","{""Q0"":""Pensacola""}","","","",""
"survey-multi-choice","32","922901","0.0-7.0-0.0-3.0-0.1","43e50e9a3e3c28344370af941468251d2b671d4e81b50ecdfca45aeaa8ba8a1c","swim","swim","5296","","<b>What is the narrator afraid of, aside from the water?</b>","","","","1","swim-comprehension","","","","","","","","","","","","","{""Q0"":""Heights""}","","","",""
"survey-multi-choice","33","927054","0.0-7.0-0.0-3.0-0.2","43e50e9a3e3c28344370af941468251d2b671d4e81b50ecdfca45aeaa8ba8a1c","swim","swim","3900","","<b>How many times did the astronaut candidates have to complete the final exercise to pass?</b>","","","","1","swim-comprehension","","","","","","","","","","","","","{""Q0"":""Two""}","","","",""
"survey-multi-choice","34","934045","0.0-7.0-0.0-3.0-0.3","43e50e9a3e3c28344370af941468251d2b671d4e81b50ecdfca45aeaa8ba8a1c","swim","swim","6730","","<b>What were the astronaut candidates trained to do at the naval air station?</b>","","","","1","swim-comprehension","","","","","","","","","","","","","{""Q0"":""Eject out of aircraft and survive in water long enough to be rescued""}","","","",""
"survey-multi-choice","35","944117","0.0-7.0-0.0-3.0-0.4","43e50e9a3e3c28344370af941468251d2b671d4e81b50ecdfca45aeaa8ba8a1c","swim","swim","9804","","<b>What gave the narrator his greatest feeling of accomplishment?</b>","","","","1","swim-comprehension","","","","","","","","","","","","","{""Q0"":""Passing the water survival course""}","","","",""
"survey-multi-choice","36","951205","0.0-7.0-0.0-3.0-0.5","43e50e9a3e3c28344370af941468251d2b671d4e81b50ecdfca45aeaa8ba8a1c","swim","swim","6831","","<b>How did the narrator train for his swim test?</b>","","","","1","swim-comprehension","","","","","","","","","","","","","{""Q0"":""Took his kids to the pool every day""}","","","",""
"survey-multi-choice","37","966165","0.0-7.0-0.0-3.0-0.6","43e50e9a3e3c28344370af941468251d2b671d4e81b50ecdfca45aeaa8ba8a1c","swim","swim","14704","","<b>How often does the narrator swim, now that he is a good swimmer?</b>","","","","0","swim-comprehension","","","","","","","","","","","","","{""Q0"":""Every weekend with his kids""}","","","",""
"survey-multi-choice","38","974436","0.0-7.0-0.0-3.0-0.7","43e50e9a3e3c28344370af941468251d2b671d4e81b50ecdfca45aeaa8ba8a1c","swim","swim","8016","","<b>What was the final step of the first swim test in the pool?</b>","","","","1","swim-comprehension","","","","","","","","","","","","","{""Q0"":""Tread water with hands above the water""}","","","",""
"survey-multi-choice","39","981332","0.0-7.0-0.0-3.0-0.8","43e50e9a3e3c28344370af941468251d2b671d4e81b50ecdfca45aeaa8ba8a1c","swim","swim","6640","","<b>How many astronaut candidates passed the first swim test?</b>","","","","1","swim-comprehension","","","","","","","","","","","","","{""Q0"":""All of them""}","","","",""
"survey-multi-choice","40","988700","0.0-7.0-0.0-3.0-0.9","43e50e9a3e3c28344370af941468251d2b671d4e81b50ecdfca45aeaa8ba8a1c","swim","swim","7114","","<b>How many astronaut candidates reported for duty at the Johnson Space Center?</b>","","","","1","swim-comprehension","","","","","","","","","","","","","{""Q0"":""Forty-four""}","","","",""
"html-button-response","41","990876","0.0-7.0-0.0-4.0","43e50e9a3e3c28344370af941468251d2b671d4e81b50ecdfca45aeaa8ba8a1c","swim","swim","1924","","<p>Thank you for your responses.</p><p>You will now answer some questions about your impressions of the story.</p>","0","","","","","","","","","","","","","","","","","","","","",""
"html-button-response","42","994557","0.0-7.0-0.0-5.0-0.0","43e50e9a3e3c28344370af941468251d2b671d4e81b50ecdfca45aeaa8ba8a1c","swim","swim","3678","","MS3","5","","","","swim-engagement","","","","","","","","","","","","","","6","mental-sim","",""
"html-button-response","43","998645","0.0-7.0-0.0-5.0-0.1","43e50e9a3e3c28344370af941468251d2b671d4e81b50ecdfca45aeaa8ba8a1c","swim","swim","3835","","EE1","5","","","","swim-engagement","","","","","","","","","","","","","","6","emo-engage","",""
"html-button-response","44","1004332","0.0-7.0-0.0-5.0-0.2","43e50e9a3e3c28344370af941468251d2b671d4e81b50ecdfca45aeaa8ba8a1c","swim","swim","5435","","A4","5","","","","swim-engagement","","","","","","","","","","","","","","6","absorption","",""
"html-button-response","45","1006829","0.0-7.0-0.0-5.0-0.3","43e50e9a3e3c28344370af941468251d2b671d4e81b50ecdfca45aeaa8ba8a1c","swim","swim","2242","","EE2","4","","","","swim-engagement","","","","","","","","","","","","","","5","emo-engage","",""
"html-button-response","46","1009025","0.0-7.0-0.0-5.0-0.4","43e50e9a3e3c28344370af941468251d2b671d4e81b50ecdfca45aeaa8ba8a1c","swim","swim","1944","","EE5","5","","","","swim-engagement","","","","","","","","","","","","","","6","emo-engage","",""
"html-button-response","47","1010846","0.0-7.0-0.0-5.0-0.5","43e50e9a3e3c28344370af941468251d2b671d4e81b50ecdfca45aeaa8ba8a1c","swim","swim","1569","","E7","6","","","","swim-engagement","","","","","","","","","","","","","","7","enjoyment","",""
"html-button-response","48","1012604","0.0-7.0-0.0-5.0-0.6","43e50e9a3e3c28344370af941468251d2b671d4e81b50ecdfca45aeaa8ba8a1c","swim","swim","1505","","EE4","5","","","","swim-engagement","","","","","","","","","","","","","","6","emo-engage","",""
"html-button-response","49","1014959","0.0-7.0-0.0-5.0-0.7","43e50e9a3e3c28344370af941468251d2b671d4e81b50ecdfca45aeaa8ba8a1c","swim","swim","2102","","E8","5","","","","swim-engagement","","","","","","","","","","","","","","6","enjoyment","",""
"html-button-response","50","1016508","0.0-7.0-0.0-5.0-0.8","43e50e9a3e3c28344370af941468251d2b671d4e81b50ecdfca45aeaa8ba8a1c","swim","swim","1295","","E6","5","","","","swim-engagement","","","","","","","","","","","","","","6","enjoyment","",""
"html-button-response","51","1020948","0.0-7.0-0.0-5.0-0.9","43e50e9a3e3c28344370af941468251d2b671d4e81b50ecdfca45aeaa8ba8a1c","swim","swim","4188","","MS1","4","","","","swim-engagement","","","","","","","","","","","","","","5","mental-sim","",""
"html-button-response","52","1023060","0.0-7.0-0.0-5.0-0.10","43e50e9a3e3c28344370af941468251d2b671d4e81b50ecdfca45aeaa8ba8a1c","swim","swim","1859","","EE3","4","","","","swim-engagement","","","","","","","","","","","","","","5","emo-engage","",""
"html-button-response","53","1026572","0.0-7.0-0.0-5.0-0.11","43e50e9a3e3c28344370af941468251d2b671d4e81b50ecdfca45aeaa8ba8a1c","swim","swim","3260","","A1","5","","","","swim-engagement","","","","","","","","","","","","","","6","absorption","",""
"html-button-response","54","1028924","0.0-7.0-0.0-5.0-0.12","43e50e9a3e3c28344370af941468251d2b671d4e81b50ecdfca45aeaa8ba8a1c","swim","swim","2101","","E10","3","","","","swim-engagement","","","","","","","","","","","","","","4","enjoyment","",""
"html-button-response","55","1032677","0.0-7.0-0.0-5.0-0.13","43e50e9a3e3c28344370af941468251d2b671d4e81b50ecdfca45aeaa8ba8a1c","swim","swim","3500","","A2","5","","","","swim-engagement","","","","","","","","","","","","","","6","absorption","",""
"html-button-response","56","1036277","0.0-7.0-0.0-5.0-0.14","43e50e9a3e3c28344370af941468251d2b671d4e81b50ecdfca45aeaa8ba8a1c","swim","swim","3347","","MS2","5","","","","swim-engagement","","","","","","","","","","","","","","6","mental-sim","",""
"html-button-response","57","1038237","0.0-7.0-0.0-5.0-0.15","43e50e9a3e3c28344370af941468251d2b671d4e81b50ecdfca45aeaa8ba8a1c","swim","swim","1707","","E1","5","","","","swim-engagement","","","","","","","","","","","","","","6","enjoyment","",""
"html-button-response","58","1039573","0.0-7.0-0.0-5.0-0.16","43e50e9a3e3c28344370af941468251d2b671d4e81b50ecdfca45aeaa8ba8a1c","swim","swim","1084","","A3","5","","","","swim-engagement","","","","","","","","","","","","","","6","absorption","",""
"html-button-response","59","1043157","0.0-7.0-0.0-5.0-0.17","43e50e9a3e3c28344370af941468251d2b671d4e81b50ecdfca45aeaa8ba8a1c","swim","swim","3333","","A5","5","","","","swim-engagement","","","","","","","","","","","","","","6","absorption","",""
"html-keyboard-response","60","1048805","0.0-7.0-1.0","43e50e9a3e3c28344370af941468251d2b671d4e81b50ecdfca45aeaa8ba8a1c","swim","swim","5397","","<p>Thank you for your responses. You will now listen to the second story.</p><p>Remember, as you listen to the story you will see letters appear on the screen.</br>As quickly as possible, press <b>&lt;x&gt;</b> if the letter is lowercase and <b>&lt;m&gt;</b> if the letter is uppercase.</p><p>Press <b>&lt;x&gt;</b> or <b>&lt;m&gt;</b> to begin listening!</p>","","77","","","","","","","","","","","","","","","","","","","",""
"html-keyboard-response","61","1049306","0.0-7.0-2.0-0.0","43e50e9a3e3c28344370af941468251d2b671d4e81b50ecdfca45aeaa8ba8a1c","swim","swim","null","","<div style=""font-size:60px;"" tabindex=""0"">+</div>","","null","","","","","","","","","","","","","","","","","","","",""
"dual-task","null","null","null","","swim","swim","620.1000001430511","","E","null","77","77","1","arctic-dual-task","","E","uppercase","12000","0","6","43e50e9a3e3c28344370af941468251d2b671d4e81b50ecdfca45aeaa8ba8a1c","12005","620.1000001430511","77","1","arctic","","","","",""
"dual-task","null","null","null","","swim","swim","531.5","","A","null","77","77","1","arctic-dual-task","","A","uppercase","24000","0","6","43e50e9a3e3c28344370af941468251d2b671d4e81b50ecdfca45aeaa8ba8a1c","24014.10000014305","531.5","77","1","arctic","","","","",""
"dual-task","null","null","null","","swim","swim","538.5999999046326","","E","null","77","77","1","arctic-dual-task","","E","uppercase","36000","0","6","43e50e9a3e3c28344370af941468251d2b671d4e81b50ecdfca45aeaa8ba8a1c","36014","538.5999999046326","77","1","arctic","","","","",""
"dual-task","null","null","null","","swim","swim","497.80000019073486","","h","null","88","88","1","arctic-dual-task","","h","lowercase","46000","0","6","43e50e9a3e3c28344370af941468251d2b671d4e81b50ecdfca45aeaa8ba8a1c","46013.90000009537","497.80000019073486","88","1","arctic","","","","",""
"dual-task","null","null","null","","swim","swim","434.39999985694885","","A","null","77","77","1","arctic-dual-task","","A","uppercase","60000","0","6","43e50e9a3e3c28344370af941468251d2b671d4e81b50ecdfca45aeaa8ba8a1c","60014.200000047684","434.39999985694885","77","1","arctic","","","","",""
"dual-task","null","null","null","","swim","swim","574.2999999523163","","t","null","88","88","1","arctic-dual-task","","t","lowercase","70000","0","6","43e50e9a3e3c28344370af941468251d2b671d4e81b50ecdfca45aeaa8ba8a1c","70010.20000004768","574.2999999523163","88","1","arctic","","","","",""
"dual-task","null","null","null","","swim","swim","546.6000001430511","","H","null","77","77","1","arctic-dual-task","","H","uppercase","82000","0","6","43e50e9a3e3c28344370af941468251d2b671d4e81b50ecdfca45aeaa8ba8a1c","82013.90000009537","546.6000001430511","77","1","arctic","","","","",""
"dual-task","null","null","null","","swim","swim","588.2999999523163","","f","null","88","88","1","arctic-dual-task","","f","lowercase","92000","0","6","43e50e9a3e3c28344370af941468251d2b671d4e81b50ecdfca45aeaa8ba8a1c","92003.70000004768","588.2999999523163","88","1","arctic","","","","",""
"dual-task","null","null","null","","swim","swim","481.7000000476837","","b","null","88","88","1","arctic-dual-task","","b","lowercase","104000","0","6","43e50e9a3e3c28344370af941468251d2b671d4e81b50ecdfca45aeaa8ba8a1c","104014","481.7000000476837","88","1","arctic","","","","",""
"dual-task","null","null","null","","swim","swim","457.90000009536743","","D","null","77","77","1","arctic-dual-task","","D","uppercase","112000","0","6","43e50e9a3e3c28344370af941468251d2b671d4e81b50ecdfca45aeaa8ba8a1c","112013.70000004768","457.90000009536743","77","1","arctic","","","","",""
"dual-task","null","null","null","","swim","swim","498.2999999523163","","F","null","77","77","1","arctic-dual-task","","F","uppercase","120000","0","6","43e50e9a3e3c28344370af941468251d2b671d4e81b50ecdfca45aeaa8ba8a1c","120014","498.2999999523163","77","1","arctic","","","","",""
"dual-task","null","null","null","","swim","swim","473.2999999523163","","b","null","88","88","1","arctic-dual-task","","b","lowercase","130000","0","6","43e50e9a3e3c28344370af941468251d2b671d4e81b50ecdfca45aeaa8ba8a1c","130013.80000019073","473.2999999523163","88","1","arctic","","","","",""
"dual-task","null","null","null","","swim","swim","454.90000009536743","","R","null","77","77","1","arctic-dual-task","","R","uppercase","136000","0","6","43e50e9a3e3c28344370af941468251d2b671d4e81b50ecdfca45aeaa8ba8a1c","136013.70000004768","454.90000009536743","77","1","arctic","","","","",""
"dual-task","null","null","null","","swim","swim","401.59999990463257","","d","null","88","88","1","arctic-dual-task","","d","lowercase","144000","0","6","43e50e9a3e3c28344370af941468251d2b671d4e81b50ecdfca45aeaa8ba8a1c","144014","401.59999990463257","88","1","arctic","","","","",""
"dual-task","null","null","null","","swim","swim","564","","f","null","88","88","1","arctic-dual-task","","f","lowercase","158000","0","6","43e50e9a3e3c28344370af941468251d2b671d4e81b50ecdfca45aeaa8ba8a1c","158003.80000019073","564","88","1","arctic","","","","",""
"dual-task","null","null","null","","swim","swim","581.5999999046326","","H","null","77","77","1","arctic-dual-task","","H","uppercase","168000","0","6","43e50e9a3e3c28344370af941468251d2b671d4e81b50ecdfca45aeaa8ba8a1c","168014","581.5999999046326","77","1","arctic","","","","",""
"dual-task","null","null","null","","swim","swim","580.7999999523163","","q","null","88","88","1","arctic-dual-task","","q","lowercase","178000","0","6","43e50e9a3e3c28344370af941468251d2b671d4e81b50ecdfca45aeaa8ba8a1c","178004.10000014305","580.7999999523163","88","1","arctic","","","","",""
"dual-task","null","null","null","","swim","swim","570.0999999046326","","H","null","77","77","1","arctic-dual-task","","H","uppercase","188000","0","6","43e50e9a3e3c28344370af941468251d2b671d4e81b50ecdfca45aeaa8ba8a1c","188013.90000009537","570.0999999046326","77","1","arctic","","","","",""
"dual-task","null","null","null","","swim","swim","546.3000001907349","","r","null","88","88","1","arctic-dual-task","","r","lowercase","202000","0","6","43e50e9a3e3c28344370af941468251d2b671d4e81b50ecdfca45aeaa8ba8a1c","202013.5","546.3000001907349","88","1","arctic","","","","",""
"dual-task","null","null","null","","swim","swim","426.2000000476837","","a","null","88","88","1","arctic-dual-task","","a","lowercase","214000","0","6","43e50e9a3e3c28344370af941468251d2b671d4e81b50ecdfca45aeaa8ba8a1c","214013.80000019073","426.2000000476837","88","1","arctic","","","","",""
"dual-task","null","null","null","","swim","swim","1483.9000000953674","","a","null","88","88","1","arctic-dual-task","","a","lowercase","220000","0","6","43e50e9a3e3c28344370af941468251d2b671d4e81b50ecdfca45aeaa8ba8a1c","220003.5","1483.9000000953674","88","1","arctic","","","","",""
"dual-task","null","null","null","","swim","swim","564.7000000476837","","G","null","77","77","1","arctic-dual-task","","G","uppercase","232000","0","6","43e50e9a3e3c28344370af941468251d2b671d4e81b50ecdfca45aeaa8ba8a1c","232003.5","564.7000000476837","77","1","arctic","","","","",""
"dual-task","null","null","null","","swim","swim","555.6999998092651","","t","null","88","88","1","arctic-dual-task","","t","lowercase","240000","0","6","43e50e9a3e3c28344370af941468251d2b671d4e81b50ecdfca45aeaa8ba8a1c","240003.70000004768","555.6999998092651","88","1","arctic","","","","",""
"dual-task","null","null","null","","swim","swim","458","","n","null","88","88","1","arctic-dual-task","","n","lowercase","248000","0","6","43e50e9a3e3c28344370af941468251d2b671d4e81b50ecdfca45aeaa8ba8a1c","248013.60000014305","458","88","1","arctic","","","","",""
"dual-task","null","null","null","","swim","swim","639.9000000953674","","F","null","77","77","1","arctic-dual-task","","F","uppercase","258000","0","6","43e50e9a3e3c28344370af941468251d2b671d4e81b50ecdfca45aeaa8ba8a1c","258003.60000014305","639.9000000953674","77","1","arctic","","","","",""
"dual-task","null","null","null","","swim","swim","441.90000009536743","","f","null","88","88","1","arctic-dual-task","","f","lowercase","270000","0","6","43e50e9a3e3c28344370af941468251d2b671d4e81b50ecdfca45aeaa8ba8a1c","270013.90000009537","441.90000009536743","88","1","arctic","","","","",""
"dual-task","null","null","null","","swim","swim","660.5999999046326","","f","null","88","88","1","arctic-dual-task","","f","lowercase","282000","0","6","43e50e9a3e3c28344370af941468251d2b671d4e81b50ecdfca45aeaa8ba8a1c","282003.7000000477","660.5999999046326","88","1","arctic","","","","",""
"dual-task","null","null","null","","swim","swim","459.5","","n","null","88","88","1","arctic-dual-task","","n","lowercase","292000","0","6","43e50e9a3e3c28344370af941468251d2b671d4e81b50ecdfca45aeaa8ba8a1c","292003.60000014305","459.5","88","1","arctic","","","","",""
"dual-task","null","null","null","","swim","swim","519.9000000953674","","h","null","88","88","1","arctic-dual-task","","h","lowercase","300000","0","6","43e50e9a3e3c28344370af941468251d2b671d4e81b50ecdfca45aeaa8ba8a1c","300003.40000009537","519.9000000953674","88","1","arctic","","","","",""
"dual-task","null","null","null","","swim","swim","391.59999990463257","","e","null","88","88","1","arctic-dual-task","","e","lowercase","306000","0","6","43e50e9a3e3c28344370af941468251d2b671d4e81b50ecdfca45aeaa8ba8a1c","306003.40000009537","391.59999990463257","88","1","arctic","","","","",""
"dual-task","null","null","null","","swim","swim","546.5","","F","null","77","77","1","arctic-dual-task","","F","uppercase","312000","0","6","43e50e9a3e3c28344370af941468251d2b671d4e81b50ecdfca45aeaa8ba8a1c","312013.60000014305","546.5","77","1","arctic","","","","",""
"dual-task","null","null","null","","swim","swim","461.09999990463257","","e","null","77","88","0","arctic-dual-task","","e","lowercase","318000","0","6","43e50e9a3e3c28344370af941468251d2b671d4e81b50ecdfca45aeaa8ba8a1c","318013.5","461.09999990463257","77","0","arctic","","","","",""
"dual-task","null","null","null","","swim","swim","532.5","","E","null","77","77","1","arctic-dual-task","","E","uppercase","332000","0","6","43e50e9a3e3c28344370af941468251d2b671d4e81b50ecdfca45aeaa8ba8a1c","332003.60000014305","532.5","77","1","arctic","","","","",""
"dual-task","null","null","null","","swim","swim","530","","G","null","77","77","1","arctic-dual-task","","G","uppercase","344000","0","6","43e50e9a3e3c28344370af941468251d2b671d4e81b50ecdfca45aeaa8ba8a1c","344013.7000000477","530","77","1","arctic","","","","",""
"dual-task","null","null","null","","swim","swim","582.3000001907349","","b","null","88","88","1","arctic-dual-task","","b","lowercase","350000","0","6","43e50e9a3e3c28344370af941468251d2b671d4e81b50ecdfca45aeaa8ba8a1c","350001.90000009537","582.3000001907349","88","1","arctic","","","","",""
"dual-task","null","null","null","","swim","swim","684.3999998569489","","D","null","77","77","1","arctic-dual-task","","D","uppercase","356000","0","6","43e50e9a3e3c28344370af941468251d2b671d4e81b50ecdfca45aeaa8ba8a1c","356003.2000000477","684.3999998569489","77","1","arctic","","","","",""
"dual-task","null","null","null","","swim","swim","482.5","","D","null","77","77","1","arctic-dual-task","","D","uppercase","368000","0","6","43e50e9a3e3c28344370af941468251d2b671d4e81b50ecdfca45aeaa8ba8a1c","368013.60000014305","482.5","77","1","arctic","","","","",""
"dual-task","null","null","null","","swim","swim","467","","A","null","77","77","1","arctic-dual-task","","A","uppercase","378000","0","6","43e50e9a3e3c28344370af941468251d2b671d4e81b50ecdfca45aeaa8ba8a1c","378003.90000009537","467","77","1","arctic","","","","",""
"dual-task","null","null","null","","swim","swim","442.7999999523163","","G","null","77","77","1","arctic-dual-task","","G","uppercase","390000","0","6","43e50e9a3e3c28344370af941468251d2b671d4e81b50ecdfca45aeaa8ba8a1c","390013.30000019073","442.7999999523163","77","1","arctic","","","","",""
"dual-task","null","null","null","","swim","swim","508.7000000476837","","n","null","88","88","1","arctic-dual-task","","n","lowercase","402000","0","6","43e50e9a3e3c28344370af941468251d2b671d4e81b50ecdfca45aeaa8ba8a1c","402003.2000000477","508.7000000476837","88","1","arctic","","","","",""
"dual-task","null","null","null","","swim","swim","952.9000000953674","","D","null","77","77","1","arctic-dual-task","","D","uppercase","408000","0","6","43e50e9a3e3c28344370af941468251d2b671d4e81b50ecdfca45aeaa8ba8a1c","408013.90000009537","952.9000000953674","77","1","arctic","","","","",""
"dual-task","null","null","null","","swim","swim","440.09999990463257","","E","null","77","77","1","arctic-dual-task","","E","uppercase","414000","0","6","43e50e9a3e3c28344370af941468251d2b671d4e81b50ecdfca45aeaa8ba8a1c","414003.2000000477","440.09999990463257","77","1","arctic","","","","",""
"dual-task","null","null","null","","swim","swim","521.5999999046326","","a","null","88","88","1","arctic-dual-task","","a","lowercase","428000","0","6","43e50e9a3e3c28344370af941468251d2b671d4e81b50ecdfca45aeaa8ba8a1c","428013.7000000477","521.5999999046326","88","1","arctic","","","","",""
"dual-task","null","null","null","","swim","swim","475.90000009536743","","N","null","77","77","1","arctic-dual-task","","N","uppercase","442000","0","6","43e50e9a3e3c28344370af941468251d2b671d4e81b50ecdfca45aeaa8ba8a1c","442003.30000019073","475.90000009536743","77","1","arctic","","","","",""
"dual-task","null","null","null","","swim","swim","587.4000000953674","","q","null","88","88","1","arctic-dual-task","","q","lowercase","448000","0","6","43e50e9a3e3c28344370af941468251d2b671d4e81b50ecdfca45aeaa8ba8a1c","448003.5","587.4000000953674","88","1","arctic","","","","",""
"dual-task","null","null","null","","swim","swim","519.7999999523163","","g","null","88","88","1","arctic-dual-task","","g","lowercase","458000","0","6","43e50e9a3e3c28344370af941468251d2b671d4e81b50ecdfca45aeaa8ba8a1c","458000.10000014305","519.7999999523163","88","1","arctic","","","","",""
"dual-task","null","null","null","","swim","swim","494.09999990463257","","q","null","88","88","1","arctic-dual-task","","q","lowercase","468000","0","6","43e50e9a3e3c28344370af941468251d2b671d4e81b50ecdfca45aeaa8ba8a1c","468001.10000014305","494.09999990463257","88","1","arctic","","","","",""
"dual-task","null","null","null","","swim","swim","556.5","","T","null","77","77","1","arctic-dual-task","","T","uppercase","476000","0","6","43e50e9a3e3c28344370af941468251d2b671d4e81b50ecdfca45aeaa8ba8a1c","476003.40000009537","556.5","77","1","arctic","","","","",""
"dual-task","null","null","null","","swim","swim","563.7000000476837","","r","null","88","88","1","arctic-dual-task","","r","lowercase","486000","0","6","43e50e9a3e3c28344370af941468251d2b671d4e81b50ecdfca45aeaa8ba8a1c","486012.10000014305","563.7000000476837","88","1","arctic","","","","",""
"dual-task","null","null","null","","swim","swim","539.9000000953674","","g","null","88","88","1","arctic-dual-task","","g","lowercase","496000","0","6","43e50e9a3e3c28344370af941468251d2b671d4e81b50ecdfca45aeaa8ba8a1c","496025.60000014305","539.9000000953674","88","1","arctic","","","","",""
"dual-task","null","null","null","","swim","swim","570.7000000476837","","d","null","88","88","1","arctic-dual-task","","d","lowercase","506000","0","6","43e50e9a3e3c28344370af941468251d2b671d4e81b50ecdfca45aeaa8ba8a1c","506013.10000014305","570.7000000476837","88","1","arctic","","","","",""
"dual-task","null","null","null","","swim","swim","600","","Q","null","77","77","1","arctic-dual-task","","Q","uppercase","516000","0","6","43e50e9a3e3c28344370af941468251d2b671d4e81b50ecdfca45aeaa8ba8a1c","516003","600","77","1","arctic","","","","",""
"dual-task","null","null","null","","swim","swim","683.6000001430511","","B","null","77","77","1","arctic-dual-task","","B","uppercase","524000","0","6","43e50e9a3e3c28344370af941468251d2b671d4e81b50ecdfca45aeaa8ba8a1c","524003.40000009537","683.6000001430511","77","1","arctic","","","","",""
"dual-task","null","null","null","","swim","swim","672.0999999046326","","T","null","77","77","1","arctic-dual-task","","T","uppercase","532000","0","6","43e50e9a3e3c28344370af941468251d2b671d4e81b50ecdfca45aeaa8ba8a1c","532023","672.0999999046326","77","1","arctic","","","","",""
"dual-task","null","null","null","","swim","swim","601.3999998569489","","e","null","88","88","1","arctic-dual-task","","e","lowercase","540000","0","6","43e50e9a3e3c28344370af941468251d2b671d4e81b50ecdfca45aeaa8ba8a1c","540013.5","601.3999998569489","88","1","arctic","","","","",""
"dual-task","null","null","null","","swim","swim","642.5999999046326","","N","null","77","77","1","arctic-dual-task","","N","uppercase","548000","0","6","43e50e9a3e3c28344370af941468251d2b671d4e81b50ecdfca45aeaa8ba8a1c","548013.2000000477","642.5999999046326","77","1","arctic","","","","",""
"dual-task","null","null","null","","swim","swim","483.89999985694885","","H","null","77","77","1","arctic-dual-task","","H","uppercase","558000","0","6","43e50e9a3e3c28344370af941468251d2b671d4e81b50ecdfca45aeaa8ba8a1c","558003.100000143","483.89999985694885","77","1","arctic","","","","",""
"dual-task","null","null","null","","swim","swim","572.7000000476837","","g","null","88","88","1","arctic-dual-task","","g","lowercase","566000","0","6","43e50e9a3e3c28344370af941468251d2b671d4e81b50ecdfca45aeaa8ba8a1c","566003.2000000477","572.7000000476837","88","1","arctic","","","","",""
"dual-task","null","null","null","","swim","swim","507.2999999523163","","r","null","88","88","1","arctic-dual-task","","r","lowercase","574000","0","6","43e50e9a3e3c28344370af941468251d2b671d4e81b50ecdfca45aeaa8ba8a1c","574003.4000000954","507.2999999523163","88","1","arctic","","","","",""
"dual-task","null","null","null","","swim","swim","594.5","","R","null","77","77","1","arctic-dual-task","","R","uppercase","582000","0","6","43e50e9a3e3c28344370af941468251d2b671d4e81b50ecdfca45aeaa8ba8a1c","582013.100000143","594.5","77","1","arctic","","","","",""
"dual-task","null","null","null","","swim","swim","596.2000000476837","","F","null","77","77","1","arctic-dual-task","","F","uppercase","588000","0","6","43e50e9a3e3c28344370af941468251d2b671d4e81b50ecdfca45aeaa8ba8a1c","588002.9000000954","596.2000000476837","77","1","arctic","","","","",""
"dual-task","null","null","null","","swim","swim","532.7000000476837","","e","null","88","88","1","arctic-dual-task","","e","lowercase","596000","0","6","43e50e9a3e3c28344370af941468251d2b671d4e81b50ecdfca45aeaa8ba8a1c","596003.100000143","532.7000000476837","88","1","arctic","","","","",""
"dual-task","null","null","null","","swim","swim","612.8000001907349","","Q","null","77","77","1","arctic-dual-task","","Q","uppercase","606000","0","6","43e50e9a3e3c28344370af941468251d2b671d4e81b50ecdfca45aeaa8ba8a1c","606002.9000000954","612.8000001907349","77","1","arctic","","","","",""
"dual-task","null","null","null","","swim","swim","417.19999980926514","","N","null","77","77","1","arctic-dual-task","","N","uppercase","616000","0","6","43e50e9a3e3c28344370af941468251d2b671d4e81b50ecdfca45aeaa8ba8a1c","616013.100000143","417.19999980926514","77","1","arctic","","","","",""
"dual-task","null","null","null","","swim","swim","562.8000001907349","","t","null","88","88","1","arctic-dual-task","","t","lowercase","626000","0","6","43e50e9a3e3c28344370af941468251d2b671d4e81b50ecdfca45aeaa8ba8a1c","626012.9000000954","562.8000001907349","88","1","arctic","","","","",""
"dual-task","null","null","null","","swim","swim","521.5","","Q","null","77","77","1","arctic-dual-task","","Q","uppercase","634000","0","6","43e50e9a3e3c28344370af941468251d2b671d4e81b50ecdfca45aeaa8ba8a1c","634013.2000000477","521.5","77","1","arctic","","","","",""
"dual-task","null","null","null","","swim","swim","492.2999999523163","","Q","null","77","77","1","arctic-dual-task","","Q","uppercase","640000","0","6","43e50e9a3e3c28344370af941468251d2b671d4e81b50ecdfca45aeaa8ba8a1c","640002.8000001907","492.2999999523163","77","1","arctic","","","","",""
"dual-task","null","null","null","","swim","swim","430.10000014305115","","R","null","77","77","1","arctic-dual-task","","R","uppercase","648000","0","6","43e50e9a3e3c28344370af941468251d2b671d4e81b50ecdfca45aeaa8ba8a1c","648008.7000000477","430.10000014305115","77","1","arctic","","","","",""
"dual-task","null","null","null","","swim","swim","611","","d","null","88","88","1","arctic-dual-task","","d","lowercase","660000","0","6","43e50e9a3e3c28344370af941468251d2b671d4e81b50ecdfca45aeaa8ba8a1c","660012.8000001907","611","88","1","arctic","","","","",""
"dual-task","null","null","null","","swim","swim","571.7000000476837","","h","null","88","88","1","arctic-dual-task","","h","lowercase","668000","0","6","43e50e9a3e3c28344370af941468251d2b671d4e81b50ecdfca45aeaa8ba8a1c","668003.100000143","571.7000000476837","88","1","arctic","","","","",""
"dual-task","null","null","null","","swim","swim","452.09999990463257","","A","null","77","77","1","arctic-dual-task","","A","uppercase","676000","0","6","43e50e9a3e3c28344370af941468251d2b671d4e81b50ecdfca45aeaa8ba8a1c","676003","452.09999990463257","77","1","arctic","","","","",""
"dual-task","null","null","null","","swim","swim","410","","q","null","88","88","1","arctic-dual-task","","q","lowercase","686000","0","6","43e50e9a3e3c28344370af941468251d2b671d4e81b50ecdfca45aeaa8ba8a1c","686013","410","88","1","arctic","","","","",""
"dual-task","null","null","null","","swim","swim","602.2000000476837","","t","null","88","88","1","arctic-dual-task","","t","lowercase","692000","0","6","43e50e9a3e3c28344370af941468251d2b671d4e81b50ecdfca45aeaa8ba8a1c","692012.8000001907","602.2000000476837","88","1","arctic","","","","",""
"dual-task","null","null","null","","swim","swim","644.6999998092651","","B","null","77","77","1","arctic-dual-task","","B","uppercase","702000","0","6","43e50e9a3e3c28344370af941468251d2b671d4e81b50ecdfca45aeaa8ba8a1c","702002.7000000477","644.6999998092651","77","1","arctic","","","","",""
"dual-task","null","null","null","","swim","swim","563.6000001430511","","B","null","77","77","1","arctic-dual-task","","B","uppercase","710000","0","6","43e50e9a3e3c28344370af941468251d2b671d4e81b50ecdfca45aeaa8ba8a1c","710003.100000143","563.6000001430511","77","1","arctic","","","","",""
"dual-task","null","null","null","","swim","swim","491.7000000476837","","T","null","77","77","1","arctic-dual-task","","T","uppercase","716000","0","6","43e50e9a3e3c28344370af941468251d2b671d4e81b50ecdfca45aeaa8ba8a1c","716013.2000000477","491.7000000476837","77","1","arctic","","","","",""
"dual-task","null","null","null","","swim","swim","571.5","","n","null","88","88","1","arctic-dual-task","","n","lowercase","724000","0","6","43e50e9a3e3c28344370af941468251d2b671d4e81b50ecdfca45aeaa8ba8a1c","724002.7000000477","571.5","88","1","arctic","","","","",""
"dual-task","null","null","null","","swim","swim","610.6999998092651","","B","null","77","77","1","arctic-dual-task","","B","uppercase","732000","0","6","43e50e9a3e3c28344370af941468251d2b671d4e81b50ecdfca45aeaa8ba8a1c","732012.7000000477","610.6999998092651","77","1","arctic","","","","",""
"dual-task","null","null","null","","swim","swim","621","","r","null","88","88","1","arctic-dual-task","","r","lowercase","740000","0","6","43e50e9a3e3c28344370af941468251d2b671d4e81b50ecdfca45aeaa8ba8a1c","740002.9000000954","621","88","1","arctic","","","","",""
"dual-task","null","null","null","","swim","swim","459.7999999523163","","d","null","88","88","1","arctic-dual-task","","d","lowercase","748000","0","6","43e50e9a3e3c28344370af941468251d2b671d4e81b50ecdfca45aeaa8ba8a1c","748003","459.7999999523163","88","1","arctic","","","","",""
"dual-task","null","null","null","","swim","swim","514.2999999523163","","T","null","77","77","1","arctic-dual-task","","T","uppercase","760000","0","6","43e50e9a3e3c28344370af941468251d2b671d4e81b50ecdfca45aeaa8ba8a1c","760012.9000000954","514.2999999523163","77","1","arctic","","","","",""
"dual-task","null","null","null","","swim","swim","433.7000000476837","","a","null","88","88","1","arctic-dual-task","","a","lowercase","770000","0","6","43e50e9a3e3c28344370af941468251d2b671d4e81b50ecdfca45aeaa8ba8a1c","770012.9000000954","433.7000000476837","88","1","arctic","","","","",""
"dual-task","null","null","null","","swim","swim","516.5999999046326","","b","null","88","88","1","arctic-dual-task","","b","lowercase","776000","0","6","43e50e9a3e3c28344370af941468251d2b671d4e81b50ecdfca45aeaa8ba8a1c","776002.5","516.5999999046326","88","1","arctic","","","","",""
"dual-task","null","null","null","","swim","swim","476.39999985694885","","G","null","77","77","1","arctic-dual-task","","G","uppercase","790000","0","6","43e50e9a3e3c28344370af941468251d2b671d4e81b50ecdfca45aeaa8ba8a1c","790002.5","476.39999985694885","77","1","arctic","","","","",""
"audio-keyboard-response","62","1847423","0.0-7.0-2.0-1.0","43e50e9a3e3c28344370af941468251d2b671d4e81b50ecdfca45aeaa8ba8a1c","swim","swim","null","","audio/story_arctic.mp3","","null","","","","","","","","","","","","","","","","","","","",""
"html-button-response","63","1850063","0.0-7.0-2.0-2.0","43e50e9a3e3c28344370af941468251d2b671d4e81b50ecdfca45aeaa8ba8a1c","swim","swim","2639","","<p>This concludes the story. Thank you for listening.</p><p>You will now answer some questions about the content of the story.</p>","0","","","","","","","","","","","","","","","","","","","","",""
"survey-multi-choice","64","1854995","0.0-7.0-2.0-3.0-0.0","43e50e9a3e3c28344370af941468251d2b671d4e81b50ecdfca45aeaa8ba8a1c","swim","swim","4929","","<b>What was the objective of the narrator&#39;s expedition?</b>","","","","1","arctic-comprehension","","","","","","","","","","","","","{""Q0"":""Dogsled across Arctic America""}","","","",""
"survey-multi-choice","65","1864051","0.0-7.0-2.0-3.0-0.1","43e50e9a3e3c28344370af941468251d2b671d4e81b50ecdfca45aeaa8ba8a1c","swim","swim","8791","","<b>How did the narrator prepare for her expedition?</b>","","","","1","arctic-comprehension","","","","","","","","","","","","","{""Q0"":""Trained in Alaska learning how to dogsled""}","","","",""
"survey-multi-choice","66","1872307","0.0-7.0-2.0-3.0-0.2","43e50e9a3e3c28344370af941468251d2b671d4e81b50ecdfca45aeaa8ba8a1c","swim","swim","8003","","<b>Which dog on the narrator&#39;s dog team never followed instructions?</b>","","","","1","arctic-comprehension","","","","","","","","","","","","","{""Q0"":""Robert""}","","","",""
"survey-multi-choice","67","1880891","0.0-7.0-2.0-3.0-0.3","43e50e9a3e3c28344370af941468251d2b671d4e81b50ecdfca45aeaa8ba8a1c","swim","swim","8316","","<b>What were the weather conditions in the Arctic like the winter of the narrator&#39;s expedition?</b>","","","","1","arctic-comprehension","","","","","","","","","","","","","{""Q0"":""There were more storms than any other winter in recorded history.""}","","","",""
"survey-multi-choice","68","1887963","0.0-7.0-2.0-3.0-0.4","43e50e9a3e3c28344370af941468251d2b671d4e81b50ecdfca45aeaa8ba8a1c","swim","swim","6818","","<b>How did the narrator&#39;s neighbour respond when she told him about her expedition?</b>","","","","1","arctic-comprehension","","","","","","","","","","","","","{""Q0"":""He said she was going to fail.""}","","","",""
"survey-multi-choice","69","1895691","0.0-7.0-2.0-3.0-0.5","43e50e9a3e3c28344370af941468251d2b671d4e81b50ecdfca45aeaa8ba8a1c","swim","swim","7474","","<b>How did the dogs respond when they saw the bears?</b>","","","","1","arctic-comprehension","","","","","","","","","","","","","{""Q0"":""Approached them""}","","","",""
"survey-multi-choice","70","1900739","0.0-7.0-2.0-3.0-0.6","43e50e9a3e3c28344370af941468251d2b671d4e81b50ecdfca45aeaa8ba8a1c","swim","swim","4794","","<b>What is the name of the narrator&#39;s neighbour?</b>","","","","1","arctic-comprehension","","","","","","","","","","","","","{""Q0"":""Dave""}","","","",""
"survey-multi-choice","71","1906139","0.0-7.0-2.0-3.0-0.7","43e50e9a3e3c28344370af941468251d2b671d4e81b50ecdfca45aeaa8ba8a1c","swim","swim","5143","","<b>How did the narrator&#39;s encounter with the polar bears end?</b>","","","","1","arctic-comprehension","","","","","","","","","","","","","{""Q0"":""The bears walked back to their den.""}","","","",""
"survey-multi-choice","72","1910267","0.0-7.0-2.0-3.0-0.8","43e50e9a3e3c28344370af941468251d2b671d4e81b50ecdfca45aeaa8ba8a1c","swim","swim","3872","","<b>How many sponsorships did the narrator receive to support her expedition?</b>","","","","1","arctic-comprehension","","","","","","","","","","","","","{""Q0"":""None""}","","","",""
"survey-multi-choice","73","1916446","0.0-7.0-2.0-3.0-0.9","43e50e9a3e3c28344370af941468251d2b671d4e81b50ecdfca45aeaa8ba8a1c","swim","swim","5926","","<b>What did the narrator do for leisure while in her tent?</b>","","","","1","arctic-comprehension","","","","","","","","","","","","","{""Q0"":""Read""}","","","",""
"html-button-response","74","1917707","0.0-7.0-2.0-4.0","43e50e9a3e3c28344370af941468251d2b671d4e81b50ecdfca45aeaa8ba8a1c","swim","swim","1008","","<p>Thank you for your responses.</p><p>You will now answer some questions about your impressions of the story.</p>","0","","","","","","","","","","","","","","","","","","","","",""
"html-button-response","75","1919363","0.0-7.0-2.0-5.0-0.0","43e50e9a3e3c28344370af941468251d2b671d4e81b50ecdfca45aeaa8ba8a1c","swim","swim","1655","","EE3","5","","","","arctic-engagement","","","","","","","","","","","","","","6","emo-engage","",""
"html-button-response","76","1920563","0.0-7.0-2.0-5.0-0.1","43e50e9a3e3c28344370af941468251d2b671d4e81b50ecdfca45aeaa8ba8a1c","swim","swim","947","","A3","6","","","","arctic-engagement","","","","","","","","","","","","","","7","absorption","",""
"html-button-response","77","1921891","0.0-7.0-2.0-5.0-0.2","43e50e9a3e3c28344370af941468251d2b671d4e81b50ecdfca45aeaa8ba8a1c","swim","swim","1076","","E6","6","","","","arctic-engagement","","","","","","","","","","","","","","7","enjoyment","",""
"html-button-response","78","1924587","0.0-7.0-2.0-5.0-0.3","43e50e9a3e3c28344370af941468251d2b671d4e81b50ecdfca45aeaa8ba8a1c","swim","swim","2444","","A4","6","","","","arctic-engagement","","","","","","","","","","","","","","7","absorption","",""
"html-button-response","79","1926259","0.0-7.0-2.0-5.0-0.4","43e50e9a3e3c28344370af941468251d2b671d4e81b50ecdfca45aeaa8ba8a1c","swim","swim","1418","","EE2","5","","","","arctic-engagement","","","","","","","","","","","","","","6","emo-engage","",""
"html-button-response","80","1927643","0.0-7.0-2.0-5.0-0.5","43e50e9a3e3c28344370af941468251d2b671d4e81b50ecdfca45aeaa8ba8a1c","swim","swim","1133","","E10","6","","","","arctic-engagement","","","","","","","","","","","","","","7","enjoyment","",""
"html-button-response","81","1929331","0.0-7.0-2.0-5.0-0.6","43e50e9a3e3c28344370af941468251d2b671d4e81b50ecdfca45aeaa8ba8a1c","swim","swim","1436","","E7","6","","","","arctic-engagement","","","","","","","","","","","","","","7","enjoyment","",""
"html-button-response","82","1931547","0.0-7.0-2.0-5.0-0.7","43e50e9a3e3c28344370af941468251d2b671d4e81b50ecdfca45aeaa8ba8a1c","swim","swim","1962","","MS2","6","","","","arctic-engagement","","","","","","","","","","","","","","7","mental-sim","",""
"html-button-response","83","1933483","0.0-7.0-2.0-5.0-0.8","43e50e9a3e3c28344370af941468251d2b671d4e81b50ecdfca45aeaa8ba8a1c","swim","swim","1684","","EE4","5","","","","arctic-engagement","","","","","","","","","","","","","","6","emo-engage","",""
"html-button-response","84","1936979","0.0-7.0-2.0-5.0-0.9","43e50e9a3e3c28344370af941468251d2b671d4e81b50ecdfca45aeaa8ba8a1c","swim","swim","3243","","MS1","5","","","","arctic-engagement","","","","","","","","","","","","","","6","mental-sim","",""
"html-button-response","85","1939267","0.0-7.0-2.0-5.0-0.10","43e50e9a3e3c28344370af941468251d2b671d4e81b50ecdfca45aeaa8ba8a1c","swim","swim","2035","","EE5","6","","","","arctic-engagement","","","","","","","","","","","","","","7","emo-engage","",""
"html-button-response","86","1940355","0.0-7.0-2.0-5.0-0.11","43e50e9a3e3c28344370af941468251d2b671d4e81b50ecdfca45aeaa8ba8a1c","swim","swim","836","","E8","6","","","","arctic-engagement","","","","","","","","","","","","","","7","enjoyment","",""
"html-button-response","87","1943275","0.0-7.0-2.0-5.0-0.12","43e50e9a3e3c28344370af941468251d2b671d4e81b50ecdfca45aeaa8ba8a1c","swim","swim","2662","","EE1","6","","","","arctic-engagement","","","","","","","","","","","","","","7","emo-engage","",""
"html-button-response","88","1946203","0.0-7.0-2.0-5.0-0.13","43e50e9a3e3c28344370af941468251d2b671d4e81b50ecdfca45aeaa8ba8a1c","swim","swim","2676","","MS3","5","","","","arctic-engagement","","","","","","","","","","","","","","6","mental-sim","",""
"html-button-response","89","1949659","0.0-7.0-2.0-5.0-0.14","43e50e9a3e3c28344370af941468251d2b671d4e81b50ecdfca45aeaa8ba8a1c","swim","swim","3195","","A5","6","","","","arctic-engagement","","","","","","","","","","","","","","7","absorption","",""
"html-button-response","90","1951843","0.0-7.0-2.0-5.0-0.15","43e50e9a3e3c28344370af941468251d2b671d4e81b50ecdfca45aeaa8ba8a1c","swim","swim","1932","","A2","6","","","","arctic-engagement","","","","","","","","","","","","","","7","absorption","",""
"html-button-response","91","1954107","0.0-7.0-2.0-5.0-0.16","43e50e9a3e3c28344370af941468251d2b671d4e81b50ecdfca45aeaa8ba8a1c","swim","swim","2011","","A1","6","","","","arctic-engagement","","","","","","","","","","","","","","7","absorption","",""
"html-button-response","92","1955795","0.0-7.0-2.0-5.0-0.17","43e50e9a3e3c28344370af941468251d2b671d4e81b50ecdfca45aeaa8ba8a1c","swim","swim","1436","","E1","6","","","","arctic-engagement","","","","","","","","","","","","","","7","enjoyment","",""
"html-button-response","93","1957362","0.0-8.0","43e50e9a3e3c28344370af941468251d2b671d4e81b50ecdfca45aeaa8ba8a1c","swim","swim","1316","","<p>Thank you for your responses.</p><p>You will now answer some demographic, hearing, and general health questions.</p>","0","","","","","","","","","","","","","","","","","","","","",""
"survey-multi-choice","94","1959282","0.0-9.0-0.0","43e50e9a3e3c28344370af941468251d2b671d4e81b50ecdfca45aeaa8ba8a1c","swim","swim","1918","","","","","","","survey","","","","","","","","","","","","","{""Q0"":""Chrome""}","","","browser",""
"survey-text","95","1961827","0.0-9.0-1.0","43e50e9a3e3c28344370af941468251d2b671d4e81b50ecdfca45aeaa8ba8a1c","swim","swim","2287.100000143051","","","","","","","survey","","","","","","","","","","","","","{""AGE"":""26""}","","","age","26"
"survey-multi-choice","96","1963458","0.0-9.0-2.0","43e50e9a3e3c28344370af941468251d2b671d4e81b50ecdfca45aeaa8ba8a1c","swim","swim","1378","","","","","","","survey","","","","","","","","","","","","","{""Q0"":""Male""}","","","gender","Male"
"survey-multi-choice","97","1965531","0.0-9.0-4.0","43e50e9a3e3c28344370af941468251d2b671d4e81b50ecdfca45aeaa8ba8a1c","swim","swim","1817","","","","","","","survey","","","","","","","","","","","","","{""Q0"":""Right""}","","","handedness","Right"
"survey-multi-choice","98","1967499","0.0-9.0-5.0","43e50e9a3e3c28344370af941468251d2b671d4e81b50ecdfca45aeaa8ba8a1c","swim","swim","1711","","","","","","","survey","","","","","","","","","","","","","{""Q0"":""Bachelor's Degree""}","","","education","Bachelor's Degree"
"survey-text","99","1973298","0.0-10.0-0.0","43e50e9a3e3c28344370af941468251d2b671d4e81b50ecdfca45aeaa8ba8a1c","swim","swim","5544.700000047684","","","","","","","survey","","","","","","","","","","","","","{""L1"":""English""}","","","first-language","English"
"survey-text","100","1979363","0.0-10.0-1.0","43e50e9a3e3c28344370af941468251d2b671d4e81b50ecdfca45aeaa8ba8a1c","swim","swim","5797.099999904633","","","","","","","survey","","","","","","","","","","","","","{""L2name"":"""",""L2fluency"":"""",""L3name"":"""",""L3fluency"":"""",""L4name"":"""",""L4fluency"":""""}","","","additional-languages","{""L2name"":"""",""L2fluency"":"""",""L3name"":"""",""L3fluency"":"""",""L4name"":"""",""L4fluency"":""""}"
"survey-multi-choice","101","1981747","0.0-10.0-2.0","43e50e9a3e3c28344370af941468251d2b671d4e81b50ecdfca45aeaa8ba8a1c","swim","swim","2130","","","","","","","survey","","","","","","","","","","","","","{""Q0"":""No""}","","","hearing-aid","No"
"survey-multi-choice","102","1984747","0.0-10.0-3.0","43e50e9a3e3c28344370af941468251d2b671d4e81b50ecdfca45aeaa8ba8a1c","swim","swim","2746","","","","","","","survey","","","","","","","","","","","","","{""Q0"":""Sometimes""}","","","ringing-ears","Sometimes"
"survey-multi-choice","103","1988274","0.0-10.0-4.0-0.0","43e50e9a3e3c28344370af941468251d2b671d4e81b50ecdfca45aeaa8ba8a1c","swim","swim","3273","","","","","","","survey","","","","","","","","","","","","","{""Q0"":""Left Ear""}","","","ringing-ear-loc","Left Ear"
"survey-multi-choice","104","1990562","0.0-10.0-5.0","43e50e9a3e3c28344370af941468251d2b671d4e81b50ecdfca45aeaa8ba8a1c","swim","swim","2035","","","","","","","survey","","","","","","","","","","","","","{""Q0"":""No""}","","","neuro-disease","No"
"survey-multi-choice","105","1993290","0.0-10.0-7.0","43e50e9a3e3c28344370af941468251d2b671d4e81b50ecdfca45aeaa8ba8a1c","swim","swim","2475","","","","","","","survey","","","","","","","","","","","","","{""Q0"":""No""}","","","take-meds","No"
"survey-text","106","1996755","0.0-10.0-9.0","43e50e9a3e3c28344370af941468251d2b671d4e81b50ecdfca45aeaa8ba8a1c","swim","swim","3194.399999856949","","","","","","","survey","","","","","","","","","","","","","{""HC"":""""}","","","health-concerns",""
"html-button-response","107","1999795","0.0-11.0-0.0","43e50e9a3e3c28344370af941468251d2b671d4e81b50ecdfca45aeaa8ba8a1c","swim","swim","2777","","<p>How would you describe your musical skills/experiences?</p>","3","","","","survey","","","","","","","","","","","","","","","","music-skill","4"
"survey-multi-choice","108","2002818","0.0-11.0-1.0","43e50e9a3e3c28344370af941468251d2b671d4e81b50ecdfca45aeaa8ba8a1c","swim","swim","2770","","","","","","","survey","","","","","","","","","","","","","{""Q0"":""Yes""}","","","music-instrument","Yes"
"survey-text","109","2005403","0.0-11.0-2.0-0.0","43e50e9a3e3c28344370af941468251d2b671d4e81b50ecdfca45aeaa8ba8a1c","swim","swim","2328.0999999046326","","","","","","","survey","","","","","","","","","","","","","{""MEXP"":""5""}","","","music-training-yrs","5"
"html-button-response","110","2007883","0.0-12.0-0.0","43e50e9a3e3c28344370af941468251d2b671d4e81b50ecdfca45aeaa8ba8a1c","swim","swim","2228","","<p>How would you describe your general hearing abilities?</p>","4","","","","survey","","","","","","","","","","","","","","","","ssq-01","5"
"html-button-response","111","2011731","0.0-12.0-1.0","43e50e9a3e3c28344370af941468251d2b671d4e81b50ecdfca45aeaa8ba8a1c","swim","swim","3596","","<p>When you talk with someone at a place that strongly reverberates/echoes (e.g., in a church or train station),</br>can you understand what the person says?</p>","9","","","","survey","","","","","","","","","","","","","","","","ssq-02","9"
"html-button-response","112","2014411","0.0-12.0-2.0","43e50e9a3e3c28344370af941468251d2b671d4e81b50ecdfca45aeaa8ba8a1c","swim","swim","2426","","<p>When you are with a group (~5 people) in a lively restaurant, can you follow the group's conversation?</p>","9","","","","survey","","","","","","","","","","","","","","","","ssq-03","9"
"html-button-response","113","2017371","0.0-12.0-3.0","43e50e9a3e3c28344370af941468251d2b671d4e81b50ecdfca45aeaa8ba8a1c","swim","swim","2708","","<p>Based on the sound of a bus or truck, can you tell whether it is moving towards or away from you?</p>","9","","","","survey","","","","","","","","","","","","","","","","ssq-04","9"
"html-button-response","114","2019507","0.0-12.0-4.0","43e50e9a3e3c28344370af941468251d2b671d4e81b50ecdfca45aeaa8ba8a1c","swim","swim","1884","","<p>When you are in an unknown environment, can you tell from which direction a brief sound originates?</p>","9","","","","survey","","","","","","","","","","","","","","","","ssq-05","9"
"html-button-response","115","2023291","0.0-12.0-5.0","43e50e9a3e3c28344370af941468251d2b671d4e81b50ecdfca45aeaa8ba8a1c","swim","swim","3531","","<p>Are you able to ignore distracting sounds when you concentrate on a specific aspect of your acoustic surrounding?</p>","8","","","","survey","","","","","","","","","","","","","","","","ssq-06","8"
"fullscreen","116","2024545","0.0-13.0","43e50e9a3e3c28344370af941468251d2b671d4e81b50ecdfca45aeaa8ba8a1c","swim","swim","","","","","","","","","true","","","","","","","","","","","","","","","",""
