"trial_type","trial_index","time_elapsed","internal_node_id","ParticipantID","firstStory","scramStory","rt","url","stimulus","button_pressed","key_press","correctRESP","correct","designation","success","letterStim","letterType","ONSET","TIMEOUT","CONDITION","Participant","ONSET_ACTUAL","RT","RESP","ACC","STORY","responses","response","type","surveyQuestion","QRESP"
"pavlovia","0","2","0.0-0.0","92823c5b4ce42d5bd22896711c458e2a70806549a167c7109d72cce8435739ce","arctic","swim","","","","","","","","","","","","","","","","","","","","","","","","",""
"external-html","1","13599","0.0-1.0","92823c5b4ce42d5bd22896711c458e2a70806549a167c7109d72cce8435739ce","arctic","swim","13460","consent/consent_updated.html","","","","","","","","","","","","","","","","","","","","","","",""
"html-button-response","2","23135","0.0-2.0-0.0","92823c5b4ce42d5bd22896711c458e2a70806549a167c7109d72cce8435739ce","arctic","swim","9535","","<p>Before we begin the main task, you will complete a short volume calibration and headphone check.</p><p>Please make sure you are in a quiet listening environment, that you are wearing headphones, and that your computer's volume is turned on.<p></p>","0","","","","","","","","","","","","","","","","","","","","",""
"html-button-response","3","27640","0.0-2.0-1.0","92823c5b4ce42d5bd22896711c458e2a70806549a167c7109d72cce8435739ce","arctic","swim","4254","","<p>The volume calibration will be first.</p><p>You will hear a thirty-second noise. Please adjust your computer's volume so that this noise is being presented at a comfortable level.<p></p>","0","","","","","","","","","","","","","","","","","","","","",""
"audio-button-response","4","32514","0.0-2.0-2.0","92823c5b4ce42d5bd22896711c458e2a70806549a167c7109d72cce8435739ce","arctic","swim","4620","","audio/volumetest.mp3","0","","","","","","","","","","","","","","","","","","","","",""
"html-keyboard-response","5","59452","0.0-3.0-0.0","92823c5b4ce42d5bd22896711c458e2a70806549a167c7109d72cce8435739ce","arctic","swim","26937","","<p>You will now complete a short headphone check.</p><p>On each trial, you will hear three tones. One of these tones will be quieter than the others. Your task is to identify whether the quiet tone occurred first, second, or third.</p><p>There are six trials in total.<p></p><p></p>(Press SPACEBAR to begin)","","32","","","","","","","","","","","","","","","","","","","",""
"html-keyboard-response","6","60216","0.0-3.0-1.0-0.0","92823c5b4ce42d5bd22896711c458e2a70806549a167c7109d72cce8435739ce","arctic","swim","null","","<div style=""font-size:60px;"">+</div>","","null","","","","","","","","","","","","","","","","","","","",""
"audio-button-response","7","64317","0.0-3.0-1.0-1.0","92823c5b4ce42d5bd22896711c458e2a70806549a167c7109d72cce8435739ce","arctic","swim","4100","","audio/t3_1.mp3","2","","2","1","headphone-test","","","","","","","","","","","","","","","","",""
"html-keyboard-response","8","64819","0.0-3.0-1.0-2.0","92823c5b4ce42d5bd22896711c458e2a70806549a167c7109d72cce8435739ce","arctic","swim","null","","<p>Correct</p>","","null","","","","","","","","","","","","","","","","","","","",""
"html-keyboard-response","9","65321","0.0-3.0-1.0-0.1","92823c5b4ce42d5bd22896711c458e2a70806549a167c7109d72cce8435739ce","arctic","swim","null","","<div style=""font-size:60px;"">+</div>","","null","","","","","","","","","","","","","","","","","","","",""
"audio-button-response","10","70053","0.0-3.0-1.0-1.1","92823c5b4ce42d5bd22896711c458e2a70806549a167c7109d72cce8435739ce","arctic","swim","4730","","audio/t1_1.mp3","0","","0","1","headphone-test","","","","","","","","","","","","","","","","",""
"html-keyboard-response","11","70554","0.0-3.0-1.0-2.1","92823c5b4ce42d5bd22896711c458e2a70806549a167c7109d72cce8435739ce","arctic","swim","null","","<p>Correct</p>","","null","","","","","","","","","","","","","","","","","","","",""
"html-keyboard-response","12","71056","0.0-3.0-1.0-0.2","92823c5b4ce42d5bd22896711c458e2a70806549a167c7109d72cce8435739ce","arctic","swim","null","","<div style=""font-size:60px;"">+</div>","","null","","","","","","","","","","","","","","","","","","","",""
"audio-button-response","13","74942","0.0-3.0-1.0-1.2","92823c5b4ce42d5bd22896711c458e2a70806549a167c7109d72cce8435739ce","arctic","swim","3885","","audio/t3_2.mp3","2","","2","1","headphone-test","","","","","","","","","","","","","","","","",""
"html-keyboard-response","14","75444","0.0-3.0-1.0-2.2","92823c5b4ce42d5bd22896711c458e2a70806549a167c7109d72cce8435739ce","arctic","swim","null","","<p>Correct</p>","","null","","","","","","","","","","","","","","","","","","","",""
"html-keyboard-response","15","75959","0.0-3.0-1.0-0.3","92823c5b4ce42d5bd22896711c458e2a70806549a167c7109d72cce8435739ce","arctic","swim","null","","<div style=""font-size:60px;"">+</div>","","null","","","","","","","","","","","","","","","","","","","",""
"audio-button-response","16","79850","0.0-3.0-1.0-1.3","92823c5b4ce42d5bd22896711c458e2a70806549a167c7109d72cce8435739ce","arctic","swim","3889","","audio/t1_2.mp3","0","","0","1","headphone-test","","","","","","","","","","","","","","","","",""
"html-keyboard-response","17","80352","0.0-3.0-1.0-2.3","92823c5b4ce42d5bd22896711c458e2a70806549a167c7109d72cce8435739ce","arctic","swim","null","","<p>Correct</p>","","null","","","","","","","","","","","","","","","","","","","",""
"html-keyboard-response","18","80853","0.0-3.0-1.0-0.4","92823c5b4ce42d5bd22896711c458e2a70806549a167c7109d72cce8435739ce","arctic","swim","null","","<div style=""font-size:60px;"">+</div>","","null","","","","","","","","","","","","","","","","","","","",""
"audio-button-response","19","84701","0.0-3.0-1.0-1.4","92823c5b4ce42d5bd22896711c458e2a70806549a167c7109d72cce8435739ce","arctic","swim","3847","","audio/t2_2.mp3","1","","1","1","headphone-test","","","","","","","","","","","","","","","","",""
"html-keyboard-response","20","85203","0.0-3.0-1.0-2.4","92823c5b4ce42d5bd22896711c458e2a70806549a167c7109d72cce8435739ce","arctic","swim","null","","<p>Correct</p>","","null","","","","","","","","","","","","","","","","","","","",""
"html-keyboard-response","21","85705","0.0-3.0-1.0-0.5","92823c5b4ce42d5bd22896711c458e2a70806549a167c7109d72cce8435739ce","arctic","swim","null","","<div style=""font-size:60px;"">+</div>","","null","","","","","","","","","","","","","","","","","","","",""
"audio-button-response","22","89747","0.0-3.0-1.0-1.5","92823c5b4ce42d5bd22896711c458e2a70806549a167c7109d72cce8435739ce","arctic","swim","4039","","audio/t2_1.mp3","1","","1","1","headphone-test","","","","","","","","","","","","","","","","",""
"html-keyboard-response","23","90247","0.0-3.0-1.0-2.5","92823c5b4ce42d5bd22896711c458e2a70806549a167c7109d72cce8435739ce","arctic","swim","null","","<p>Correct</p>","","null","","","","","","","","","","","","","","","","","","","",""
"fullscreen","24","109107","0.0-4.0","92823c5b4ce42d5bd22896711c458e2a70806549a167c7109d72cce8435739ce","arctic","swim","","","","","","","","","true","","","","","","","","","","","","","","","",""
"html-button-response","25","123154","0.0-5.0-0.0","92823c5b4ce42d5bd22896711c458e2a70806549a167c7109d72cce8435739ce","arctic","swim","14047","","<p>There are two blocks to this experiment.</p><p>In each block, you will hear a ~13.5 minute story. One of the stories will be scrambled. Please listen carefully to both stories and understand them as best you can.</p><p>After each story, you will be asked some questions to assess your comprehension.</p>","0","","","","","","","","","","","","","","","","","","","","",""
"html-button-response","26","171177","0.0-5.0-1.0","92823c5b4ce42d5bd22896711c458e2a70806549a167c7109d72cce8435739ce","arctic","swim","48023","","<p>During each story, there will be an additional task.</p><p>A letter will occasionally appear on the screen.</br>Your job is to - as quickly as you can - decide whether the letter is lowercase or uppercase and press one of two keys on the keyboard:</p><p>If the letter is <b>lowercase</b>, press key &lt;<b>x</b>&gt;.</p><p>If the letter is <b>uppercase</b>, press key &lt;<b>m</b>&gt;.</p>","0","","","","","","","","","","","","","","","","","","","","",""
"html-keyboard-response","27","186401","0.0-5.0-2.0","92823c5b4ce42d5bd22896711c458e2a70806549a167c7109d72cce8435739ce","arctic","swim","15224","","<p>Because we want your responses to be as quick as possible, please keep your index fingers over the keys while listening.</p><p>Each block lasts about 20 minutes.</p><p><b>Press &lt;x&gt; or &lt;m&gt; to start the first block!</b></p>","","77","","","","","","","","","","","","","","","","","","","",""
"html-keyboard-response","28","186903","0.0-6.0-0.0-0.0","92823c5b4ce42d5bd22896711c458e2a70806549a167c7109d72cce8435739ce","arctic","swim","null","","<div style=""font-size:60px;"" tabindex=""0"">+</div>","","null","","","","","","","","","","","","","","","","","","","",""
"dual-task","null","null","null","","arctic","swim","1759.699999999255","","g","null","88","88","1","arctic-dual-task","","g","lowercase","18000","0","5","92823c5b4ce42d5bd22896711c458e2a70806549a167c7109d72cce8435739ce","18002.800000000745","1759.699999999255","88","1","arctic","","","","",""
"dual-task","null","null","null","","arctic","swim","814.1000000014901","","q","null","88","88","1","arctic-dual-task","","q","lowercase","32000","0","5","92823c5b4ce42d5bd22896711c458e2a70806549a167c7109d72cce8435739ce","32004.5","814.1000000014901","88","1","arctic","","","","",""
"dual-task","null","null","null","","arctic","swim","694","","A","null","77","77","1","arctic-dual-task","","A","uppercase","42000","0","5","92823c5b4ce42d5bd22896711c458e2a70806549a167c7109d72cce8435739ce","42007.199999999255","694","77","1","arctic","","","","",""
"dual-task","null","null","null","","arctic","swim","814","","H","null","77","77","1","arctic-dual-task","","H","uppercase","56000","0","5","92823c5b4ce42d5bd22896711c458e2a70806549a167c7109d72cce8435739ce","56007.699999999255","814","77","1","arctic","","","","",""
"dual-task","null","null","null","","arctic","swim","715.5999999977648","","Q","null","77","77","1","arctic-dual-task","","Q","uppercase","68000","0","5","92823c5b4ce42d5bd22896711c458e2a70806549a167c7109d72cce8435739ce","68006.10000000149","715.5999999977648","77","1","arctic","","","","",""
"dual-task","null","null","null","","arctic","swim","994.1000000014901","","G","null","77","77","1","arctic-dual-task","","G","uppercase","82000","0","5","92823c5b4ce42d5bd22896711c458e2a70806549a167c7109d72cce8435739ce","81998.60000000149","994.1000000014901","77","1","arctic","","","","",""
"dual-task","null","null","null","","arctic","swim","877.7000000029802","","D","null","77","77","1","arctic-dual-task","","D","uppercase","88000","0","5","92823c5b4ce42d5bd22896711c458e2a70806549a167c7109d72cce8435739ce","88000.80000000075","877.7000000029802","77","1","arctic","","","","",""
"dual-task","null","null","null","","arctic","swim","804.9000000022352","","N","null","77","77","1","arctic-dual-task","","N","uppercase","100000","0","5","92823c5b4ce42d5bd22896711c458e2a70806549a167c7109d72cce8435739ce","100000.5","804.9000000022352","77","1","arctic","","","","",""
"dual-task","null","null","null","","arctic","swim","783.9000000022352","","h","null","88","88","1","arctic-dual-task","","h","lowercase","108000","0","5","92823c5b4ce42d5bd22896711c458e2a70806549a167c7109d72cce8435739ce","108003.5","783.9000000022352","88","1","arctic","","","","",""
"dual-task","null","null","null","","arctic","swim","746.8000000007451","","E","null","77","77","1","arctic-dual-task","","E","uppercase","116000","0","5","92823c5b4ce42d5bd22896711c458e2a70806549a167c7109d72cce8435739ce","116009.5","746.8000000007451","77","1","arctic","","","","",""
"dual-task","null","null","null","","arctic","swim","575.6999999992549","","H","null","77","77","1","arctic-dual-task","","H","uppercase","124000","0","5","92823c5b4ce42d5bd22896711c458e2a70806549a167c7109d72cce8435739ce","124011.39999999851","575.6999999992549","77","1","arctic","","","","",""
"dual-task","null","null","null","","arctic","swim","813","","t","null","88","88","1","arctic-dual-task","","t","lowercase","134000","0","5","92823c5b4ce42d5bd22896711c458e2a70806549a167c7109d72cce8435739ce","134000.1000000015","813","88","1","arctic","","","","",""
"dual-task","null","null","null","","arctic","swim","694.3999999985099","","G","null","77","77","1","arctic-dual-task","","G","uppercase","144000","0","5","92823c5b4ce42d5bd22896711c458e2a70806549a167c7109d72cce8435739ce","144005.69999999925","694.3999999985099","77","1","arctic","","","","",""
"dual-task","null","null","null","","arctic","swim","1089.300000000745","","r","null","88","88","1","arctic-dual-task","","r","lowercase","150000","0","5","92823c5b4ce42d5bd22896711c458e2a70806549a167c7109d72cce8435739ce","150013","1089.300000000745","88","1","arctic","","","","",""
"dual-task","null","null","null","","arctic","swim","798.6999999992549","","d","null","88","88","1","arctic-dual-task","","d","lowercase","160000","0","5","92823c5b4ce42d5bd22896711c458e2a70806549a167c7109d72cce8435739ce","160003.5","798.6999999992549","88","1","arctic","","","","",""
"dual-task","null","null","null","","arctic","swim","619.3000000007451","","R","null","77","77","1","arctic-dual-task","","R","uppercase","170000","0","5","92823c5b4ce42d5bd22896711c458e2a70806549a167c7109d72cce8435739ce","170011.69999999925","619.3000000007451","77","1","arctic","","","","",""
"dual-task","null","null","null","","arctic","swim","650.2999999970198","","d","null","88","88","1","arctic-dual-task","","d","lowercase","176000","0","5","92823c5b4ce42d5bd22896711c458e2a70806549a167c7109d72cce8435739ce","175999.8999999985","650.2999999970198","88","1","arctic","","","","",""
"dual-task","null","null","null","","arctic","swim","922.9000000022352","","e","null","88","88","1","arctic-dual-task","","e","lowercase","188000","0","5","92823c5b4ce42d5bd22896711c458e2a70806549a167c7109d72cce8435739ce","188008.6000000015","922.9000000022352","88","1","arctic","","","","",""
"dual-task","null","null","null","","arctic","swim","700.1999999992549","","b","null","88","88","1","arctic-dual-task","","b","lowercase","194000","0","5","92823c5b4ce42d5bd22896711c458e2a70806549a167c7109d72cce8435739ce","194008.1000000015","700.1999999992549","88","1","arctic","","","","",""
"dual-task","null","null","null","","arctic","swim","646.8999999985099","","d","null","88","88","1","arctic-dual-task","","d","lowercase","204000","0","5","92823c5b4ce42d5bd22896711c458e2a70806549a167c7109d72cce8435739ce","204000.19999999925","646.8999999985099","88","1","arctic","","","","",""
"dual-task","null","null","null","","arctic","swim","659.3000000007451","","h","null","88","88","1","arctic-dual-task","","h","lowercase","214000","0","5","92823c5b4ce42d5bd22896711c458e2a70806549a167c7109d72cce8435739ce","214004.3999999985","659.3000000007451","88","1","arctic","","","","",""
"dual-task","null","null","null","","arctic","swim","610.2999999970198","","f","null","88","88","1","arctic-dual-task","","f","lowercase","224000","0","5","92823c5b4ce42d5bd22896711c458e2a70806549a167c7109d72cce8435739ce","223999.8999999985","610.2999999970198","88","1","arctic","","","","",""
"dual-task","null","null","null","","arctic","swim","650.4000000022352","","A","null","77","77","1","arctic-dual-task","","A","uppercase","230000","0","5","92823c5b4ce42d5bd22896711c458e2a70806549a167c7109d72cce8435739ce","230014.1000000015","650.4000000022352","77","1","arctic","","","","",""
"dual-task","null","null","null","","arctic","swim","640.6999999992549","","t","null","88","88","1","arctic-dual-task","","t","lowercase","244000","0","5","92823c5b4ce42d5bd22896711c458e2a70806549a167c7109d72cce8435739ce","244004.30000000075","640.6999999992549","88","1","arctic","","","","",""
"dual-task","null","null","null","","arctic","swim","620.9000000022352","","Q","null","77","77","1","arctic-dual-task","","Q","uppercase","258000","0","5","92823c5b4ce42d5bd22896711c458e2a70806549a167c7109d72cce8435739ce","258012.1000000015","620.9000000022352","77","1","arctic","","","","",""
"dual-task","null","null","null","","arctic","swim","653.5999999977648","","a","null","88","88","1","arctic-dual-task","","a","lowercase","266000","0","5","92823c5b4ce42d5bd22896711c458e2a70806549a167c7109d72cce8435739ce","266010.69999999925","653.5999999977648","88","1","arctic","","","","",""
"dual-task","null","null","null","","arctic","swim","708.5999999977648","","F","null","77","77","1","arctic-dual-task","","F","uppercase","276000","0","5","92823c5b4ce42d5bd22896711c458e2a70806549a167c7109d72cce8435739ce","276004.8999999985","708.5999999977648","77","1","arctic","","","","",""
"dual-task","null","null","null","","arctic","swim","638","","R","null","77","77","1","arctic-dual-task","","R","uppercase","290000","0","5","92823c5b4ce42d5bd22896711c458e2a70806549a167c7109d72cce8435739ce","290007","638","77","1","arctic","","","","",""
"dual-task","null","null","null","","arctic","swim","652.5999999977648","","H","null","77","77","1","arctic-dual-task","","H","uppercase","298000","0","5","92823c5b4ce42d5bd22896711c458e2a70806549a167c7109d72cce8435739ce","298012.1000000015","652.5999999977648","77","1","arctic","","","","",""
"dual-task","null","null","null","","arctic","swim","528.1999999992549","","N","null","77","77","1","arctic-dual-task","","N","uppercase","306000","0","5","92823c5b4ce42d5bd22896711c458e2a70806549a167c7109d72cce8435739ce","306001.69999999925","528.1999999992549","77","1","arctic","","","","",""
"dual-task","null","null","null","","arctic","swim","629.6999999992549","","N","null","77","77","1","arctic-dual-task","","N","uppercase","316000","0","5","92823c5b4ce42d5bd22896711c458e2a70806549a167c7109d72cce8435739ce","316007","629.6999999992549","77","1","arctic","","","","",""
"dual-task","null","null","null","","arctic","swim","781.6000000014901","","f","null","88","88","1","arctic-dual-task","","f","lowercase","328000","0","5","92823c5b4ce42d5bd22896711c458e2a70806549a167c7109d72cce8435739ce","328005.19999999925","781.6000000014901","88","1","arctic","","","","",""
"dual-task","null","null","null","","arctic","swim","704.2999999970198","","n","null","88","88","1","arctic-dual-task","","n","lowercase","342000","0","5","92823c5b4ce42d5bd22896711c458e2a70806549a167c7109d72cce8435739ce","342008","704.2999999970198","88","1","arctic","","","","",""
"dual-task","null","null","null","","arctic","swim","714.1999999992549","","b","null","88","88","1","arctic-dual-task","","b","lowercase","354000","0","5","92823c5b4ce42d5bd22896711c458e2a70806549a167c7109d72cce8435739ce","354002.5","714.1999999992549","88","1","arctic","","","","",""
"dual-task","null","null","null","","arctic","swim","705.5999999977648","","E","null","77","77","1","arctic-dual-task","","E","uppercase","364000","0","5","92823c5b4ce42d5bd22896711c458e2a70806549a167c7109d72cce8435739ce","363999","705.5999999977648","77","1","arctic","","","","",""
"dual-task","null","null","null","","arctic","swim","729.6999999992549","","H","null","77","77","1","arctic-dual-task","","H","uppercase","372000","0","5","92823c5b4ce42d5bd22896711c458e2a70806549a167c7109d72cce8435739ce","372012.69999999925","729.6999999992549","77","1","arctic","","","","",""
"dual-task","null","null","null","","arctic","swim","707.2000000029802","","q","null","88","88","1","arctic-dual-task","","q","lowercase","378000","0","5","92823c5b4ce42d5bd22896711c458e2a70806549a167c7109d72cce8435739ce","378012.69999999925","707.2000000029802","88","1","arctic","","","","",""
"dual-task","null","null","null","","arctic","swim","701","","t","null","88","88","1","arctic-dual-task","","t","lowercase","388000","0","5","92823c5b4ce42d5bd22896711c458e2a70806549a167c7109d72cce8435739ce","388012.69999999925","701","88","1","arctic","","","","",""
"dual-task","null","null","null","","arctic","swim","572.5999999977648","","a","null","88","88","1","arctic-dual-task","","a","lowercase","394000","0","5","92823c5b4ce42d5bd22896711c458e2a70806549a167c7109d72cce8435739ce","394013.69999999925","572.5999999977648","88","1","arctic","","","","",""
"dual-task","null","null","null","","arctic","swim","670.6000000014901","","t","null","88","88","1","arctic-dual-task","","t","lowercase","406000","0","5","92823c5b4ce42d5bd22896711c458e2a70806549a167c7109d72cce8435739ce","406006.3999999985","670.6000000014901","88","1","arctic","","","","",""
"dual-task","null","null","null","","arctic","swim","659.5","","b","null","88","88","1","arctic-dual-task","","b","lowercase","412000","0","5","92823c5b4ce42d5bd22896711c458e2a70806549a167c7109d72cce8435739ce","412007.1000000015","659.5","88","1","arctic","","","","",""
"dual-task","null","null","null","","arctic","swim","782.8999999985099","","T","null","77","77","1","arctic-dual-task","","T","uppercase","426000","0","5","92823c5b4ce42d5bd22896711c458e2a70806549a167c7109d72cce8435739ce","426011.30000000075","782.8999999985099","77","1","arctic","","","","",""
"dual-task","null","null","null","","arctic","swim","639.3000000007451","","B","null","77","77","1","arctic-dual-task","","B","uppercase","438000","0","5","92823c5b4ce42d5bd22896711c458e2a70806549a167c7109d72cce8435739ce","438004.69999999925","639.3000000007451","77","1","arctic","","","","",""
"dual-task","null","null","null","","arctic","swim","693.1000000014901","","G","null","77","77","1","arctic-dual-task","","G","uppercase","450000","0","5","92823c5b4ce42d5bd22896711c458e2a70806549a167c7109d72cce8435739ce","450002.3999999985","693.1000000014901","77","1","arctic","","","","",""
"dual-task","null","null","null","","arctic","swim","721.8000000007451","","R","null","77","77","1","arctic-dual-task","","R","uppercase","462000","0","5","92823c5b4ce42d5bd22896711c458e2a70806549a167c7109d72cce8435739ce","462008.69999999925","721.8000000007451","77","1","arctic","","","","",""
"dual-task","null","null","null","","arctic","swim","666.8999999985099","","a","null","88","88","1","arctic-dual-task","","a","lowercase","474000","0","5","92823c5b4ce42d5bd22896711c458e2a70806549a167c7109d72cce8435739ce","474010.1000000015","666.8999999985099","88","1","arctic","","","","",""
"dual-task","null","null","null","","arctic","swim","843.5","","F","null","77","77","1","arctic-dual-task","","F","uppercase","482000","0","5","92823c5b4ce42d5bd22896711c458e2a70806549a167c7109d72cce8435739ce","482007.19999999925","843.5","77","1","arctic","","","","",""
"dual-task","null","null","null","","arctic","swim","542.5999999977648","","N","null","77","77","1","arctic-dual-task","","N","uppercase","488000","0","5","92823c5b4ce42d5bd22896711c458e2a70806549a167c7109d72cce8435739ce","488009.80000000075","542.5999999977648","77","1","arctic","","","","",""
"dual-task","null","null","null","","arctic","swim","597.5","","n","null","88","88","1","arctic-dual-task","","n","lowercase","494000","0","5","92823c5b4ce42d5bd22896711c458e2a70806549a167c7109d72cce8435739ce","494011.6000000015","597.5","88","1","arctic","","","","",""
"dual-task","null","null","null","","arctic","swim","642.6000000014901","","f","null","88","88","1","arctic-dual-task","","f","lowercase","500000","0","5","92823c5b4ce42d5bd22896711c458e2a70806549a167c7109d72cce8435739ce","500011.3999999985","642.6000000014901","88","1","arctic","","","","",""
"dual-task","null","null","null","","arctic","swim","528.8999999985099","","B","null","77","77","1","arctic-dual-task","","B","uppercase","508000","0","5","92823c5b4ce42d5bd22896711c458e2a70806549a167c7109d72cce8435739ce","508012.19999999925","528.8999999985099","77","1","arctic","","","","",""
"dual-task","null","null","null","","arctic","swim","604.8999999985099","","B","null","77","77","1","arctic-dual-task","","B","uppercase","522000","0","5","92823c5b4ce42d5bd22896711c458e2a70806549a167c7109d72cce8435739ce","522008.5","604.8999999985099","77","1","arctic","","","","",""
"dual-task","null","null","null","","arctic","swim","635.6000000014901","","e","null","88","88","1","arctic-dual-task","","e","lowercase","534000","0","5","92823c5b4ce42d5bd22896711c458e2a70806549a167c7109d72cce8435739ce","534008.3000000007","635.6000000014901","88","1","arctic","","","","",""
"dual-task","null","null","null","","arctic","swim","618.3000000007451","","D","null","77","77","1","arctic-dual-task","","D","uppercase","546000","0","5","92823c5b4ce42d5bd22896711c458e2a70806549a167c7109d72cce8435739ce","546012.1999999993","618.3000000007451","77","1","arctic","","","","",""
"dual-task","null","null","null","","arctic","swim","785.8999999985099","","r","null","88","88","1","arctic-dual-task","","r","lowercase","560000","0","5","92823c5b4ce42d5bd22896711c458e2a70806549a167c7109d72cce8435739ce","560015.3999999985","785.8999999985099","88","1","arctic","","","","",""
"dual-task","null","null","null","","arctic","swim","672.8000000007451","","f","null","88","88","1","arctic-dual-task","","f","lowercase","574000","0","5","92823c5b4ce42d5bd22896711c458e2a70806549a167c7109d72cce8435739ce","574010.8000000007","672.8000000007451","88","1","arctic","","","","",""
"dual-task","null","null","null","","arctic","swim","599.3000000007451","","r","null","88","88","1","arctic-dual-task","","r","lowercase","588000","0","5","92823c5b4ce42d5bd22896711c458e2a70806549a167c7109d72cce8435739ce","588006.1999999993","599.3000000007451","88","1","arctic","","","","",""
"dual-task","null","null","null","","arctic","swim","623.6999999992549","","E","null","77","77","1","arctic-dual-task","","E","uppercase","602000","0","5","92823c5b4ce42d5bd22896711c458e2a70806549a167c7109d72cce8435739ce","602008.3000000007","623.6999999992549","77","1","arctic","","","","",""
"dual-task","null","null","null","","arctic","swim","606.3999999985099","","e","null","88","88","1","arctic-dual-task","","e","lowercase","610000","0","5","92823c5b4ce42d5bd22896711c458e2a70806549a167c7109d72cce8435739ce","610004.1000000015","606.3999999985099","88","1","arctic","","","","",""
"dual-task","null","null","null","","arctic","swim","716.3000000007451","","n","null","88","88","1","arctic-dual-task","","n","lowercase","620000","0","5","92823c5b4ce42d5bd22896711c458e2a70806549a167c7109d72cce8435739ce","620015.5","716.3000000007451","88","1","arctic","","","","",""
"dual-task","null","null","null","","arctic","swim","727.6000000014901","","b","null","88","88","1","arctic-dual-task","","b","lowercase","634000","0","5","92823c5b4ce42d5bd22896711c458e2a70806549a167c7109d72cce8435739ce","634010.3999999985","727.6000000014901","88","1","arctic","","","","",""
"dual-task","null","null","null","","arctic","swim","611.1999999992549","","B","null","77","77","1","arctic-dual-task","","B","uppercase","648000","0","5","92823c5b4ce42d5bd22896711c458e2a70806549a167c7109d72cce8435739ce","648008.1999999993","611.1999999992549","77","1","arctic","","","","",""
"dual-task","null","null","null","","arctic","swim","673.9000000022352","","g","null","88","88","1","arctic-dual-task","","g","lowercase","656000","0","5","92823c5b4ce42d5bd22896711c458e2a70806549a167c7109d72cce8435739ce","656009.6000000015","673.9000000022352","88","1","arctic","","","","",""
"dual-task","null","null","null","","arctic","swim","712.5","","R","null","77","77","1","arctic-dual-task","","R","uppercase","668000","0","5","92823c5b4ce42d5bd22896711c458e2a70806549a167c7109d72cce8435739ce","668009.8000000007","712.5","77","1","arctic","","","","",""
"dual-task","null","null","null","","arctic","swim","702.3999999985099","","h","null","88","88","1","arctic-dual-task","","h","lowercase","676000","0","5","92823c5b4ce42d5bd22896711c458e2a70806549a167c7109d72cce8435739ce","676005.8999999985","702.3999999985099","88","1","arctic","","","","",""
"dual-task","null","null","null","","arctic","swim","555.8000000007451","","T","null","77","77","1","arctic-dual-task","","T","uppercase","690000","0","5","92823c5b4ce42d5bd22896711c458e2a70806549a167c7109d72cce8435739ce","690011.3999999985","555.8000000007451","77","1","arctic","","","","",""
"dual-task","null","null","null","","arctic","swim","795.6000000014901","","A","null","77","77","1","arctic-dual-task","","A","uppercase","700000","0","5","92823c5b4ce42d5bd22896711c458e2a70806549a167c7109d72cce8435739ce","700015","795.6000000014901","77","1","arctic","","","","",""
"dual-task","null","null","null","","arctic","swim","607.8000000007451","","G","null","77","77","1","arctic-dual-task","","G","uppercase","708000","0","5","92823c5b4ce42d5bd22896711c458e2a70806549a167c7109d72cce8435739ce","708011.6000000015","607.8000000007451","77","1","arctic","","","","",""
"dual-task","null","null","null","","arctic","swim","666.3000000007451","","d","null","88","88","1","arctic-dual-task","","d","lowercase","720000","0","5","92823c5b4ce42d5bd22896711c458e2a70806549a167c7109d72cce8435739ce","720007.8000000007","666.3000000007451","88","1","arctic","","","","",""
"dual-task","null","null","null","","arctic","swim","892.8999999985099","","q","null","88","88","1","arctic-dual-task","","q","lowercase","726000","0","5","92823c5b4ce42d5bd22896711c458e2a70806549a167c7109d72cce8435739ce","726011.6000000015","892.8999999985099","88","1","arctic","","","","",""
"dual-task","null","null","null","","arctic","swim","880.8000000007451","","D","null","77","77","1","arctic-dual-task","","D","uppercase","736000","0","5","92823c5b4ce42d5bd22896711c458e2a70806549a167c7109d72cce8435739ce","736007.1999999993","880.8000000007451","77","1","arctic","","","","",""
"dual-task","null","null","null","","arctic","swim","612.6999999992549","","A","null","77","77","1","arctic-dual-task","","A","uppercase","746000","0","5","92823c5b4ce42d5bd22896711c458e2a70806549a167c7109d72cce8435739ce","746004.3999999985","612.6999999992549","77","1","arctic","","","","",""
"dual-task","null","null","null","","arctic","swim","605.1999999992549","","F","null","77","77","1","arctic-dual-task","","F","uppercase","758000","0","5","92823c5b4ce42d5bd22896711c458e2a70806549a167c7109d72cce8435739ce","758013.8999999985","605.1999999992549","77","1","arctic","","","","",""
"dual-task","null","null","null","","arctic","swim","682.0999999977648","","a","null","88","88","1","arctic-dual-task","","a","lowercase","764000","0","5","92823c5b4ce42d5bd22896711c458e2a70806549a167c7109d72cce8435739ce","764002.6999999993","682.0999999977648","88","1","arctic","","","","",""
"dual-task","null","null","null","","arctic","swim","637.8999999985099","","Q","null","77","77","1","arctic-dual-task","","Q","uppercase","774000","0","5","92823c5b4ce42d5bd22896711c458e2a70806549a167c7109d72cce8435739ce","774004.1999999993","637.8999999985099","77","1","arctic","","","","",""
"dual-task","null","null","null","","arctic","swim","667.6000000014901","","q","null","88","88","1","arctic-dual-task","","q","lowercase","786000","0","5","92823c5b4ce42d5bd22896711c458e2a70806549a167c7109d72cce8435739ce","786006.6999999993","667.6000000014901","88","1","arctic","","","","",""
"audio-keyboard-response","29","984990","0.0-6.0-0.0-1.0","92823c5b4ce42d5bd22896711c458e2a70806549a167c7109d72cce8435739ce","arctic","swim","null","","audio/story_arctic.mp3","","null","","","","","","","","","","","","","","","","","","","",""
"html-button-response","30","1039600","0.0-6.0-0.0-2.0","92823c5b4ce42d5bd22896711c458e2a70806549a167c7109d72cce8435739ce","arctic","swim","54610","","<p>This concludes the story. Thank you for listening.</p><p>You will now answer some questions about the content of the story.</p>","0","","","","","","","","","","","","","","","","","","","","",""
"survey-multi-choice","31","1050549","0.0-6.0-0.0-3.0-0.0","92823c5b4ce42d5bd22896711c458e2a70806549a167c7109d72cce8435739ce","arctic","swim","10947","","<b>How did the narrator prepare for her expedition?</b>","","","","1","arctic-comprehension","","","","","","","","","","","","","{""Q0"":""Trained in Alaska learning how to dogsled""}","","","",""
"survey-multi-choice","32","1071397","0.0-6.0-0.0-3.0-0.1","92823c5b4ce42d5bd22896711c458e2a70806549a167c7109d72cce8435739ce","arctic","swim","20591","","<b>How many sponsorships did the narrator receive to support her expedition?</b>","","","","1","arctic-comprehension","","","","","","","","","","","","","{""Q0"":""None""}","","","",""
"survey-multi-choice","33","1078764","0.0-6.0-0.0-3.0-0.2","92823c5b4ce42d5bd22896711c458e2a70806549a167c7109d72cce8435739ce","arctic","swim","7107","","<b>How did the narrator&#39;s encounter with the polar bears end?</b>","","","","1","arctic-comprehension","","","","","","","","","","","","","{""Q0"":""The bears walked back to their den.""}","","","",""
"survey-multi-choice","34","1091317","0.0-6.0-0.0-3.0-0.3","92823c5b4ce42d5bd22896711c458e2a70806549a167c7109d72cce8435739ce","arctic","swim","12300","","<b>What were the weather conditions in the Arctic like the winter of the narrator&#39;s expedition?</b>","","","","1","arctic-comprehension","","","","","","","","","","","","","{""Q0"":""There were more storms than any other winter in recorded history.""}","","","",""
"survey-multi-choice","35","1096840","0.0-6.0-0.0-3.0-0.4","92823c5b4ce42d5bd22896711c458e2a70806549a167c7109d72cce8435739ce","arctic","swim","5269","","<b>What did the narrator do for leisure while in her tent?</b>","","","","1","arctic-comprehension","","","","","","","","","","","","","{""Q0"":""Read""}","","","",""
"survey-multi-choice","36","1109411","0.0-6.0-0.0-3.0-0.5","92823c5b4ce42d5bd22896711c458e2a70806549a167c7109d72cce8435739ce","arctic","swim","12317","","<b>What was the objective of the narrator&#39;s expedition?</b>","","","","1","arctic-comprehension","","","","","","","","","","","","","{""Q0"":""Dogsled across Arctic America""}","","","",""
"survey-multi-choice","37","1122553","0.0-6.0-0.0-3.0-0.6","92823c5b4ce42d5bd22896711c458e2a70806549a167c7109d72cce8435739ce","arctic","swim","12889","","<b>What is the name of the narrator&#39;s neighbour?</b>","","","","1","arctic-comprehension","","","","","","","","","","","","","{""Q0"":""Dave""}","","","",""
"survey-multi-choice","38","1128623","0.0-6.0-0.0-3.0-0.7","92823c5b4ce42d5bd22896711c458e2a70806549a167c7109d72cce8435739ce","arctic","swim","5815","","<b>How did the dogs respond when they saw the bears?</b>","","","","0","arctic-comprehension","","","","","","","","","","","","","{""Q0"":""Barked aggressively""}","","","",""
"survey-multi-choice","39","1134161","0.0-6.0-0.0-3.0-0.8","92823c5b4ce42d5bd22896711c458e2a70806549a167c7109d72cce8435739ce","arctic","swim","5284","","<b>Which dog on the narrator&#39;s dog team never followed instructions?</b>","","","","1","arctic-comprehension","","","","","","","","","","","","","{""Q0"":""Robert""}","","","",""
"survey-multi-choice","40","1142831","0.0-6.0-0.0-3.0-0.9","92823c5b4ce42d5bd22896711c458e2a70806549a167c7109d72cce8435739ce","arctic","swim","8418","","<b>How did the narrator&#39;s neighbour respond when she told him about her expedition?</b>","","","","1","arctic-comprehension","","","","","","","","","","","","","{""Q0"":""He said she was going to fail.""}","","","",""
"html-button-response","41","1145802","0.0-6.0-0.0-4.0","92823c5b4ce42d5bd22896711c458e2a70806549a167c7109d72cce8435739ce","arctic","swim","2720","","<p>Thank you for your responses.</p><p>You will now answer some questions about your impressions of the story.</p>","0","","","","","","","","","","","","","","","","","","","","",""
"html-button-response","42","1186125","0.0-6.0-0.0-5.0-0.0","92823c5b4ce42d5bd22896711c458e2a70806549a167c7109d72cce8435739ce","arctic","swim","40322","","EE1","5","","","","arctic-engagement","","","","","","","","","","","","","","6","emo-engage","",""
"html-button-response","43","1192644","0.0-6.0-0.0-5.0-0.1","92823c5b4ce42d5bd22896711c458e2a70806549a167c7109d72cce8435739ce","arctic","swim","6267","","MS2","4","","","","arctic-engagement","","","","","","","","","","","","","","5","mental-sim","",""
"html-button-response","44","1200131","0.0-6.0-0.0-5.0-0.2","92823c5b4ce42d5bd22896711c458e2a70806549a167c7109d72cce8435739ce","arctic","swim","7234","","EE2","5","","","","arctic-engagement","","","","","","","","","","","","","","6","emo-engage","",""
"html-button-response","45","1202751","0.0-6.0-0.0-5.0-0.3","92823c5b4ce42d5bd22896711c458e2a70806549a167c7109d72cce8435739ce","arctic","swim","2368","","EE4","4","","","","arctic-engagement","","","","","","","","","","","","","","5","emo-engage","",""
"html-button-response","46","1204267","0.0-6.0-0.0-5.0-0.4","92823c5b4ce42d5bd22896711c458e2a70806549a167c7109d72cce8435739ce","arctic","swim","1264","","E10","6","","","","arctic-engagement","","","","","","","","","","","","","","7","enjoyment","",""
"html-button-response","47","1210384","0.0-6.0-0.0-5.0-0.5","92823c5b4ce42d5bd22896711c458e2a70806549a167c7109d72cce8435739ce","arctic","swim","5865","","A4","5","","","","arctic-engagement","","","","","","","","","","","","","","6","absorption","",""
"html-button-response","48","1214823","0.0-6.0-0.0-5.0-0.6","92823c5b4ce42d5bd22896711c458e2a70806549a167c7109d72cce8435739ce","arctic","swim","4187","","A2","6","","","","arctic-engagement","","","","","","","","","","","","","","7","absorption","",""
"html-button-response","49","1217889","0.0-6.0-0.0-5.0-0.7","92823c5b4ce42d5bd22896711c458e2a70806549a167c7109d72cce8435739ce","arctic","swim","2814","","EE3","4","","","","arctic-engagement","","","","","","","","","","","","","","5","emo-engage","",""
"html-button-response","50","1221099","0.0-6.0-0.0-5.0-0.8","92823c5b4ce42d5bd22896711c458e2a70806549a167c7109d72cce8435739ce","arctic","swim","2958","","EE5","5","","","","arctic-engagement","","","","","","","","","","","","","","6","emo-engage","",""
"html-button-response","51","1224129","0.0-6.0-0.0-5.0-0.9","92823c5b4ce42d5bd22896711c458e2a70806549a167c7109d72cce8435739ce","arctic","swim","2778","","MS3","6","","","","arctic-engagement","","","","","","","","","","","","","","7","mental-sim","",""
"html-button-response","52","1225462","0.0-6.0-0.0-5.0-0.10","92823c5b4ce42d5bd22896711c458e2a70806549a167c7109d72cce8435739ce","arctic","swim","1081","","A3","5","","","","arctic-engagement","","","","","","","","","","","","","","6","absorption","",""
"html-button-response","53","1228120","0.0-6.0-0.0-5.0-0.11","92823c5b4ce42d5bd22896711c458e2a70806549a167c7109d72cce8435739ce","arctic","swim","2405","","A5","4","","","","arctic-engagement","","","","","","","","","","","","","","5","absorption","",""
"html-button-response","54","1230007","0.0-6.0-0.0-5.0-0.12","92823c5b4ce42d5bd22896711c458e2a70806549a167c7109d72cce8435739ce","arctic","swim","1635","","E1","5","","","","arctic-engagement","","","","","","","","","","","","","","6","enjoyment","",""
"html-button-response","55","1232297","0.0-6.0-0.0-5.0-0.13","92823c5b4ce42d5bd22896711c458e2a70806549a167c7109d72cce8435739ce","arctic","swim","2037","","E7","6","","","","arctic-engagement","","","","","","","","","","","","","","7","enjoyment","",""
"html-button-response","56","1235074","0.0-6.0-0.0-5.0-0.14","92823c5b4ce42d5bd22896711c458e2a70806549a167c7109d72cce8435739ce","arctic","swim","2524","","E6","5","","","","arctic-engagement","","","","","","","","","","","","","","6","enjoyment","",""
"html-button-response","57","1241381","0.0-6.0-0.0-5.0-0.15","92823c5b4ce42d5bd22896711c458e2a70806549a167c7109d72cce8435739ce","arctic","swim","6055","","A1","2","","","","arctic-engagement","","","","","","","","","","","","","","3","absorption","",""
"html-button-response","58","1245148","0.0-6.0-0.0-5.0-0.16","92823c5b4ce42d5bd22896711c458e2a70806549a167c7109d72cce8435739ce","arctic","swim","3516","","MS1","5","","","","arctic-engagement","","","","","","","","","","","","","","6","mental-sim","",""
"html-button-response","59","1248067","0.0-6.0-0.0-5.0-0.17","92823c5b4ce42d5bd22896711c458e2a70806549a167c7109d72cce8435739ce","arctic","swim","2667","","E8","4","","","","arctic-engagement","","","","","","","","","","","","","","5","enjoyment","",""
"html-keyboard-response","60","1735408","0.0-6.0-1.0","92823c5b4ce42d5bd22896711c458e2a70806549a167c7109d72cce8435739ce","arctic","swim","487088","","<p>Thank you for your responses. You will now listen to the second story.</p><p>Remember, as you listen to the story you will see letters appear on the screen.</br>As quickly as possible, press <b>&lt;x&gt;</b> if the letter is lowercase and <b>&lt;m&gt;</b> if the letter is uppercase.</p><p>Press <b>&lt;x&gt;</b> or <b>&lt;m&gt;</b> to begin listening!</p>","","77","","","","","","","","","","","","","","","","","","","",""
"html-keyboard-response","61","1735908","0.0-6.0-2.0-0.0","92823c5b4ce42d5bd22896711c458e2a70806549a167c7109d72cce8435739ce","arctic","swim","null","","<div style=""font-size:60px;"" tabindex=""0"">+</div>","","null","","","","","","","","","","","","","","","","","","","",""
"dual-task","null","null","null","","arctic","swim","774.1000000014901","","B","null","77","77","1","swim-dual-task","","B","uppercase","16000","0","5","92823c5b4ce42d5bd22896711c458e2a70806549a167c7109d72cce8435739ce","16001.300000000745","774.1000000014901","77","1","swim","","","","",""
"dual-task","null","null","null","","arctic","swim","754.3000000007451","","Q","null","77","77","1","swim-dual-task","","Q","uppercase","26000","0","5","92823c5b4ce42d5bd22896711c458e2a70806549a167c7109d72cce8435739ce","25998.800000000745","754.3000000007451","77","1","swim","","","","",""
"dual-task","null","null","null","","arctic","swim","657.2999999970198","","r","null","88","88","1","swim-dual-task","","r","lowercase","38000","0","5","92823c5b4ce42d5bd22896711c458e2a70806549a167c7109d72cce8435739ce","37998.099999997765","657.2999999970198","88","1","swim","","","","",""
"dual-task","null","null","null","","arctic","swim","609.8000000007451","","T","null","77","77","1","swim-dual-task","","T","uppercase","48000","0","5","92823c5b4ce42d5bd22896711c458e2a70806549a167c7109d72cce8435739ce","47999.699999999255","609.8000000007451","77","1","swim","","","","",""
"dual-task","null","null","null","","arctic","swim","571.1999999992549","","T","null","77","77","1","swim-dual-task","","T","uppercase","54000","0","5","92823c5b4ce42d5bd22896711c458e2a70806549a167c7109d72cce8435739ce","53998.800000000745","571.1999999992549","77","1","swim","","","","",""
"dual-task","null","null","null","","arctic","swim","779.4000000022352","","A","null","77","77","1","swim-dual-task","","A","uppercase","64000","0","5","92823c5b4ce42d5bd22896711c458e2a70806549a167c7109d72cce8435739ce","64012","779.4000000022352","77","1","swim","","","","",""
"dual-task","null","null","null","","arctic","swim","610.3000000007451","","r","null","88","88","1","swim-dual-task","","r","lowercase","74000","0","5","92823c5b4ce42d5bd22896711c458e2a70806549a167c7109d72cce8435739ce","74009.30000000075","610.3000000007451","88","1","swim","","","","",""
"dual-task","null","null","null","","arctic","swim","677.1999999992549","","d","null","88","88","1","swim-dual-task","","d","lowercase","80000","0","5","92823c5b4ce42d5bd22896711c458e2a70806549a167c7109d72cce8435739ce","79998.89999999851","677.1999999992549","88","1","swim","","","","",""
"dual-task","null","null","null","","arctic","swim","674.1999999992549","","E","null","77","77","1","swim-dual-task","","E","uppercase","92000","0","5","92823c5b4ce42d5bd22896711c458e2a70806549a167c7109d72cce8435739ce","92000.80000000075","674.1999999992549","77","1","swim","","","","",""
"dual-task","null","null","null","","arctic","swim","647.5","","a","null","88","88","1","swim-dual-task","","a","lowercase","104000","0","5","92823c5b4ce42d5bd22896711c458e2a70806549a167c7109d72cce8435739ce","104003.80000000075","647.5","88","1","swim","","","","",""
"dual-task","null","null","null","","arctic","swim","635.8000000007451","","F","null","77","77","1","swim-dual-task","","F","uppercase","112000","0","5","92823c5b4ce42d5bd22896711c458e2a70806549a167c7109d72cce8435739ce","112008","635.8000000007451","77","1","swim","","","","",""
"dual-task","null","null","null","","arctic","swim","648.3000000007451","","t","null","88","88","1","swim-dual-task","","t","lowercase","126000","0","5","92823c5b4ce42d5bd22896711c458e2a70806549a167c7109d72cce8435739ce","126005.5","648.3000000007451","88","1","swim","","","","",""
"dual-task","null","null","null","","arctic","swim","615.1999999992549","","D","null","77","77","1","swim-dual-task","","D","uppercase","138000","0","5","92823c5b4ce42d5bd22896711c458e2a70806549a167c7109d72cce8435739ce","138001.30000000075","615.1999999992549","77","1","swim","","","","",""
"dual-task","null","null","null","","arctic","swim","640","","D","null","77","77","1","swim-dual-task","","D","uppercase","144000","0","5","92823c5b4ce42d5bd22896711c458e2a70806549a167c7109d72cce8435739ce","144001.3999999985","640","77","1","swim","","","","",""
"dual-task","null","null","null","","arctic","swim","685.6000000014901","","g","null","88","88","1","swim-dual-task","","g","lowercase","156000","0","5","92823c5b4ce42d5bd22896711c458e2a70806549a167c7109d72cce8435739ce","156000.59999999776","685.6000000014901","88","1","swim","","","","",""
"dual-task","null","null","null","","arctic","swim","644.1000000014901","","T","null","77","77","1","swim-dual-task","","T","uppercase","168000","0","5","92823c5b4ce42d5bd22896711c458e2a70806549a167c7109d72cce8435739ce","168002.5","644.1000000014901","77","1","swim","","","","",""
"dual-task","null","null","null","","arctic","swim","645.8000000007451","","R","null","77","77","1","swim-dual-task","","R","uppercase","178000","0","5","92823c5b4ce42d5bd22896711c458e2a70806549a167c7109d72cce8435739ce","178004.5","645.8000000007451","77","1","swim","","","","",""
"dual-task","null","null","null","","arctic","swim","623.1999999992549","","Q","null","77","77","1","swim-dual-task","","Q","uppercase","186000","0","5","92823c5b4ce42d5bd22896711c458e2a70806549a167c7109d72cce8435739ce","186004","623.1999999992549","77","1","swim","","","","",""
"dual-task","null","null","null","","arctic","swim","687.5","","e","null","88","88","1","swim-dual-task","","e","lowercase","194000","0","5","92823c5b4ce42d5bd22896711c458e2a70806549a167c7109d72cce8435739ce","194004.19999999925","687.5","88","1","swim","","","","",""
"dual-task","null","null","null","","arctic","swim","629.1999999992549","","G","null","77","77","1","swim-dual-task","","G","uppercase","204000","0","5","92823c5b4ce42d5bd22896711c458e2a70806549a167c7109d72cce8435739ce","204013.3999999985","629.1999999992549","77","1","swim","","","","",""
"dual-task","null","null","null","","arctic","swim","727.8000000007451","","g","null","88","88","1","swim-dual-task","","g","lowercase","212000","0","5","92823c5b4ce42d5bd22896711c458e2a70806549a167c7109d72cce8435739ce","212012.8999999985","727.8000000007451","88","1","swim","","","","",""
"dual-task","null","null","null","","arctic","swim","696.1999999992549","","g","null","88","88","1","swim-dual-task","","g","lowercase","224000","0","5","92823c5b4ce42d5bd22896711c458e2a70806549a167c7109d72cce8435739ce","224004.69999999925","696.1999999992549","88","1","swim","","","","",""
"dual-task","null","null","null","","arctic","swim","705.7000000029802","","g","null","88","88","1","swim-dual-task","","g","lowercase","236000","0","5","92823c5b4ce42d5bd22896711c458e2a70806549a167c7109d72cce8435739ce","236008","705.7000000029802","88","1","swim","","","","",""
"dual-task","null","null","null","","arctic","swim","698.8000000007451","","a","null","88","88","1","swim-dual-task","","a","lowercase","248000","0","5","92823c5b4ce42d5bd22896711c458e2a70806549a167c7109d72cce8435739ce","248012","698.8000000007451","88","1","swim","","","","",""
"dual-task","null","null","null","","arctic","swim","692.4000000022352","","G","null","77","77","1","swim-dual-task","","G","uppercase","254000","0","5","92823c5b4ce42d5bd22896711c458e2a70806549a167c7109d72cce8435739ce","254012.80000000075","692.4000000022352","77","1","swim","","","","",""
"dual-task","null","null","null","","arctic","swim","655.1999999992549","","b","null","88","88","1","swim-dual-task","","b","lowercase","266000","0","5","92823c5b4ce42d5bd22896711c458e2a70806549a167c7109d72cce8435739ce","266013.30000000075","655.1999999992549","88","1","swim","","","","",""
"dual-task","null","null","null","","arctic","swim","629.8999999985099","","h","null","88","88","1","swim-dual-task","","h","lowercase","276000","0","5","92823c5b4ce42d5bd22896711c458e2a70806549a167c7109d72cce8435739ce","275999.80000000075","629.8999999985099","88","1","swim","","","","",""
"dual-task","null","null","null","","arctic","swim","674.5999999977648","","e","null","88","88","1","swim-dual-task","","e","lowercase","290000","0","5","92823c5b4ce42d5bd22896711c458e2a70806549a167c7109d72cce8435739ce","289998.09999999776","674.5999999977648","88","1","swim","","","","",""
"dual-task","null","null","null","","arctic","swim","610.7999999970198","","b","null","88","88","1","swim-dual-task","","b","lowercase","298000","0","5","92823c5b4ce42d5bd22896711c458e2a70806549a167c7109d72cce8435739ce","297999.19999999925","610.7999999970198","88","1","swim","","","","",""
"dual-task","null","null","null","","arctic","swim","827.3000000007451","","f","null","88","88","1","swim-dual-task","","f","lowercase","308000","0","5","92823c5b4ce42d5bd22896711c458e2a70806549a167c7109d72cce8435739ce","308013.80000000075","827.3000000007451","88","1","swim","","","","",""
"dual-task","null","null","null","","arctic","swim","678.0999999977648","","N","null","77","77","1","swim-dual-task","","N","uppercase","320000","0","5","92823c5b4ce42d5bd22896711c458e2a70806549a167c7109d72cce8435739ce","320011.3999999985","678.0999999977648","77","1","swim","","","","",""
"dual-task","null","null","null","","arctic","swim","679.8000000007451","","f","null","88","88","1","swim-dual-task","","f","lowercase","332000","0","5","92823c5b4ce42d5bd22896711c458e2a70806549a167c7109d72cce8435739ce","332007.5","679.8000000007451","88","1","swim","","","","",""
"dual-task","null","null","null","","arctic","swim","729.6000000014901","","E","null","77","77","1","swim-dual-task","","E","uppercase","342000","0","5","92823c5b4ce42d5bd22896711c458e2a70806549a167c7109d72cce8435739ce","342009.69999999925","729.6000000014901","77","1","swim","","","","",""
"dual-task","null","null","null","","arctic","swim","608.5999999977648","","B","null","77","77","1","swim-dual-task","","B","uppercase","354000","0","5","92823c5b4ce42d5bd22896711c458e2a70806549a167c7109d72cce8435739ce","354005.30000000075","608.5999999977648","77","1","swim","","","","",""
"dual-task","null","null","null","","arctic","swim","651.6999999992549","","q","null","88","88","1","swim-dual-task","","q","lowercase","362000","0","5","92823c5b4ce42d5bd22896711c458e2a70806549a167c7109d72cce8435739ce","362009.69999999925","651.6999999992549","88","1","swim","","","","",""
"dual-task","null","null","null","","arctic","swim","745.1999999992549","","n","null","88","88","1","swim-dual-task","","n","lowercase","370000","0","5","92823c5b4ce42d5bd22896711c458e2a70806549a167c7109d72cce8435739ce","370006.80000000075","745.1999999992549","88","1","swim","","","","",""
"dual-task","null","null","null","","arctic","swim","723.1999999992549","","d","null","88","88","1","swim-dual-task","","d","lowercase","380000","0","5","92823c5b4ce42d5bd22896711c458e2a70806549a167c7109d72cce8435739ce","380005.59999999776","723.1999999992549","88","1","swim","","","","",""
"dual-task","null","null","null","","arctic","swim","856.2999999970198","","N","null","77","77","1","swim-dual-task","","N","uppercase","388000","0","5","92823c5b4ce42d5bd22896711c458e2a70806549a167c7109d72cce8435739ce","388008.59999999776","856.2999999970198","77","1","swim","","","","",""
"dual-task","null","null","null","","arctic","swim","685.1000000014901","","R","null","77","77","1","swim-dual-task","","R","uppercase","402000","0","5","92823c5b4ce42d5bd22896711c458e2a70806549a167c7109d72cce8435739ce","402011.19999999925","685.1000000014901","77","1","swim","","","","",""
"dual-task","null","null","null","","arctic","swim","646.8999999985099","","h","null","88","88","1","swim-dual-task","","h","lowercase","412000","0","5","92823c5b4ce42d5bd22896711c458e2a70806549a167c7109d72cce8435739ce","412014.09999999776","646.8999999985099","88","1","swim","","","","",""
"dual-task","null","null","null","","arctic","swim","664.5999999977648","","n","null","88","88","1","swim-dual-task","","n","lowercase","422000","0","5","92823c5b4ce42d5bd22896711c458e2a70806549a167c7109d72cce8435739ce","422013.59999999776","664.5999999977648","88","1","swim","","","","",""
"dual-task","null","null","null","","arctic","swim","683.8000000007451","","R","null","77","77","1","swim-dual-task","","R","uppercase","432000","0","5","92823c5b4ce42d5bd22896711c458e2a70806549a167c7109d72cce8435739ce","432009.80000000075","683.8000000007451","77","1","swim","","","","",""
"dual-task","null","null","null","","arctic","swim","629.3000000007451","","b","null","88","88","1","swim-dual-task","","b","lowercase","444000","0","5","92823c5b4ce42d5bd22896711c458e2a70806549a167c7109d72cce8435739ce","443999.5","629.3000000007451","88","1","swim","","","","",""
"dual-task","null","null","null","","arctic","swim","1123.7000000029802","","n","null","88","88","1","swim-dual-task","","n","lowercase","450000","0","5","92823c5b4ce42d5bd22896711c458e2a70806549a167c7109d72cce8435739ce","450000.5","1123.7000000029802","88","1","swim","","","","",""
"dual-task","null","null","null","","arctic","swim","678.1999999992549","","r","null","88","88","1","swim-dual-task","","r","lowercase","464000","0","5","92823c5b4ce42d5bd22896711c458e2a70806549a167c7109d72cce8435739ce","464008.19999999925","678.1999999992549","88","1","swim","","","","",""
"dual-task","null","null","null","","arctic","swim","1482","","r","null","88","88","1","swim-dual-task","","r","lowercase","470000","0","5","92823c5b4ce42d5bd22896711c458e2a70806549a167c7109d72cce8435739ce","470007.59999999776","1482","88","1","swim","","","","",""
"dual-task","null","null","null","","arctic","swim","955.8000000007451","","E","null","77","77","1","swim-dual-task","","E","uppercase","482000","0","5","92823c5b4ce42d5bd22896711c458e2a70806549a167c7109d72cce8435739ce","482010.80000000075","955.8000000007451","77","1","swim","","","","",""
"dual-task","null","null","null","","arctic","swim","851.6000000014901","","q","null","88","88","1","swim-dual-task","","q","lowercase","490000","0","5","92823c5b4ce42d5bd22896711c458e2a70806549a167c7109d72cce8435739ce","490012.59999999776","851.6000000014901","88","1","swim","","","","",""
"dual-task","null","null","null","","arctic","swim","968.5","","h","null","88","88","1","swim-dual-task","","h","lowercase","500000","0","5","92823c5b4ce42d5bd22896711c458e2a70806549a167c7109d72cce8435739ce","500007.19999999925","968.5","88","1","swim","","","","",""
"dual-task","null","null","null","","arctic","swim","843.3000000007451","","A","null","77","77","1","swim-dual-task","","A","uppercase","506000","0","5","92823c5b4ce42d5bd22896711c458e2a70806549a167c7109d72cce8435739ce","506007.5","843.3000000007451","77","1","swim","","","","",""
"dual-task","null","null","null","","arctic","swim","714.8000000007451","","H","null","77","77","1","swim-dual-task","","H","uppercase","516000","0","5","92823c5b4ce42d5bd22896711c458e2a70806549a167c7109d72cce8435739ce","515999.59999999776","714.8000000007451","77","1","swim","","","","",""
"dual-task","null","null","null","","arctic","swim","731","","A","null","77","77","1","swim-dual-task","","A","uppercase","530000","0","5","92823c5b4ce42d5bd22896711c458e2a70806549a167c7109d72cce8435739ce","530012.0999999978","731","77","1","swim","","","","",""
"dual-task","null","null","null","","arctic","swim","693.5","","e","null","88","88","1","swim-dual-task","","e","lowercase","542000","0","5","92823c5b4ce42d5bd22896711c458e2a70806549a167c7109d72cce8435739ce","542011.5","693.5","88","1","swim","","","","",""
"dual-task","null","null","null","","arctic","swim","676.8000000007451","","H","null","77","77","1","swim-dual-task","","H","uppercase","552000","0","5","92823c5b4ce42d5bd22896711c458e2a70806549a167c7109d72cce8435739ce","552000.0999999978","676.8000000007451","77","1","swim","","","","",""
"dual-task","null","null","null","","arctic","swim","679.1999999992549","","B","null","77","77","1","swim-dual-task","","B","uppercase","564000","0","5","92823c5b4ce42d5bd22896711c458e2a70806549a167c7109d72cce8435739ce","564009.0999999978","679.1999999992549","77","1","swim","","","","",""
"dual-task","null","null","null","","arctic","swim","763.6000000014901","","H","null","77","77","1","swim-dual-task","","H","uppercase","572000","0","5","92823c5b4ce42d5bd22896711c458e2a70806549a167c7109d72cce8435739ce","572009.5999999978","763.6000000014901","77","1","swim","","","","",""
"dual-task","null","null","null","","arctic","swim","672.7000000029802","","h","null","88","88","1","swim-dual-task","","h","lowercase","586000","0","5","92823c5b4ce42d5bd22896711c458e2a70806549a167c7109d72cce8435739ce","586005","672.7000000029802","88","1","swim","","","","",""
"dual-task","null","null","null","","arctic","swim","727","","F","null","77","77","1","swim-dual-task","","F","uppercase","598000","0","5","92823c5b4ce42d5bd22896711c458e2a70806549a167c7109d72cce8435739ce","598003.8999999985","727","77","1","swim","","","","",""
"dual-task","null","null","null","","arctic","swim","666.0999999977648","","G","null","77","77","1","swim-dual-task","","G","uppercase","610000","0","5","92823c5b4ce42d5bd22896711c458e2a70806549a167c7109d72cce8435739ce","610003.6999999993","666.0999999977648","77","1","swim","","","","",""
"dual-task","null","null","null","","arctic","swim","662.8999999985099","","n","null","88","88","1","swim-dual-task","","n","lowercase","616000","0","5","92823c5b4ce42d5bd22896711c458e2a70806549a167c7109d72cce8435739ce","616006.0999999978","662.8999999985099","88","1","swim","","","","",""
"dual-task","null","null","null","","arctic","swim","770.8000000007451","","N","null","77","77","1","swim-dual-task","","N","uppercase","630000","0","5","92823c5b4ce42d5bd22896711c458e2a70806549a167c7109d72cce8435739ce","630011","770.8000000007451","77","1","swim","","","","",""
"dual-task","null","null","null","","arctic","swim","709.5","","t","null","88","88","1","swim-dual-task","","t","lowercase","642000","0","5","92823c5b4ce42d5bd22896711c458e2a70806549a167c7109d72cce8435739ce","642005.8999999985","709.5","88","1","swim","","","","",""
"dual-task","null","null","null","","arctic","swim","737","","D","null","77","77","1","swim-dual-task","","D","uppercase","650000","0","5","92823c5b4ce42d5bd22896711c458e2a70806549a167c7109d72cce8435739ce","650008.1999999993","737","77","1","swim","","","","",""
"dual-task","null","null","null","","arctic","swim","787.6999999992549","","Q","null","77","77","1","swim-dual-task","","Q","uppercase","658000","0","5","92823c5b4ce42d5bd22896711c458e2a70806549a167c7109d72cce8435739ce","658010.3000000007","787.6999999992549","77","1","swim","","","","",""
"dual-task","null","null","null","","arctic","swim","735","","a","null","88","88","1","swim-dual-task","","a","lowercase","666000","0","5","92823c5b4ce42d5bd22896711c458e2a70806549a167c7109d72cce8435739ce","666010.8999999985","735","88","1","swim","","","","",""
"dual-task","null","null","null","","arctic","swim","945.1999999992549","","t","null","88","88","1","swim-dual-task","","t","lowercase","674000","0","5","92823c5b4ce42d5bd22896711c458e2a70806549a167c7109d72cce8435739ce","674001.5","945.1999999992549","88","1","swim","","","","",""
"dual-task","null","null","null","","arctic","swim","802.8000000007451","","b","null","88","88","1","swim-dual-task","","b","lowercase","684000","0","5","92823c5b4ce42d5bd22896711c458e2a70806549a167c7109d72cce8435739ce","684014.8000000007","802.8000000007451","88","1","swim","","","","",""
"dual-task","null","null","null","","arctic","swim","801.1000000014901","","A","null","77","77","1","swim-dual-task","","A","uppercase","696000","0","5","92823c5b4ce42d5bd22896711c458e2a70806549a167c7109d72cce8435739ce","696000.5999999978","801.1000000014901","77","1","swim","","","","",""
"dual-task","null","null","null","","arctic","swim","602.3000000007451","","R","null","77","77","1","swim-dual-task","","R","uppercase","702000","0","5","92823c5b4ce42d5bd22896711c458e2a70806549a167c7109d72cce8435739ce","702002.3000000007","602.3000000007451","77","1","swim","","","","",""
"dual-task","null","null","null","","arctic","swim","724.5","","N","null","77","77","1","swim-dual-task","","N","uppercase","716000","0","5","92823c5b4ce42d5bd22896711c458e2a70806549a167c7109d72cce8435739ce","716001.3000000007","724.5","77","1","swim","","","","",""
"dual-task","null","null","null","","arctic","swim","679.1999999992549","","e","null","88","88","1","swim-dual-task","","e","lowercase","726000","0","5","92823c5b4ce42d5bd22896711c458e2a70806549a167c7109d72cce8435739ce","726002.3999999985","679.1999999992549","88","1","swim","","","","",""
"dual-task","null","null","null","","arctic","swim","672.4000000022352","","q","null","88","88","1","swim-dual-task","","q","lowercase","732000","0","5","92823c5b4ce42d5bd22896711c458e2a70806549a167c7109d72cce8435739ce","732004.1999999993","672.4000000022352","88","1","swim","","","","",""
"dual-task","null","null","null","","arctic","swim","629.9000000022352","","D","null","77","77","1","swim-dual-task","","D","uppercase","740000","0","5","92823c5b4ce42d5bd22896711c458e2a70806549a167c7109d72cce8435739ce","740009.3000000007","629.9000000022352","77","1","swim","","","","",""
"dual-task","null","null","null","","arctic","swim","883.3999999985099","","G","null","77","77","1","swim-dual-task","","G","uppercase","752000","0","5","92823c5b4ce42d5bd22896711c458e2a70806549a167c7109d72cce8435739ce","752008.1999999993","883.3999999985099","77","1","swim","","","","",""
"dual-task","null","null","null","","arctic","swim","655.1999999992549","","F","null","77","77","1","swim-dual-task","","F","uppercase","764000","0","5","92823c5b4ce42d5bd22896711c458e2a70806549a167c7109d72cce8435739ce","764012.6999999993","655.1999999992549","77","1","swim","","","","",""
"dual-task","null","null","null","","arctic","swim","654.6000000014901","","B","null","77","77","1","swim-dual-task","","B","uppercase","776000","0","5","92823c5b4ce42d5bd22896711c458e2a70806549a167c7109d72cce8435739ce","776013.1999999993","654.6000000014901","77","1","swim","","","","",""
"dual-task","null","null","null","","arctic","swim","744.6000000014901","","f","null","88","88","1","swim-dual-task","","f","lowercase","786000","0","5","92823c5b4ce42d5bd22896711c458e2a70806549a167c7109d72cce8435739ce","786002.3000000007","744.6000000014901","88","1","swim","","","","",""
"dual-task","null","null","null","","arctic","swim","669.8000000007451","","H","null","77","77","1","swim-dual-task","","H","uppercase","798000","0","5","92823c5b4ce42d5bd22896711c458e2a70806549a167c7109d72cce8435739ce","798001","669.8000000007451","77","1","swim","","","","",""
"audio-keyboard-response","62","2545919","0.0-6.0-2.0-1.0","92823c5b4ce42d5bd22896711c458e2a70806549a167c7109d72cce8435739ce","arctic","swim","null","","audio/story_swim_scrambled.mp3","","null","","","","","","","","","","","","","","","","","","","",""
"html-button-response","63","2548883","0.0-6.0-2.0-2.0","92823c5b4ce42d5bd22896711c458e2a70806549a167c7109d72cce8435739ce","arctic","swim","2963","","<p>This concludes the story. Thank you for listening.</p><p>You will now answer some questions about the content of the story.</p>","0","","","","","","","","","","","","","","","","","","","","",""
"survey-multi-choice","64","2567668","0.0-6.0-2.0-3.0-0.0","92823c5b4ce42d5bd22896711c458e2a70806549a167c7109d72cce8435739ce","arctic","swim","18783","","<b>How many astronaut candidates passed the first swim test?</b>","","","","1","swim-comprehension","","","","","","","","","","","","","{""Q0"":""All of them""}","","","",""
"survey-multi-choice","65","2574991","0.0-6.0-2.0-3.0-0.1","92823c5b4ce42d5bd22896711c458e2a70806549a167c7109d72cce8435739ce","arctic","swim","7071","","<b>How many astronaut candidates reported for duty at the Johnson Space Center?</b>","","","","1","swim-comprehension","","","","","","","","","","","","","{""Q0"":""Forty-four""}","","","",""
"survey-multi-choice","66","2579485","0.0-6.0-2.0-3.0-0.2","92823c5b4ce42d5bd22896711c458e2a70806549a167c7109d72cce8435739ce","arctic","swim","4240","","<b>What is the narrator afraid of, aside from the water?</b>","","","","1","swim-comprehension","","","","","","","","","","","","","{""Q0"":""Heights""}","","","",""
"survey-multi-choice","67","2589053","0.0-6.0-2.0-3.0-0.3","92823c5b4ce42d5bd22896711c458e2a70806549a167c7109d72cce8435739ce","arctic","swim","9316","","<b>How did the narrator train for his swim test?</b>","","","","1","swim-comprehension","","","","","","","","","","","","","{""Q0"":""Took his kids to the pool every day""}","","","",""
"survey-multi-choice","68","2594439","0.0-6.0-2.0-3.0-0.4","92823c5b4ce42d5bd22896711c458e2a70806549a167c7109d72cce8435739ce","arctic","swim","5134","","<b>How many times did the astronaut candidates have to complete the final exercise to pass?</b>","","","","1","swim-comprehension","","","","","","","","","","","","","{""Q0"":""Two""}","","","",""
"survey-multi-choice","69","2607009","0.0-6.0-2.0-3.0-0.5","92823c5b4ce42d5bd22896711c458e2a70806549a167c7109d72cce8435739ce","arctic","swim","12315","","<b>What were the astronaut candidates trained to do at the naval air station?</b>","","","","1","swim-comprehension","","","","","","","","","","","","","{""Q0"":""Eject out of aircraft and survive in water long enough to be rescued""}","","","",""
"survey-multi-choice","70","2619563","0.0-6.0-2.0-3.0-0.6","92823c5b4ce42d5bd22896711c458e2a70806549a167c7109d72cce8435739ce","arctic","swim","12300","","<b>What gave the narrator his greatest feeling of accomplishment?</b>","","","","0","swim-comprehension","","","","","","","","","","","","","{""Q0"":""Completing his PhD at MIT""}","","","",""
"survey-multi-choice","71","2629421","0.0-6.0-2.0-3.0-0.7","92823c5b4ce42d5bd22896711c458e2a70806549a167c7109d72cce8435739ce","arctic","swim","9603","","<b>Where is the home of naval aviation?</b>","","","","1","swim-comprehension","","","","","","","","","","","","","{""Q0"":""Pensacola""}","","","",""
"survey-multi-choice","72","2639078","0.0-6.0-2.0-3.0-0.8","92823c5b4ce42d5bd22896711c458e2a70806549a167c7109d72cce8435739ce","arctic","swim","9404","","<b>What was the final step of the first swim test in the pool?</b>","","","","1","swim-comprehension","","","","","","","","","","","","","{""Q0"":""Tread water with hands above the water""}","","","",""
"survey-multi-choice","73","2653169","0.0-6.0-2.0-3.0-0.9","92823c5b4ce42d5bd22896711c458e2a70806549a167c7109d72cce8435739ce","arctic","swim","13838","","<b>How often does the narrator swim, now that he is a good swimmer?</b>","","","","1","swim-comprehension","","","","","","","","","","","","","{""Q0"":""Never swam again in his life""}","","","",""
"html-button-response","74","2654640","0.0-6.0-2.0-4.0","92823c5b4ce42d5bd22896711c458e2a70806549a167c7109d72cce8435739ce","arctic","swim","1219","","<p>Thank you for your responses.</p><p>You will now answer some questions about your impressions of the story.</p>","0","","","","","","","","","","","","","","","","","","","","",""
"html-button-response","75","2659200","0.0-6.0-2.0-5.0-0.0","92823c5b4ce42d5bd22896711c458e2a70806549a167c7109d72cce8435739ce","arctic","swim","4559","","A1","0","","","","swim-engagement","","","","","","","","","","","","","","1","absorption","",""
"html-button-response","76","2663205","0.0-6.0-2.0-5.0-0.1","92823c5b4ce42d5bd22896711c458e2a70806549a167c7109d72cce8435739ce","arctic","swim","3754","","EE3","1","","","","swim-engagement","","","","","","","","","","","","","","2","emo-engage","",""
"html-button-response","77","2665668","0.0-6.0-2.0-5.0-0.2","92823c5b4ce42d5bd22896711c458e2a70806549a167c7109d72cce8435739ce","arctic","swim","2212","","E6","0","","","","swim-engagement","","","","","","","","","","","","","","1","enjoyment","",""
"html-button-response","78","2672066","0.0-6.0-2.0-5.0-0.3","92823c5b4ce42d5bd22896711c458e2a70806549a167c7109d72cce8435739ce","arctic","swim","6146","","A5","2","","","","swim-engagement","","","","","","","","","","","","","","3","absorption","",""
"html-button-response","79","2674232","0.0-6.0-2.0-5.0-0.4","92823c5b4ce42d5bd22896711c458e2a70806549a167c7109d72cce8435739ce","arctic","swim","1915","","E8","0","","","","swim-engagement","","","","","","","","","","","","","","1","enjoyment","",""
"html-button-response","80","2679095","0.0-6.0-2.0-5.0-0.5","92823c5b4ce42d5bd22896711c458e2a70806549a167c7109d72cce8435739ce","arctic","swim","4611","","A2","5","","","","swim-engagement","","","","","","","","","","","","","","6","absorption","",""
"html-button-response","81","2681967","0.0-6.0-2.0-5.0-0.6","92823c5b4ce42d5bd22896711c458e2a70806549a167c7109d72cce8435739ce","arctic","swim","2620","","EE5","0","","","","swim-engagement","","","","","","","","","","","","","","1","emo-engage","",""
"html-button-response","82","2685075","0.0-6.0-2.0-5.0-0.7","92823c5b4ce42d5bd22896711c458e2a70806549a167c7109d72cce8435739ce","arctic","swim","2856","","E7","3","","","","swim-engagement","","","","","","","","","","","","","","4","enjoyment","",""
"html-button-response","83","2688911","0.0-6.0-2.0-5.0-0.8","92823c5b4ce42d5bd22896711c458e2a70806549a167c7109d72cce8435739ce","arctic","swim","3584","","EE4","1","","","","swim-engagement","","","","","","","","","","","","","","2","emo-engage","",""
"html-button-response","84","2690840","0.0-6.0-2.0-5.0-0.9","92823c5b4ce42d5bd22896711c458e2a70806549a167c7109d72cce8435739ce","arctic","swim","1676","","EE2","2","","","","swim-engagement","","","","","","","","","","","","","","3","emo-engage","",""
"html-button-response","85","2692551","0.0-6.0-2.0-5.0-0.10","92823c5b4ce42d5bd22896711c458e2a70806549a167c7109d72cce8435739ce","arctic","swim","1459","","E10","0","","","","swim-engagement","","","","","","","","","","","","","","1","enjoyment","",""
"html-button-response","86","2695843","0.0-6.0-2.0-5.0-0.11","92823c5b4ce42d5bd22896711c458e2a70806549a167c7109d72cce8435739ce","arctic","swim","3041","","MS2","1","","","","swim-engagement","","","","","","","","","","","","","","2","mental-sim","",""
"html-button-response","87","2699573","0.0-6.0-2.0-5.0-0.12","92823c5b4ce42d5bd22896711c458e2a70806549a167c7109d72cce8435739ce","arctic","swim","3477","","A4","1","","","","swim-engagement","","","","","","","","","","","","","","2","absorption","",""
"html-button-response","88","2701395","0.0-6.0-2.0-5.0-0.13","92823c5b4ce42d5bd22896711c458e2a70806549a167c7109d72cce8435739ce","arctic","swim","1570","","E1","0","","","","swim-engagement","","","","","","","","","","","","","","1","enjoyment","",""
"html-button-response","89","2705112","0.0-6.0-2.0-5.0-0.14","92823c5b4ce42d5bd22896711c458e2a70806549a167c7109d72cce8435739ce","arctic","swim","3465","","MS3","4","","","","swim-engagement","","","","","","","","","","","","","","5","mental-sim","",""
"html-button-response","90","2709965","0.0-6.0-2.0-5.0-0.15","92823c5b4ce42d5bd22896711c458e2a70806549a167c7109d72cce8435739ce","arctic","swim","4601","","MS1","5","","","","swim-engagement","","","","","","","","","","","","","","6","mental-sim","",""
"html-button-response","91","2713217","0.0-6.0-2.0-5.0-0.16","92823c5b4ce42d5bd22896711c458e2a70806549a167c7109d72cce8435739ce","arctic","swim","3001","","EE1","4","","","","swim-engagement","","","","","","","","","","","","","","5","emo-engage","",""
"html-button-response","92","2714910","0.0-6.0-2.0-5.0-0.17","92823c5b4ce42d5bd22896711c458e2a70806549a167c7109d72cce8435739ce","arctic","swim","1441","","A3","0","","","","swim-engagement","","","","","","","","","","","","","","1","absorption","",""
"html-button-response","93","2716931","0.0-8.0","92823c5b4ce42d5bd22896711c458e2a70806549a167c7109d72cce8435739ce","arctic","swim","1769","","<p>Thank you for your responses.</p><p>You will now answer some demographic, hearing, and general health questions.</p>","0","","","","","","","","","","","","","","","","","","","","",""
"survey-multi-choice","94","2720151","0.0-9.0-0.0","92823c5b4ce42d5bd22896711c458e2a70806549a167c7109d72cce8435739ce","arctic","swim","3218","","","","","","","survey","","","","","","","","","","","","","{""Q0"":""Chrome""}","","","browser",""
"survey-text","95","2722865","0.0-9.0-1.0","92823c5b4ce42d5bd22896711c458e2a70806549a167c7109d72cce8435739ce","arctic","swim","2459.89999999851","","","","","","","survey","","","","","","","","","","","","","{""AGE"":""37""}","","","age","37"
"survey-multi-choice","96","2724854","0.0-9.0-2.0","92823c5b4ce42d5bd22896711c458e2a70806549a167c7109d72cce8435739ce","arctic","swim","1737","","","","","","","survey","","","","","","","","","","","","","{""Q0"":""Male""}","","","gender","Male"
"survey-multi-choice","97","2726824","0.0-9.0-4.0","92823c5b4ce42d5bd22896711c458e2a70806549a167c7109d72cce8435739ce","arctic","swim","1716","","","","","","","survey","","","","","","","","","","","","","{""Q0"":""Right""}","","","handedness","Right"
"survey-multi-choice","98","2728993","0.0-9.0-5.0","92823c5b4ce42d5bd22896711c458e2a70806549a167c7109d72cce8435739ce","arctic","swim","1913","","","","","","","survey","","","","","","","","","","","","","{""Q0"":""Bachelor's Degree""}","","","education","Bachelor's Degree"
"survey-text","99","2733931","0.0-10.0-0.0","92823c5b4ce42d5bd22896711c458e2a70806549a167c7109d72cce8435739ce","arctic","swim","4685.800000000745","","","","","","","survey","","","","","","","","","","","","","{""L1"":""English""}","","","first-language","English"
"survey-text","100","2745115","0.0-10.0-1.0","92823c5b4ce42d5bd22896711c458e2a70806549a167c7109d72cce8435739ce","arctic","swim","10929.39999999851","","","","","","","survey","","","","","","","","","","","","","{""L2name"":"""",""L2fluency"":"""",""L3name"":"""",""L3fluency"":"""",""L4name"":"""",""L4fluency"":""""}","","","additional-languages","{""L2name"":"""",""L2fluency"":"""",""L3name"":"""",""L3fluency"":"""",""L4name"":"""",""L4fluency"":""""}"
"survey-multi-choice","101","2748301","0.0-10.0-2.0","92823c5b4ce42d5bd22896711c458e2a70806549a167c7109d72cce8435739ce","arctic","swim","2933","","","","","","","survey","","","","","","","","","","","","","{""Q0"":""No""}","","","hearing-aid","No"
"survey-multi-choice","102","2750602","0.0-10.0-3.0","92823c5b4ce42d5bd22896711c458e2a70806549a167c7109d72cce8435739ce","arctic","swim","2049","","","","","","","survey","","","","","","","","","","","","","{""Q0"":""Never""}","","","ringing-ears","Never"
"survey-multi-choice","103","2752995","0.0-10.0-5.0","92823c5b4ce42d5bd22896711c458e2a70806549a167c7109d72cce8435739ce","arctic","swim","2140","","","","","","","survey","","","","","","","","","","","","","{""Q0"":""No""}","","","neuro-disease","No"
"survey-multi-choice","104","2758548","0.0-10.0-7.0","92823c5b4ce42d5bd22896711c458e2a70806549a167c7109d72cce8435739ce","arctic","swim","5302","","","","","","","survey","","","","","","","","","","","","","{""Q0"":""No""}","","","take-meds","No"
"survey-text","105","2763905","0.0-10.0-9.0","92823c5b4ce42d5bd22896711c458e2a70806549a167c7109d72cce8435739ce","arctic","swim","5101.39999999851","","","","","","","survey","","","","","","","","","","","","","{""HC"":""N/A""}","","","health-concerns","N/A"
"html-button-response","106","2767824","0.0-11.0-0.0","92823c5b4ce42d5bd22896711c458e2a70806549a167c7109d72cce8435739ce","arctic","swim","3667","","<p>How would you describe your musical skills/experiences?</p>","0","","","","survey","","","","","","","","","","","","","","","","music-skill","1"
"survey-multi-choice","107","2769693","0.0-11.0-1.0","92823c5b4ce42d5bd22896711c458e2a70806549a167c7109d72cce8435739ce","arctic","swim","1614","","","","","","","survey","","","","","","","","","","","","","{""Q0"":""No""}","","","music-instrument","No"
"html-button-response","108","2773275","0.0-12.0-0.0","92823c5b4ce42d5bd22896711c458e2a70806549a167c7109d72cce8435739ce","arctic","swim","3330","","<p>How would you describe your general hearing abilities?</p>","3","","","","survey","","","","","","","","","","","","","","","","ssq-01","4"
"html-button-response","109","2780690","0.0-12.0-1.0","92823c5b4ce42d5bd22896711c458e2a70806549a167c7109d72cce8435739ce","arctic","swim","7164","","<p>When you talk with someone at a place that strongly reverberates/echoes (e.g., in a church or train station),</br>can you understand what the person says?</p>","8","","","","survey","","","","","","","","","","","","","","","","ssq-02","8"
"html-button-response","110","2784901","0.0-12.0-2.0","92823c5b4ce42d5bd22896711c458e2a70806549a167c7109d72cce8435739ce","arctic","swim","3959","","<p>When you are with a group (~5 people) in a lively restaurant, can you follow the group's conversation?</p>","8","","","","survey","","","","","","","","","","","","","","","","ssq-03","8"
"html-button-response","111","2796424","0.0-12.0-3.0","92823c5b4ce42d5bd22896711c458e2a70806549a167c7109d72cce8435739ce","arctic","swim","11271","","<p>Based on the sound of a bus or truck, can you tell whether it is moving towards or away from you?</p>","7","","","","survey","","","","","","","","","","","","","","","","ssq-04","7"
"html-button-response","112","2802045","0.0-12.0-4.0","92823c5b4ce42d5bd22896711c458e2a70806549a167c7109d72cce8435739ce","arctic","swim","5369","","<p>When you are in an unknown environment, can you tell from which direction a brief sound originates?</p>","7","","","","survey","","","","","","","","","","","","","","","","ssq-05","7"
"html-button-response","113","2807758","0.0-12.0-5.0","92823c5b4ce42d5bd22896711c458e2a70806549a167c7109d72cce8435739ce","arctic","swim","5460","","<p>Are you able to ignore distracting sounds when you concentrate on a specific aspect of your acoustic surrounding?</p>","4","","","","survey","","","","","","","","","","","","","","","","ssq-06","4"
"fullscreen","114","2809010","0.0-13.0","92823c5b4ce42d5bd22896711c458e2a70806549a167c7109d72cce8435739ce","arctic","swim","","","","","","","","","true","","","","","","","","","","","","","","","",""
