"trial_type","trial_index","time_elapsed","internal_node_id","ParticipantID","firstStory","scramStory","rt","url","stimulus","button_pressed","key_press","correctRESP","correct","designation","success","letterStim","letterType","ONSET","TIMEOUT","CONDITION","Participant","ONSET_ACTUAL","RT","RESP","ACC","STORY","responses","response","type","surveyQuestion","QRESP"
"pavlovia","0","4","0.0-0.0","137f566121267ed5ef6a960c84c7047acd8407087476e648788ba3b221c6a6f8","arctic","swim","","","","","","","","","","","","","","","","","","","","","","","","",""
"external-html","1","2815110","0.0-1.0","137f566121267ed5ef6a960c84c7047acd8407087476e648788ba3b221c6a6f8","arctic","swim","2815079","consent/consent_updated.html","","","","","","","","","","","","","","","","","","","","","","",""
"html-button-response","2","2816538","0.0-2.0-0.0","137f566121267ed5ef6a960c84c7047acd8407087476e648788ba3b221c6a6f8","arctic","swim","1427","","<p>Before we begin the main task, you will complete a short volume calibration and headphone check.</p><p>Please make sure you are in a quiet listening environment, that you are wearing headphones, and that your computer's volume is turned on.<p></p>","0","","","","","","","","","","","","","","","","","","","","",""
"html-button-response","3","2819873","0.0-2.0-1.0","137f566121267ed5ef6a960c84c7047acd8407087476e648788ba3b221c6a6f8","arctic","swim","3078","","<p>The volume calibration will be first.</p><p>You will hear a thirty-second noise. Please adjust your computer's volume so that this noise is being presented at a comfortable level.<p></p>","0","","","","","","","","","","","","","","","","","","","","",""
"audio-button-response","4","2823416","0.0-2.0-2.0","137f566121267ed5ef6a960c84c7047acd8407087476e648788ba3b221c6a6f8","arctic","swim","3290","","audio/volumetest.mp3","0","","","","","","","","","","","","","","","","","","","","",""
"html-keyboard-response","5","2824914","0.0-3.0-0.0","137f566121267ed5ef6a960c84c7047acd8407087476e648788ba3b221c6a6f8","arctic","swim","1496","","<p>You will now complete a short headphone check.</p><p>On each trial, you will hear three tones. One of these tones will be quieter than the others. Your task is to identify whether the quiet tone occurred first, second, or third.</p><p>There are six trials in total.<p></p><p></p>(Press SPACEBAR to begin)","","32","","","","","","","","","","","","","","","","","","","",""
"html-keyboard-response","6","2825674","0.0-3.0-1.0-0.0","137f566121267ed5ef6a960c84c7047acd8407087476e648788ba3b221c6a6f8","arctic","swim","null","","<div style=""font-size:60px;"">+</div>","","null","","","","","","","","","","","","","","","","","","","",""
"audio-button-response","7","2830608","0.0-3.0-1.0-1.0","137f566121267ed5ef6a960c84c7047acd8407087476e648788ba3b221c6a6f8","arctic","swim","4932","","audio/t2_2.mp3","1","","1","1","headphone-test","","","","","","","","","","","","","","","","",""
"html-keyboard-response","8","2831111","0.0-3.0-1.0-2.0","137f566121267ed5ef6a960c84c7047acd8407087476e648788ba3b221c6a6f8","arctic","swim","null","","<p>Correct</p>","","null","","","","","","","","","","","","","","","","","","","",""
"html-keyboard-response","9","2831625","0.0-3.0-1.0-0.1","137f566121267ed5ef6a960c84c7047acd8407087476e648788ba3b221c6a6f8","arctic","swim","null","","<div style=""font-size:60px;"">+</div>","","null","","","","","","","","","","","","","","","","","","","",""
"audio-button-response","10","2835721","0.0-3.0-1.0-1.1","137f566121267ed5ef6a960c84c7047acd8407087476e648788ba3b221c6a6f8","arctic","swim","4095","","audio/t1_2.mp3","2","","0","0","headphone-test","","","","","","","","","","","","","","","","",""
"html-keyboard-response","11","2836223","0.0-3.0-1.0-2.1","137f566121267ed5ef6a960c84c7047acd8407087476e648788ba3b221c6a6f8","arctic","swim","null","","<p>Incorrect</p>","","null","","","","","","","","","","","","","","","","","","","",""
"html-keyboard-response","12","2836735","0.0-3.0-1.0-0.2","137f566121267ed5ef6a960c84c7047acd8407087476e648788ba3b221c6a6f8","arctic","swim","null","","<div style=""font-size:60px;"">+</div>","","null","","","","","","","","","","","","","","","","","","","",""
"audio-button-response","13","2840872","0.0-3.0-1.0-1.2","137f566121267ed5ef6a960c84c7047acd8407087476e648788ba3b221c6a6f8","arctic","swim","4135","","audio/t2_1.mp3","0","","1","0","headphone-test","","","","","","","","","","","","","","","","",""
"html-keyboard-response","14","2841374","0.0-3.0-1.0-2.2","137f566121267ed5ef6a960c84c7047acd8407087476e648788ba3b221c6a6f8","arctic","swim","null","","<p>Incorrect</p>","","null","","","","","","","","","","","","","","","","","","","",""
"html-keyboard-response","15","2841876","0.0-3.0-1.0-0.3","137f566121267ed5ef6a960c84c7047acd8407087476e648788ba3b221c6a6f8","arctic","swim","null","","<div style=""font-size:60px;"">+</div>","","null","","","","","","","","","","","","","","","","","","","",""
"audio-button-response","16","2846231","0.0-3.0-1.0-1.3","137f566121267ed5ef6a960c84c7047acd8407087476e648788ba3b221c6a6f8","arctic","swim","4353","","audio/t3_1.mp3","2","","2","1","headphone-test","","","","","","","","","","","","","","","","",""
"html-keyboard-response","17","2846733","0.0-3.0-1.0-2.3","137f566121267ed5ef6a960c84c7047acd8407087476e648788ba3b221c6a6f8","arctic","swim","null","","<p>Correct</p>","","null","","","","","","","","","","","","","","","","","","","",""
"html-keyboard-response","18","2847234","0.0-3.0-1.0-0.4","137f566121267ed5ef6a960c84c7047acd8407087476e648788ba3b221c6a6f8","arctic","swim","null","","<div style=""font-size:60px;"">+</div>","","null","","","","","","","","","","","","","","","","","","","",""
"audio-button-response","19","2853147","0.0-3.0-1.0-1.4","137f566121267ed5ef6a960c84c7047acd8407087476e648788ba3b221c6a6f8","arctic","swim","5912","","audio/t1_1.mp3","0","","0","1","headphone-test","","","","","","","","","","","","","","","","",""
"html-keyboard-response","20","2853648","0.0-3.0-1.0-2.4","137f566121267ed5ef6a960c84c7047acd8407087476e648788ba3b221c6a6f8","arctic","swim","null","","<p>Correct</p>","","null","","","","","","","","","","","","","","","","","","","",""
"html-keyboard-response","21","2854155","0.0-3.0-1.0-0.5","137f566121267ed5ef6a960c84c7047acd8407087476e648788ba3b221c6a6f8","arctic","swim","null","","<div style=""font-size:60px;"">+</div>","","null","","","","","","","","","","","","","","","","","","","",""
"audio-button-response","22","2858558","0.0-3.0-1.0-1.5","137f566121267ed5ef6a960c84c7047acd8407087476e648788ba3b221c6a6f8","arctic","swim","4401","","audio/t3_2.mp3","1","","2","0","headphone-test","","","","","","","","","","","","","","","","",""
"html-keyboard-response","23","2859066","0.0-3.0-1.0-2.5","137f566121267ed5ef6a960c84c7047acd8407087476e648788ba3b221c6a6f8","arctic","swim","null","","<p>Incorrect</p>","","null","","","","","","","","","","","","","","","","","","","",""
"fullscreen","24","2861091","0.0-4.0","137f566121267ed5ef6a960c84c7047acd8407087476e648788ba3b221c6a6f8","arctic","swim","","","","","","","","","true","","","","","","","","","","","","","","","",""
"html-button-response","25","2864949","0.0-5.0-0.0","137f566121267ed5ef6a960c84c7047acd8407087476e648788ba3b221c6a6f8","arctic","swim","3857","","<p>There are two blocks to this experiment.</p><p>In each block, you will hear a ~13.5 minute story. One of the stories will be scrambled. Please listen carefully to both stories and understand them as best you can.</p><p>After each story, you will be asked some questions to assess your comprehension.</p>","0","","","","","","","","","","","","","","","","","","","","",""
"html-button-response","26","2868638","0.0-5.0-1.0","137f566121267ed5ef6a960c84c7047acd8407087476e648788ba3b221c6a6f8","arctic","swim","3688","","<p>During each story, there will be an additional task.</p><p>A letter will occasionally appear on the screen.</br>Your job is to - as quickly as you can - decide whether the letter is lowercase or uppercase and press one of two keys on the keyboard:</p><p>If the letter is <b>lowercase</b>, press key &lt;<b>x</b>&gt;.</p><p>If the letter is <b>uppercase</b>, press key &lt;<b>m</b>&gt;.</p>","0","","","","","","","","","","","","","","","","","","","","",""
"html-keyboard-response","27","2877647","0.0-5.0-2.0","137f566121267ed5ef6a960c84c7047acd8407087476e648788ba3b221c6a6f8","arctic","swim","9009","","<p>Because we want your responses to be as quick as possible, please keep your index fingers over the keys while listening.</p><p>Each block lasts about 20 minutes.</p><p><b>Press &lt;x&gt; or &lt;m&gt; to start the first block!</b></p>","","88","","","","","","","","","","","","","","","","","","","",""
"html-keyboard-response","28","2878155","0.0-6.0-0.0-0.0","137f566121267ed5ef6a960c84c7047acd8407087476e648788ba3b221c6a6f8","arctic","swim","null","","<div style=""font-size:60px;"" tabindex=""0"">+</div>","","null","","","","","","","","","","","","","","","","","","","",""
"dual-task","null","null","null","","arctic","swim","NA","","b","null","NA","88","0","arctic-dual-task","","b","lowercase","12000","1","2","137f566121267ed5ef6a960c84c7047acd8407087476e648788ba3b221c6a6f8","11999.899999976158","NA","NA","0","arctic","","","","",""
"dual-task","null","null","null","","arctic","swim","1206.2999999523163","","F","null","77","77","1","arctic-dual-task","","F","uppercase","20000","0","2","137f566121267ed5ef6a960c84c7047acd8407087476e648788ba3b221c6a6f8","20000.899999976158","1206.2999999523163","77","1","arctic","","","","",""
"dual-task","null","null","null","","arctic","swim","748.1999999284744","","N","null","77","77","1","arctic-dual-task","","N","uppercase","26000","0","2","137f566121267ed5ef6a960c84c7047acd8407087476e648788ba3b221c6a6f8","25999.399999976158","748.1999999284744","77","1","arctic","","","","",""
"dual-task","null","null","null","","arctic","swim","487.5","","Q","null","77","77","1","arctic-dual-task","","Q","uppercase","36000","0","2","137f566121267ed5ef6a960c84c7047acd8407087476e648788ba3b221c6a6f8","36007.200000047684","487.5","77","1","arctic","","","","",""
"dual-task","null","null","null","","arctic","swim","1071.1000000238419","","D","null","77","77","1","arctic-dual-task","","D","uppercase","48000","0","2","137f566121267ed5ef6a960c84c7047acd8407087476e648788ba3b221c6a6f8","48002","1071.1000000238419","77","1","arctic","","","","",""
"dual-task","null","null","null","","arctic","swim","923.3999999761581","","N","null","77","77","1","arctic-dual-task","","N","uppercase","54000","0","2","137f566121267ed5ef6a960c84c7047acd8407087476e648788ba3b221c6a6f8","54008","923.3999999761581","77","1","arctic","","","","",""
"dual-task","null","null","null","","arctic","swim","1470.5","","b","null","88","88","1","arctic-dual-task","","b","lowercase","62000","0","2","137f566121267ed5ef6a960c84c7047acd8407087476e648788ba3b221c6a6f8","62014.60000002384","1470.5","88","1","arctic","","","","",""
"dual-task","null","null","null","","arctic","swim","705.5999999046326","","B","null","77","77","1","arctic-dual-task","","B","uppercase","72000","0","2","137f566121267ed5ef6a960c84c7047acd8407087476e648788ba3b221c6a6f8","72014.5","705.5999999046326","77","1","arctic","","","","",""
"dual-task","null","null","null","","arctic","swim","1032.5","","b","null","88","88","1","arctic-dual-task","","b","lowercase","78000","0","2","137f566121267ed5ef6a960c84c7047acd8407087476e648788ba3b221c6a6f8","77999.39999997616","1032.5","88","1","arctic","","","","",""
"dual-task","null","null","null","","arctic","swim","1019.6000000238419","","G","null","77","77","1","arctic-dual-task","","G","uppercase","90000","0","2","137f566121267ed5ef6a960c84c7047acd8407087476e648788ba3b221c6a6f8","90000.70000004768","1019.6000000238419","77","1","arctic","","","","",""
"dual-task","null","null","null","","arctic","swim","1230.3999999761581","","E","null","77","77","1","arctic-dual-task","","E","uppercase","96000","0","2","137f566121267ed5ef6a960c84c7047acd8407087476e648788ba3b221c6a6f8","96000.20000004768","1230.3999999761581","77","1","arctic","","","","",""
"dual-task","null","null","null","","arctic","swim","596.2000000476837","","q","null","88","88","1","arctic-dual-task","","q","lowercase","102000","0","2","137f566121267ed5ef6a960c84c7047acd8407087476e648788ba3b221c6a6f8","102013.79999995232","596.2000000476837","88","1","arctic","","","","",""
"dual-task","null","null","null","","arctic","swim","655.9000000953674","","E","null","77","77","1","arctic-dual-task","","E","uppercase","114000","0","2","137f566121267ed5ef6a960c84c7047acd8407087476e648788ba3b221c6a6f8","114015.20000004768","655.9000000953674","77","1","arctic","","","","",""
"dual-task","null","null","null","","arctic","swim","1755.7000000476837","","n","null","88","88","1","arctic-dual-task","","n","lowercase","126000","0","2","137f566121267ed5ef6a960c84c7047acd8407087476e648788ba3b221c6a6f8","126014.39999997616","1755.7000000476837","88","1","arctic","","","","",""
"dual-task","null","null","null","","arctic","swim","708.5","","G","null","77","77","1","arctic-dual-task","","G","uppercase","138000","0","2","137f566121267ed5ef6a960c84c7047acd8407087476e648788ba3b221c6a6f8","138012.89999997616","708.5","77","1","arctic","","","","",""
"dual-task","null","null","null","","arctic","swim","670.3000000715256","","g","null","88","88","1","arctic-dual-task","","g","lowercase","148000","0","2","137f566121267ed5ef6a960c84c7047acd8407087476e648788ba3b221c6a6f8","147999.70000004768","670.3000000715256","88","1","arctic","","","","",""
"dual-task","null","null","null","","arctic","swim","994.8000000715256","","n","null","88","88","1","arctic-dual-task","","n","lowercase","158000","0","2","137f566121267ed5ef6a960c84c7047acd8407087476e648788ba3b221c6a6f8","158014.29999995232","994.8000000715256","88","1","arctic","","","","",""
"dual-task","null","null","null","","arctic","swim","659.1000000238419","","R","null","77","77","1","arctic-dual-task","","R","uppercase","166000","0","2","137f566121267ed5ef6a960c84c7047acd8407087476e648788ba3b221c6a6f8","166008.39999997616","659.1000000238419","77","1","arctic","","","","",""
"dual-task","null","null","null","","arctic","swim","867.1000000238419","","A","null","77","77","1","arctic-dual-task","","A","uppercase","174000","0","2","137f566121267ed5ef6a960c84c7047acd8407087476e648788ba3b221c6a6f8","174014.5","867.1000000238419","77","1","arctic","","","","",""
"dual-task","null","null","null","","arctic","swim","792.2999999523163","","D","null","77","77","1","arctic-dual-task","","D","uppercase","182000","0","2","137f566121267ed5ef6a960c84c7047acd8407087476e648788ba3b221c6a6f8","182013.20000004768","792.2999999523163","77","1","arctic","","","","",""
"dual-task","null","null","null","","arctic","swim","1793.8999999761581","","a","null","88","88","1","arctic-dual-task","","a","lowercase","190000","0","2","137f566121267ed5ef6a960c84c7047acd8407087476e648788ba3b221c6a6f8","189999.60000002384","1793.8999999761581","88","1","arctic","","","","",""
"dual-task","null","null","null","","arctic","swim","751.8000000715256","","D","null","77","77","1","arctic-dual-task","","D","uppercase","198000","0","2","137f566121267ed5ef6a960c84c7047acd8407087476e648788ba3b221c6a6f8","198008.39999997616","751.8000000715256","77","1","arctic","","","","",""
"dual-task","null","null","null","","arctic","swim","667.6000000238419","","g","null","88","88","1","arctic-dual-task","","g","lowercase","210000","0","2","137f566121267ed5ef6a960c84c7047acd8407087476e648788ba3b221c6a6f8","210014.39999997616","667.6000000238419","88","1","arctic","","","","",""
"dual-task","null","null","null","","arctic","swim","1417.7000000476837","","f","null","88","88","1","arctic-dual-task","","f","lowercase","222000","0","2","137f566121267ed5ef6a960c84c7047acd8407087476e648788ba3b221c6a6f8","222014.29999995232","1417.7000000476837","88","1","arctic","","","","",""
"dual-task","null","null","null","","arctic","swim","695.3000000715256","","r","null","88","88","1","arctic-dual-task","","r","lowercase","236000","0","2","137f566121267ed5ef6a960c84c7047acd8407087476e648788ba3b221c6a6f8","236012.29999995232","695.3000000715256","88","1","arctic","","","","",""
"dual-task","null","null","null","","arctic","swim","847.6000000238419","","a","null","88","88","1","arctic-dual-task","","a","lowercase","250000","0","2","137f566121267ed5ef6a960c84c7047acd8407087476e648788ba3b221c6a6f8","250007.79999995232","847.6000000238419","88","1","arctic","","","","",""
"dual-task","null","null","null","","arctic","swim","NA","","f","null","NA","88","0","arctic-dual-task","","f","lowercase","258000","1","2","137f566121267ed5ef6a960c84c7047acd8407087476e648788ba3b221c6a6f8","258015.29999995232","NA","NA","0","arctic","","","","",""
"dual-task","null","null","null","","arctic","swim","603.5999999046326","","b","null","88","88","1","arctic-dual-task","","b","lowercase","268000","0","2","137f566121267ed5ef6a960c84c7047acd8407087476e648788ba3b221c6a6f8","268015.60000002384","603.5999999046326","88","1","arctic","","","","",""
"dual-task","null","null","null","","arctic","swim","589.6999999284744","","g","null","88","88","1","arctic-dual-task","","g","lowercase","278000","0","2","137f566121267ed5ef6a960c84c7047acd8407087476e648788ba3b221c6a6f8","278014.5","589.6999999284744","88","1","arctic","","","","",""
"dual-task","null","null","null","","arctic","swim","1829.8999999761581","","R","null","77","77","1","arctic-dual-task","","R","uppercase","284000","0","2","137f566121267ed5ef6a960c84c7047acd8407087476e648788ba3b221c6a6f8","284004.10000002384","1829.8999999761581","77","1","arctic","","","","",""
"dual-task","null","null","null","","arctic","swim","NA","","H","null","NA","77","0","arctic-dual-task","","H","uppercase","292000","1","2","137f566121267ed5ef6a960c84c7047acd8407087476e648788ba3b221c6a6f8","292000.10000002384","NA","NA","0","arctic","","","","",""
"dual-task","null","null","null","","arctic","swim","1468.6000000238419","","e","null","88","88","1","arctic-dual-task","","e","lowercase","304000","0","2","137f566121267ed5ef6a960c84c7047acd8407087476e648788ba3b221c6a6f8","304013.39999997616","1468.6000000238419","88","1","arctic","","","","",""
"dual-task","null","null","null","","arctic","swim","1889.3000000715256","","F","null","77","77","1","arctic-dual-task","","F","uppercase","310000","0","2","137f566121267ed5ef6a960c84c7047acd8407087476e648788ba3b221c6a6f8","310015.39999997616","1889.3000000715256","77","1","arctic","","","","",""
"dual-task","null","null","null","","arctic","swim","723.3999999761581","","e","null","88","88","1","arctic-dual-task","","e","lowercase","322000","0","2","137f566121267ed5ef6a960c84c7047acd8407087476e648788ba3b221c6a6f8","322013.60000002384","723.3999999761581","88","1","arctic","","","","",""
"dual-task","null","null","null","","arctic","swim","1291.8999999761581","","A","null","77","77","1","arctic-dual-task","","A","uppercase","336000","0","2","137f566121267ed5ef6a960c84c7047acd8407087476e648788ba3b221c6a6f8","336014.39999997616","1291.8999999761581","77","1","arctic","","","","",""
"dual-task","null","null","null","","arctic","swim","1001.7000000476837","","F","null","77","77","1","arctic-dual-task","","F","uppercase","344000","0","2","137f566121267ed5ef6a960c84c7047acd8407087476e648788ba3b221c6a6f8","344014.39999997616","1001.7000000476837","77","1","arctic","","","","",""
"dual-task","null","null","null","","arctic","swim","1031.3000000715256","","E","null","77","77","1","arctic-dual-task","","E","uppercase","358000","0","2","137f566121267ed5ef6a960c84c7047acd8407087476e648788ba3b221c6a6f8","358012.89999997616","1031.3000000715256","77","1","arctic","","","","",""
"dual-task","null","null","null","","arctic","swim","1664.5","","A","null","77","77","1","arctic-dual-task","","A","uppercase","370000","0","2","137f566121267ed5ef6a960c84c7047acd8407087476e648788ba3b221c6a6f8","370002.10000002384","1664.5","77","1","arctic","","","","",""
"dual-task","null","null","null","","arctic","swim","943.3999999761581","","e","null","88","88","1","arctic-dual-task","","e","lowercase","380000","0","2","137f566121267ed5ef6a960c84c7047acd8407087476e648788ba3b221c6a6f8","380012.60000002384","943.3999999761581","88","1","arctic","","","","",""
"dual-task","null","null","null","","arctic","swim","1354.0999999046326","","N","null","77","77","1","arctic-dual-task","","N","uppercase","392000","0","2","137f566121267ed5ef6a960c84c7047acd8407087476e648788ba3b221c6a6f8","392014.10000002384","1354.0999999046326","77","1","arctic","","","","",""
"dual-task","null","null","null","","arctic","swim","1488.7000000476837","","T","null","77","77","1","arctic-dual-task","","T","uppercase","400000","0","2","137f566121267ed5ef6a960c84c7047acd8407087476e648788ba3b221c6a6f8","400001.7999999523","1488.7000000476837","77","1","arctic","","","","",""
"dual-task","null","null","null","","arctic","swim","1877","","f","null","88","88","1","arctic-dual-task","","f","lowercase","408000","0","2","137f566121267ed5ef6a960c84c7047acd8407087476e648788ba3b221c6a6f8","408003.10000002384","1877","88","1","arctic","","","","",""
"dual-task","null","null","null","","arctic","swim","903.0999999046326","","H","null","77","77","1","arctic-dual-task","","H","uppercase","420000","0","2","137f566121267ed5ef6a960c84c7047acd8407087476e648788ba3b221c6a6f8","420001.2000000477","903.0999999046326","77","1","arctic","","","","",""
"dual-task","null","null","null","","arctic","swim","810.2999999523163","","d","null","88","88","1","arctic-dual-task","","d","lowercase","430000","0","2","137f566121267ed5ef6a960c84c7047acd8407087476e648788ba3b221c6a6f8","430012.60000002384","810.2999999523163","88","1","arctic","","","","",""
"dual-task","null","null","null","","arctic","swim","992.1000000238419","","D","null","77","77","1","arctic-dual-task","","D","uppercase","442000","0","2","137f566121267ed5ef6a960c84c7047acd8407087476e648788ba3b221c6a6f8","442013.5","992.1000000238419","77","1","arctic","","","","",""
"dual-task","null","null","null","","arctic","swim","958.8999999761581","","n","null","88","88","1","arctic-dual-task","","n","lowercase","456000","0","2","137f566121267ed5ef6a960c84c7047acd8407087476e648788ba3b221c6a6f8","456015","958.8999999761581","88","1","arctic","","","","",""
"dual-task","null","null","null","","arctic","swim","769","","A","null","77","77","1","arctic-dual-task","","A","uppercase","464000","0","2","137f566121267ed5ef6a960c84c7047acd8407087476e648788ba3b221c6a6f8","464013.7999999523","769","77","1","arctic","","","","",""
"dual-task","null","null","null","","arctic","swim","729.2999999523163","","H","null","77","77","1","arctic-dual-task","","H","uppercase","470000","0","2","137f566121267ed5ef6a960c84c7047acd8407087476e648788ba3b221c6a6f8","470001","729.2999999523163","77","1","arctic","","","","",""
"dual-task","null","null","null","","arctic","swim","612.6000000238419","","B","null","77","77","1","arctic-dual-task","","B","uppercase","476000","0","2","137f566121267ed5ef6a960c84c7047acd8407087476e648788ba3b221c6a6f8","476015.2000000477","612.6000000238419","77","1","arctic","","","","",""
"dual-task","null","null","null","","arctic","swim","905.3999999761581","","h","null","88","88","1","arctic-dual-task","","h","lowercase","490000","0","2","137f566121267ed5ef6a960c84c7047acd8407087476e648788ba3b221c6a6f8","490014.2000000477","905.3999999761581","88","1","arctic","","","","",""
"dual-task","null","null","null","","arctic","swim","715.1000000238419","","T","null","77","77","1","arctic-dual-task","","T","uppercase","502000","0","2","137f566121267ed5ef6a960c84c7047acd8407087476e648788ba3b221c6a6f8","502015","715.1000000238419","77","1","arctic","","","","",""
"dual-task","null","null","null","","arctic","swim","737.3999999761581","","r","null","88","88","1","arctic-dual-task","","r","lowercase","510000","0","2","137f566121267ed5ef6a960c84c7047acd8407087476e648788ba3b221c6a6f8","510015.5","737.3999999761581","88","1","arctic","","","","",""
"dual-task","null","null","null","","arctic","swim","827.8999999761581","","q","null","88","88","1","arctic-dual-task","","q","lowercase","516000","0","2","137f566121267ed5ef6a960c84c7047acd8407087476e648788ba3b221c6a6f8","516014.89999997616","827.8999999761581","88","1","arctic","","","","",""
"dual-task","null","null","null","","arctic","swim","903.0999999046326","","B","null","77","77","1","arctic-dual-task","","B","uppercase","526000","0","2","137f566121267ed5ef6a960c84c7047acd8407087476e648788ba3b221c6a6f8","526015.2000000477","903.0999999046326","77","1","arctic","","","","",""
"dual-task","null","null","null","","arctic","swim","889.6999999284744","","Q","null","77","77","1","arctic-dual-task","","Q","uppercase","538000","0","2","137f566121267ed5ef6a960c84c7047acd8407087476e648788ba3b221c6a6f8","538014.7000000477","889.6999999284744","77","1","arctic","","","","",""
"dual-task","null","null","null","","arctic","swim","666.3999999761581","","Q","null","77","77","1","arctic-dual-task","","Q","uppercase","552000","0","2","137f566121267ed5ef6a960c84c7047acd8407087476e648788ba3b221c6a6f8","552014.5","666.3999999761581","77","1","arctic","","","","",""
"dual-task","null","null","null","","arctic","swim","1440.7999999523163","","q","null","88","88","1","arctic-dual-task","","q","lowercase","564000","0","2","137f566121267ed5ef6a960c84c7047acd8407087476e648788ba3b221c6a6f8","564000.1000000238","1440.7999999523163","88","1","arctic","","","","",""
"dual-task","null","null","null","","arctic","swim","864.3999999761581","","N","null","77","77","1","arctic-dual-task","","N","uppercase","572000","0","2","137f566121267ed5ef6a960c84c7047acd8407087476e648788ba3b221c6a6f8","572012.2000000477","864.3999999761581","77","1","arctic","","","","",""
"dual-task","null","null","null","","arctic","swim","797.5999999046326","","a","null","88","88","1","arctic-dual-task","","a","lowercase","582000","0","2","137f566121267ed5ef6a960c84c7047acd8407087476e648788ba3b221c6a6f8","582010.2000000477","797.5999999046326","88","1","arctic","","","","",""
"dual-task","null","null","null","","arctic","swim","676.5","","Q","null","77","77","1","arctic-dual-task","","Q","uppercase","590000","0","2","137f566121267ed5ef6a960c84c7047acd8407087476e648788ba3b221c6a6f8","590000.5","676.5","77","1","arctic","","","","",""
"dual-task","null","null","null","","arctic","swim","691.7000000476837","","q","null","88","88","1","arctic-dual-task","","q","lowercase","596000","0","2","137f566121267ed5ef6a960c84c7047acd8407087476e648788ba3b221c6a6f8","596013.7999999523","691.7000000476837","88","1","arctic","","","","",""
"dual-task","null","null","null","","arctic","swim","1226.9000000953674","","f","null","88","88","1","arctic-dual-task","","f","lowercase","604000","0","2","137f566121267ed5ef6a960c84c7047acd8407087476e648788ba3b221c6a6f8","604013.2999999523","1226.9000000953674","88","1","arctic","","","","",""
"dual-task","null","null","null","","arctic","swim","977.1999999284744","","d","null","88","88","1","arctic-dual-task","","d","lowercase","612000","0","2","137f566121267ed5ef6a960c84c7047acd8407087476e648788ba3b221c6a6f8","612014.1000000238","977.1999999284744","88","1","arctic","","","","",""
"dual-task","null","null","null","","arctic","swim","1076.2999999523163","","E","null","77","77","1","arctic-dual-task","","E","uppercase","624000","0","2","137f566121267ed5ef6a960c84c7047acd8407087476e648788ba3b221c6a6f8","624015.1000000238","1076.2999999523163","77","1","arctic","","","","",""
"dual-task","null","null","null","","arctic","swim","1590","","R","null","77","77","1","arctic-dual-task","","R","uppercase","632000","0","2","137f566121267ed5ef6a960c84c7047acd8407087476e648788ba3b221c6a6f8","632011.8999999762","1590","77","1","arctic","","","","",""
"dual-task","null","null","null","","arctic","swim","1592","","d","null","88","88","1","arctic-dual-task","","d","lowercase","644000","0","2","137f566121267ed5ef6a960c84c7047acd8407087476e648788ba3b221c6a6f8","644014.6000000238","1592","88","1","arctic","","","","",""
"dual-task","null","null","null","","arctic","swim","775.1000000238419","","R","null","77","77","1","arctic-dual-task","","R","uppercase","654000","0","2","137f566121267ed5ef6a960c84c7047acd8407087476e648788ba3b221c6a6f8","654000.8999999762","775.1000000238419","77","1","arctic","","","","",""
"dual-task","null","null","null","","arctic","swim","826.0999999046326","","B","null","77","77","1","arctic-dual-task","","B","uppercase","664000","0","2","137f566121267ed5ef6a960c84c7047acd8407087476e648788ba3b221c6a6f8","664001.1000000238","826.0999999046326","77","1","arctic","","","","",""
"dual-task","null","null","null","","arctic","swim","801.3999999761581","","H","null","77","77","1","arctic-dual-task","","H","uppercase","672000","0","2","137f566121267ed5ef6a960c84c7047acd8407087476e648788ba3b221c6a6f8","672000.1000000238","801.3999999761581","77","1","arctic","","","","",""
"dual-task","null","null","null","","arctic","swim","1178.4000000953674","","h","null","88","88","1","arctic-dual-task","","h","lowercase","678000","0","2","137f566121267ed5ef6a960c84c7047acd8407087476e648788ba3b221c6a6f8","678012.7000000477","1178.4000000953674","88","1","arctic","","","","",""
"dual-task","null","null","null","","arctic","swim","724.7000000476837","","t","null","88","88","1","arctic-dual-task","","t","lowercase","686000","0","2","137f566121267ed5ef6a960c84c7047acd8407087476e648788ba3b221c6a6f8","686014.3999999762","724.7000000476837","88","1","arctic","","","","",""
"dual-task","null","null","null","","arctic","swim","1850.8999999761581","","n","null","88","88","1","arctic-dual-task","","n","lowercase","698000","0","2","137f566121267ed5ef6a960c84c7047acd8407087476e648788ba3b221c6a6f8","698015.7000000477","1850.8999999761581","88","1","arctic","","","","",""
"dual-task","null","null","null","","arctic","swim","1324.2999999523163","","G","null","77","77","1","arctic-dual-task","","G","uppercase","712000","0","2","137f566121267ed5ef6a960c84c7047acd8407087476e648788ba3b221c6a6f8","712014.8999999762","1324.2999999523163","77","1","arctic","","","","",""
"dual-task","null","null","null","","arctic","swim","738.1999999284744","","G","null","77","77","1","arctic-dual-task","","G","uppercase","718000","0","2","137f566121267ed5ef6a960c84c7047acd8407087476e648788ba3b221c6a6f8","718014.6000000238","738.1999999284744","77","1","arctic","","","","",""
"dual-task","null","null","null","","arctic","swim","701","","a","null","88","88","1","arctic-dual-task","","a","lowercase","732000","0","2","137f566121267ed5ef6a960c84c7047acd8407087476e648788ba3b221c6a6f8","732015","701","88","1","arctic","","","","",""
"dual-task","null","null","null","","arctic","swim","1006","","e","null","88","88","1","arctic-dual-task","","e","lowercase","738000","0","2","137f566121267ed5ef6a960c84c7047acd8407087476e648788ba3b221c6a6f8","738007","1006","88","1","arctic","","","","",""
"dual-task","null","null","null","","arctic","swim","679.6999999284744","","t","null","88","88","1","arctic-dual-task","","t","lowercase","752000","0","2","137f566121267ed5ef6a960c84c7047acd8407087476e648788ba3b221c6a6f8","752014.2000000477","679.6999999284744","88","1","arctic","","","","",""
"dual-task","null","null","null","","arctic","swim","712.3999999761581","","h","null","88","88","1","arctic-dual-task","","h","lowercase","760000","0","2","137f566121267ed5ef6a960c84c7047acd8407087476e648788ba3b221c6a6f8","760012.5","712.3999999761581","88","1","arctic","","","","",""
"dual-task","null","null","null","","arctic","swim","701.3999999761581","","t","null","88","88","1","arctic-dual-task","","t","lowercase","768000","0","2","137f566121267ed5ef6a960c84c7047acd8407087476e648788ba3b221c6a6f8","768014","701.3999999761581","88","1","arctic","","","","",""
"dual-task","null","null","null","","arctic","swim","986.9000000953674","","d","null","88","88","1","arctic-dual-task","","d","lowercase","780000","0","2","137f566121267ed5ef6a960c84c7047acd8407087476e648788ba3b221c6a6f8","780015.7999999523","986.9000000953674","88","1","arctic","","","","",""
"audio-keyboard-response","29","3676206","0.0-6.0-0.0-1.0","137f566121267ed5ef6a960c84c7047acd8407087476e648788ba3b221c6a6f8","arctic","swim","null","","audio/story_arctic.mp3","","null","","","","","","","","","","","","","","","","","","","",""
"html-button-response","30","3679475","0.0-6.0-0.0-2.0","137f566121267ed5ef6a960c84c7047acd8407087476e648788ba3b221c6a6f8","arctic","swim","3268","","<p>This concludes the story. Thank you for listening.</p><p>You will now answer some questions about the content of the story.</p>","0","","","","","","","","","","","","","","","","","","","","",""
"survey-multi-choice","31","3683836","0.0-6.0-0.0-3.0-0.0","137f566121267ed5ef6a960c84c7047acd8407087476e648788ba3b221c6a6f8","arctic","swim","4357","","<b>How did the narrator&#39;s encounter with the polar bears end?</b>","","","","1","arctic-comprehension","","","","","","","","","","","","","{""Q0"":""The bears walked back to their den.""}","","","",""
"survey-multi-choice","32","3687524","0.0-6.0-0.0-3.0-0.1","137f566121267ed5ef6a960c84c7047acd8407087476e648788ba3b221c6a6f8","arctic","swim","3429","","<b>What were the weather conditions in the Arctic like the winter of the narrator&#39;s expedition?</b>","","","","1","arctic-comprehension","","","","","","","","","","","","","{""Q0"":""There were more storms than any other winter in recorded history.""}","","","",""
"survey-multi-choice","33","3698387","0.0-6.0-0.0-3.0-0.2","137f566121267ed5ef6a960c84c7047acd8407087476e648788ba3b221c6a6f8","arctic","swim","10606","","<b>What did the narrator do for leisure while in her tent?</b>","","","","1","arctic-comprehension","","","","","","","","","","","","","{""Q0"":""Read""}","","","",""
"survey-multi-choice","34","3715052","0.0-6.0-0.0-3.0-0.3","137f566121267ed5ef6a960c84c7047acd8407087476e648788ba3b221c6a6f8","arctic","swim","16412","","<b>How did the dogs respond when they saw the bears?</b>","","","","1","arctic-comprehension","","","","","","","","","","","","","{""Q0"":""Approached them""}","","","",""
"survey-multi-choice","35","3718782","0.0-6.0-0.0-3.0-0.4","137f566121267ed5ef6a960c84c7047acd8407087476e648788ba3b221c6a6f8","arctic","swim","3475","","<b>How many sponsorships did the narrator receive to support her expedition?</b>","","","","1","arctic-comprehension","","","","","","","","","","","","","{""Q0"":""None""}","","","",""
"survey-multi-choice","36","3722940","0.0-6.0-0.0-3.0-0.5","137f566121267ed5ef6a960c84c7047acd8407087476e648788ba3b221c6a6f8","arctic","swim","3906","","<b>How did the narrator&#39;s neighbour respond when she told him about her expedition?</b>","","","","1","arctic-comprehension","","","","","","","","","","","","","{""Q0"":""He said she was going to fail.""}","","","",""
"survey-multi-choice","37","3727240","0.0-6.0-0.0-3.0-0.6","137f566121267ed5ef6a960c84c7047acd8407087476e648788ba3b221c6a6f8","arctic","swim","4046","","<b>What was the objective of the narrator&#39;s expedition?</b>","","","","1","arctic-comprehension","","","","","","","","","","","","","{""Q0"":""Dogsled across Arctic America""}","","","",""
"survey-multi-choice","38","3738296","0.0-6.0-0.0-3.0-0.7","137f566121267ed5ef6a960c84c7047acd8407087476e648788ba3b221c6a6f8","arctic","swim","10803","","<b>How did the narrator prepare for her expedition?</b>","","","","1","arctic-comprehension","","","","","","","","","","","","","{""Q0"":""Trained in Alaska learning how to dogsled""}","","","",""
"survey-multi-choice","39","3743991","0.0-6.0-0.0-3.0-0.8","137f566121267ed5ef6a960c84c7047acd8407087476e648788ba3b221c6a6f8","arctic","swim","5441","","<b>What is the name of the narrator&#39;s neighbour?</b>","","","","1","arctic-comprehension","","","","","","","","","","","","","{""Q0"":""Dave""}","","","",""
"survey-multi-choice","40","3748636","0.0-6.0-0.0-3.0-0.9","137f566121267ed5ef6a960c84c7047acd8407087476e648788ba3b221c6a6f8","arctic","swim","4392","","<b>Which dog on the narrator&#39;s dog team never followed instructions?</b>","","","","1","arctic-comprehension","","","","","","","","","","","","","{""Q0"":""Robert""}","","","",""
"html-button-response","41","3750177","0.0-6.0-0.0-4.0","137f566121267ed5ef6a960c84c7047acd8407087476e648788ba3b221c6a6f8","arctic","swim","1289","","<p>Thank you for your responses.</p><p>You will now answer some questions about your impressions of the story.</p>","0","","","","","","","","","","","","","","","","","","","","",""
"html-button-response","42","3753015","0.0-6.0-0.0-5.0-0.0","137f566121267ed5ef6a960c84c7047acd8407087476e648788ba3b221c6a6f8","arctic","swim","2836","","MS2","5","","","","arctic-engagement","","","","","","","","","","","","","","6","mental-sim","",""
"html-button-response","43","3754703","0.0-6.0-0.0-5.0-0.1","137f566121267ed5ef6a960c84c7047acd8407087476e648788ba3b221c6a6f8","arctic","swim","1434","","EE4","5","","","","arctic-engagement","","","","","","","","","","","","","","6","emo-engage","",""
"html-button-response","44","3756272","0.0-6.0-0.0-5.0-0.2","137f566121267ed5ef6a960c84c7047acd8407087476e648788ba3b221c6a6f8","arctic","swim","1316","","E7","6","","","","arctic-engagement","","","","","","","","","","","","","","7","enjoyment","",""
"html-button-response","45","3761795","0.0-6.0-0.0-5.0-0.3","137f566121267ed5ef6a960c84c7047acd8407087476e648788ba3b221c6a6f8","arctic","swim","5272","","A5","3","","","","arctic-engagement","","","","","","","","","","","","","","4","absorption","",""
"html-button-response","46","3763735","0.0-6.0-0.0-5.0-0.4","137f566121267ed5ef6a960c84c7047acd8407087476e648788ba3b221c6a6f8","arctic","swim","1689","","E6","6","","","","arctic-engagement","","","","","","","","","","","","","","7","enjoyment","",""
"html-button-response","47","3766572","0.0-6.0-0.0-5.0-0.5","137f566121267ed5ef6a960c84c7047acd8407087476e648788ba3b221c6a6f8","arctic","swim","2586","","A4","4","","","","arctic-engagement","","","","","","","","","","","","","","5","absorption","",""
"html-button-response","48","3768216","0.0-6.0-0.0-5.0-0.6","137f566121267ed5ef6a960c84c7047acd8407087476e648788ba3b221c6a6f8","arctic","swim","1391","","A3","6","","","","arctic-engagement","","","","","","","","","","","","","","7","absorption","",""
"html-button-response","49","3769896","0.0-6.0-0.0-5.0-0.7","137f566121267ed5ef6a960c84c7047acd8407087476e648788ba3b221c6a6f8","arctic","swim","1427","","E10","6","","","","arctic-engagement","","","","","","","","","","","","","","7","enjoyment","",""
"html-button-response","50","3771946","0.0-6.0-0.0-5.0-0.8","137f566121267ed5ef6a960c84c7047acd8407087476e648788ba3b221c6a6f8","arctic","swim","1798","","A2","5","","","","arctic-engagement","","","","","","","","","","","","","","6","absorption","",""
"html-button-response","51","3773683","0.0-6.0-0.0-5.0-0.9","137f566121267ed5ef6a960c84c7047acd8407087476e648788ba3b221c6a6f8","arctic","swim","1484","","MS1","5","","","","arctic-engagement","","","","","","","","","","","","","","6","mental-sim","",""
"html-button-response","52","3776518","0.0-6.0-0.0-5.0-0.10","137f566121267ed5ef6a960c84c7047acd8407087476e648788ba3b221c6a6f8","arctic","swim","2582","","A1","5","","","","arctic-engagement","","","","","","","","","","","","","","6","absorption","",""
"html-button-response","53","3778067","0.0-6.0-0.0-5.0-0.11","137f566121267ed5ef6a960c84c7047acd8407087476e648788ba3b221c6a6f8","arctic","swim","1297","","EE3","6","","","","arctic-engagement","","","","","","","","","","","","","","7","emo-engage","",""
"html-button-response","54","3780011","0.0-6.0-0.0-5.0-0.12","137f566121267ed5ef6a960c84c7047acd8407087476e648788ba3b221c6a6f8","arctic","swim","1692","","EE2","6","","","","arctic-engagement","","","","","","","","","","","","","","7","emo-engage","",""
"html-button-response","55","3781372","0.0-6.0-0.0-5.0-0.13","137f566121267ed5ef6a960c84c7047acd8407087476e648788ba3b221c6a6f8","arctic","swim","1108","","E8","6","","","","arctic-engagement","","","","","","","","","","","","","","7","enjoyment","",""
"html-button-response","56","3783712","0.0-6.0-0.0-5.0-0.14","137f566121267ed5ef6a960c84c7047acd8407087476e648788ba3b221c6a6f8","arctic","swim","2090","","EE1","6","","","","arctic-engagement","","","","","","","","","","","","","","7","emo-engage","",""
"html-button-response","57","3785015","0.0-6.0-0.0-5.0-0.15","137f566121267ed5ef6a960c84c7047acd8407087476e648788ba3b221c6a6f8","arctic","swim","1051","","MS3","5","","","","arctic-engagement","","","","","","","","","","","","","","6","mental-sim","",""
"html-button-response","58","3786804","0.0-6.0-0.0-5.0-0.16","137f566121267ed5ef6a960c84c7047acd8407087476e648788ba3b221c6a6f8","arctic","swim","1536","","EE5","5","","","","arctic-engagement","","","","","","","","","","","","","","6","emo-engage","",""
"html-button-response","59","3788341","0.0-6.0-0.0-5.0-0.17","137f566121267ed5ef6a960c84c7047acd8407087476e648788ba3b221c6a6f8","arctic","swim","1287","","E1","6","","","","arctic-engagement","","","","","","","","","","","","","","7","enjoyment","",""
"html-keyboard-response","60","3793030","0.0-6.0-1.0","137f566121267ed5ef6a960c84c7047acd8407087476e648788ba3b221c6a6f8","arctic","swim","4438","","<p>Thank you for your responses. You will now listen to the second story.</p><p>Remember, as you listen to the story you will see letters appear on the screen.</br>As quickly as possible, press <b>&lt;x&gt;</b> if the letter is lowercase and <b>&lt;m&gt;</b> if the letter is uppercase.</p><p>Press <b>&lt;x&gt;</b> or <b>&lt;m&gt;</b> to begin listening!</p>","","88","","","","","","","","","","","","","","","","","","","",""
"html-keyboard-response","61","3793532","0.0-6.0-2.0-0.0","137f566121267ed5ef6a960c84c7047acd8407087476e648788ba3b221c6a6f8","arctic","swim","null","","<div style=""font-size:60px;"" tabindex=""0"">+</div>","","null","","","","","","","","","","","","","","","","","","","",""
"dual-task","null","null","null","","arctic","swim","901.2000000476837","","f","null","88","88","1","swim-dual-task","","f","lowercase","12000","0","2","137f566121267ed5ef6a960c84c7047acd8407087476e648788ba3b221c6a6f8","12011.799999952316","901.2000000476837","88","1","swim","","","","",""
"dual-task","null","null","null","","arctic","swim","726","","h","null","88","88","1","swim-dual-task","","h","lowercase","24000","0","2","137f566121267ed5ef6a960c84c7047acd8407087476e648788ba3b221c6a6f8","24011.299999952316","726","88","1","swim","","","","",""
"dual-task","null","null","null","","arctic","swim","656.2999999523163","","h","null","88","88","1","swim-dual-task","","h","lowercase","34000","0","2","137f566121267ed5ef6a960c84c7047acd8407087476e648788ba3b221c6a6f8","34015.10000002384","656.2999999523163","88","1","swim","","","","",""
"dual-task","null","null","null","","arctic","swim","1335.3000000715256","","B","null","88","77","0","swim-dual-task","","B","uppercase","42000","0","2","137f566121267ed5ef6a960c84c7047acd8407087476e648788ba3b221c6a6f8","42013.299999952316","1335.3000000715256","88","0","swim","","","","",""
"dual-task","null","null","null","","arctic","swim","720.6999999284744","","H","null","77","77","1","swim-dual-task","","H","uppercase","50000","0","2","137f566121267ed5ef6a960c84c7047acd8407087476e648788ba3b221c6a6f8","50013.200000047684","720.6999999284744","77","1","swim","","","","",""
"dual-task","null","null","null","","arctic","swim","711.1000000238419","","f","null","88","88","1","swim-dual-task","","f","lowercase","58000","0","2","137f566121267ed5ef6a960c84c7047acd8407087476e648788ba3b221c6a6f8","58012.89999997616","711.1000000238419","88","1","swim","","","","",""
"dual-task","null","null","null","","arctic","swim","1084.5","","A","null","77","77","1","swim-dual-task","","A","uppercase","68000","0","2","137f566121267ed5ef6a960c84c7047acd8407087476e648788ba3b221c6a6f8","68014","1084.5","77","1","swim","","","","",""
"dual-task","null","null","null","","arctic","swim","683","","D","null","77","77","1","swim-dual-task","","D","uppercase","78000","0","2","137f566121267ed5ef6a960c84c7047acd8407087476e648788ba3b221c6a6f8","78014.29999995232","683","77","1","swim","","","","",""
"dual-task","null","null","null","","arctic","swim","810.8999999761581","","Q","null","77","77","1","swim-dual-task","","Q","uppercase","86000","0","2","137f566121267ed5ef6a960c84c7047acd8407087476e648788ba3b221c6a6f8","86013","810.8999999761581","77","1","swim","","","","",""
"dual-task","null","null","null","","arctic","swim","636.5999999046326","","F","null","77","77","1","swim-dual-task","","F","uppercase","98000","0","2","137f566121267ed5ef6a960c84c7047acd8407087476e648788ba3b221c6a6f8","98012.5","636.5999999046326","77","1","swim","","","","",""
"dual-task","null","null","null","","arctic","swim","959.8999999761581","","e","null","88","88","1","swim-dual-task","","e","lowercase","110000","0","2","137f566121267ed5ef6a960c84c7047acd8407087476e648788ba3b221c6a6f8","110013.70000004768","959.8999999761581","88","1","swim","","","","",""
"dual-task","null","null","null","","arctic","swim","1021.2999999523163","","q","null","88","88","1","swim-dual-task","","q","lowercase","118000","0","2","137f566121267ed5ef6a960c84c7047acd8407087476e648788ba3b221c6a6f8","118012.20000004768","1021.2999999523163","88","1","swim","","","","",""
"dual-task","null","null","null","","arctic","swim","1248.7000000476837","","t","null","88","88","1","swim-dual-task","","t","lowercase","132000","0","2","137f566121267ed5ef6a960c84c7047acd8407087476e648788ba3b221c6a6f8","132012.5","1248.7000000476837","88","1","swim","","","","",""
"dual-task","null","null","null","","arctic","swim","NA","","q","null","NA","88","0","swim-dual-task","","q","lowercase","146000","1","2","137f566121267ed5ef6a960c84c7047acd8407087476e648788ba3b221c6a6f8","146014.10000002384","NA","NA","0","swim","","","","",""
"dual-task","null","null","null","","arctic","swim","1431.3999999761581","","R","null","77","77","1","swim-dual-task","","R","uppercase","154000","0","2","137f566121267ed5ef6a960c84c7047acd8407087476e648788ba3b221c6a6f8","154013.89999997616","1431.3999999761581","77","1","swim","","","","",""
"dual-task","null","null","null","","arctic","swim","1123.7999999523163","","H","null","77","77","1","swim-dual-task","","H","uppercase","160000","0","2","137f566121267ed5ef6a960c84c7047acd8407087476e648788ba3b221c6a6f8","160011","1123.7999999523163","77","1","swim","","","","",""
"dual-task","null","null","null","","arctic","swim","772.2999999523163","","Q","null","77","77","1","swim-dual-task","","Q","uppercase","170000","0","2","137f566121267ed5ef6a960c84c7047acd8407087476e648788ba3b221c6a6f8","170011","772.2999999523163","77","1","swim","","","","",""
"dual-task","null","null","null","","arctic","swim","1238","","q","null","88","88","1","swim-dual-task","","q","lowercase","182000","0","2","137f566121267ed5ef6a960c84c7047acd8407087476e648788ba3b221c6a6f8","182012.89999997616","1238","88","1","swim","","","","",""
"dual-task","null","null","null","","arctic","swim","869.7000000476837","","R","null","77","77","1","swim-dual-task","","R","uppercase","190000","0","2","137f566121267ed5ef6a960c84c7047acd8407087476e648788ba3b221c6a6f8","190012.79999995232","869.7000000476837","77","1","swim","","","","",""
"dual-task","null","null","null","","arctic","swim","1099.1000000238419","","N","null","77","77","1","swim-dual-task","","N","uppercase","202000","0","2","137f566121267ed5ef6a960c84c7047acd8407087476e648788ba3b221c6a6f8","202011.5","1099.1000000238419","77","1","swim","","","","",""
"dual-task","null","null","null","","arctic","swim","1686.5","","t","null","88","88","1","swim-dual-task","","t","lowercase","214000","0","2","137f566121267ed5ef6a960c84c7047acd8407087476e648788ba3b221c6a6f8","214012.20000004768","1686.5","88","1","swim","","","","",""
"dual-task","null","null","null","","arctic","swim","1109.5","","A","null","77","77","1","swim-dual-task","","A","uppercase","226000","0","2","137f566121267ed5ef6a960c84c7047acd8407087476e648788ba3b221c6a6f8","226014.29999995232","1109.5","77","1","swim","","","","",""
"dual-task","null","null","null","","arctic","swim","1357.2000000476837","","n","null","88","88","1","swim-dual-task","","n","lowercase","234000","0","2","137f566121267ed5ef6a960c84c7047acd8407087476e648788ba3b221c6a6f8","234012.79999995232","1357.2000000476837","88","1","swim","","","","",""
"dual-task","null","null","null","","arctic","swim","1583.7999999523163","","q","null","88","88","1","swim-dual-task","","q","lowercase","242000","0","2","137f566121267ed5ef6a960c84c7047acd8407087476e648788ba3b221c6a6f8","242014.10000002384","1583.7999999523163","88","1","swim","","","","",""
"dual-task","null","null","null","","arctic","swim","1769.2999999523163","","a","null","88","88","1","swim-dual-task","","a","lowercase","248000","0","2","137f566121267ed5ef6a960c84c7047acd8407087476e648788ba3b221c6a6f8","248013","1769.2999999523163","88","1","swim","","","","",""
"dual-task","null","null","null","","arctic","swim","1220.9000000953674","","d","null","88","88","1","swim-dual-task","","d","lowercase","256000","0","2","137f566121267ed5ef6a960c84c7047acd8407087476e648788ba3b221c6a6f8","256014.79999995232","1220.9000000953674","88","1","swim","","","","",""
"dual-task","null","null","null","","arctic","swim","1506.3999999761581","","D","null","77","77","1","swim-dual-task","","D","uppercase","264000","0","2","137f566121267ed5ef6a960c84c7047acd8407087476e648788ba3b221c6a6f8","264013.39999997616","1506.3999999761581","77","1","swim","","","","",""
"dual-task","null","null","null","","arctic","swim","1098.1000000238419","","R","null","77","77","1","swim-dual-task","","R","uppercase","270000","0","2","137f566121267ed5ef6a960c84c7047acd8407087476e648788ba3b221c6a6f8","270012.39999997616","1098.1000000238419","77","1","swim","","","","",""
"dual-task","null","null","null","","arctic","swim","1248.5999999046326","","r","null","88","88","1","swim-dual-task","","r","lowercase","280000","0","2","137f566121267ed5ef6a960c84c7047acd8407087476e648788ba3b221c6a6f8","280012.10000002384","1248.5999999046326","88","1","swim","","","","",""
"dual-task","null","null","null","","arctic","swim","1044.7999999523163","","N","null","77","77","1","swim-dual-task","","N","uppercase","286000","0","2","137f566121267ed5ef6a960c84c7047acd8407087476e648788ba3b221c6a6f8","286011.89999997616","1044.7999999523163","77","1","swim","","","","",""
"dual-task","null","null","null","","arctic","swim","1212.1999999284744","","r","null","88","88","1","swim-dual-task","","r","lowercase","294000","0","2","137f566121267ed5ef6a960c84c7047acd8407087476e648788ba3b221c6a6f8","294011.10000002384","1212.1999999284744","88","1","swim","","","","",""
"dual-task","null","null","null","","arctic","swim","1607.6000000238419","","b","null","88","88","1","swim-dual-task","","b","lowercase","306000","0","2","137f566121267ed5ef6a960c84c7047acd8407087476e648788ba3b221c6a6f8","306014.39999997616","1607.6000000238419","88","1","swim","","","","",""
"dual-task","null","null","null","","arctic","swim","1122","","e","null","88","88","1","swim-dual-task","","e","lowercase","314000","0","2","137f566121267ed5ef6a960c84c7047acd8407087476e648788ba3b221c6a6f8","314010.2999999523","1122","88","1","swim","","","","",""
"dual-task","null","null","null","","arctic","swim","1223","","b","null","88","88","1","swim-dual-task","","b","lowercase","326000","0","2","137f566121267ed5ef6a960c84c7047acd8407087476e648788ba3b221c6a6f8","326013","1223","88","1","swim","","","","",""
"dual-task","null","null","null","","arctic","swim","1082.6999999284744","","d","null","88","88","1","swim-dual-task","","d","lowercase","338000","0","2","137f566121267ed5ef6a960c84c7047acd8407087476e648788ba3b221c6a6f8","338012.60000002384","1082.6999999284744","88","1","swim","","","","",""
"dual-task","null","null","null","","arctic","swim","1522.1999999284744","","A","null","77","77","1","swim-dual-task","","A","uppercase","348000","0","2","137f566121267ed5ef6a960c84c7047acd8407087476e648788ba3b221c6a6f8","348013.2000000477","1522.1999999284744","77","1","swim","","","","",""
"dual-task","null","null","null","","arctic","swim","1206.4000000953674","","h","null","88","88","1","swim-dual-task","","h","lowercase","356000","0","2","137f566121267ed5ef6a960c84c7047acd8407087476e648788ba3b221c6a6f8","356012.7999999523","1206.4000000953674","88","1","swim","","","","",""
"dual-task","null","null","null","","arctic","swim","1671.3000000715256","","d","null","88","88","1","swim-dual-task","","d","lowercase","364000","0","2","137f566121267ed5ef6a960c84c7047acd8407087476e648788ba3b221c6a6f8","364013.39999997616","1671.3000000715256","88","1","swim","","","","",""
"dual-task","null","null","null","","arctic","swim","1272.2999999523163","","T","null","77","77","1","swim-dual-task","","T","uppercase","376000","0","2","137f566121267ed5ef6a960c84c7047acd8407087476e648788ba3b221c6a6f8","376011.89999997616","1272.2999999523163","77","1","swim","","","","",""
"dual-task","null","null","null","","arctic","swim","1218.8999999761581","","g","null","88","88","1","swim-dual-task","","g","lowercase","384000","0","2","137f566121267ed5ef6a960c84c7047acd8407087476e648788ba3b221c6a6f8","384012.39999997616","1218.8999999761581","88","1","swim","","","","",""
"dual-task","null","null","null","","arctic","swim","1496.3999999761581","","r","null","88","88","1","swim-dual-task","","r","lowercase","394000","0","2","137f566121267ed5ef6a960c84c7047acd8407087476e648788ba3b221c6a6f8","394012.2000000477","1496.3999999761581","88","1","swim","","","","",""
"dual-task","null","null","null","","arctic","swim","1155","","B","null","77","77","1","swim-dual-task","","B","uppercase","404000","0","2","137f566121267ed5ef6a960c84c7047acd8407087476e648788ba3b221c6a6f8","404012.7000000477","1155","77","1","swim","","","","",""
"dual-task","null","null","null","","arctic","swim","1271.2999999523163","","f","null","88","88","1","swim-dual-task","","f","lowercase","410000","0","2","137f566121267ed5ef6a960c84c7047acd8407087476e648788ba3b221c6a6f8","410012.60000002384","1271.2999999523163","88","1","swim","","","","",""
"dual-task","null","null","null","","arctic","swim","1192.5","","b","null","88","88","1","swim-dual-task","","b","lowercase","420000","0","2","137f566121267ed5ef6a960c84c7047acd8407087476e648788ba3b221c6a6f8","420013.39999997616","1192.5","88","1","swim","","","","",""
"dual-task","null","null","null","","arctic","swim","1357.6000000238419","","n","null","88","88","1","swim-dual-task","","n","lowercase","430000","0","2","137f566121267ed5ef6a960c84c7047acd8407087476e648788ba3b221c6a6f8","430014.10000002384","1357.6000000238419","88","1","swim","","","","",""
"dual-task","null","null","null","","arctic","swim","1931.5","","a","null","88","88","1","swim-dual-task","","a","lowercase","436000","0","2","137f566121267ed5ef6a960c84c7047acd8407087476e648788ba3b221c6a6f8","436012.60000002384","1931.5","88","1","swim","","","","",""
"dual-task","null","null","null","","arctic","swim","1258.5","","g","null","88","88","1","swim-dual-task","","g","lowercase","442000","0","2","137f566121267ed5ef6a960c84c7047acd8407087476e648788ba3b221c6a6f8","442012.39999997616","1258.5","88","1","swim","","","","",""
"dual-task","null","null","null","","arctic","swim","1058.3999999761581","","h","null","88","88","1","swim-dual-task","","h","lowercase","454000","0","2","137f566121267ed5ef6a960c84c7047acd8407087476e648788ba3b221c6a6f8","454012.2999999523","1058.3999999761581","88","1","swim","","","","",""
"dual-task","null","null","null","","arctic","swim","1131.6000000238419","","G","null","77","77","1","swim-dual-task","","G","uppercase","462000","0","2","137f566121267ed5ef6a960c84c7047acd8407087476e648788ba3b221c6a6f8","462013","1131.6000000238419","77","1","swim","","","","",""
"dual-task","null","null","null","","arctic","swim","685.3000000715256","","a","null","88","88","1","swim-dual-task","","a","lowercase","476000","0","2","137f566121267ed5ef6a960c84c7047acd8407087476e648788ba3b221c6a6f8","476022.89999997616","685.3000000715256","88","1","swim","","","","",""
"dual-task","null","null","null","","arctic","swim","1445.8999999761581","","t","null","88","88","1","swim-dual-task","","t","lowercase","490000","0","2","137f566121267ed5ef6a960c84c7047acd8407087476e648788ba3b221c6a6f8","490007.60000002384","1445.8999999761581","88","1","swim","","","","",""
"dual-task","null","null","null","","arctic","swim","1317.0999999046326","","G","null","77","77","1","swim-dual-task","","G","uppercase","496000","0","2","137f566121267ed5ef6a960c84c7047acd8407087476e648788ba3b221c6a6f8","496013.60000002384","1317.0999999046326","77","1","swim","","","","",""
"dual-task","null","null","null","","arctic","swim","1631","","Q","null","77","77","1","swim-dual-task","","Q","uppercase","510000","0","2","137f566121267ed5ef6a960c84c7047acd8407087476e648788ba3b221c6a6f8","510012.89999997616","1631","77","1","swim","","","","",""
"dual-task","null","null","null","","arctic","swim","1591.9000000953674","","d","null","88","88","1","swim-dual-task","","d","lowercase","520000","0","2","137f566121267ed5ef6a960c84c7047acd8407087476e648788ba3b221c6a6f8","520013.2000000477","1591.9000000953674","88","1","swim","","","","",""
"dual-task","null","null","null","","arctic","swim","1031.8999999761581","","g","null","88","88","1","swim-dual-task","","g","lowercase","528000","0","2","137f566121267ed5ef6a960c84c7047acd8407087476e648788ba3b221c6a6f8","528013.8999999762","1031.8999999761581","88","1","swim","","","","",""
"dual-task","null","null","null","","arctic","swim","1559.3999999761581","","G","null","77","77","1","swim-dual-task","","G","uppercase","540000","0","2","137f566121267ed5ef6a960c84c7047acd8407087476e648788ba3b221c6a6f8","540012.6000000238","1559.3999999761581","77","1","swim","","","","",""
"dual-task","null","null","null","","arctic","swim","1757.2000000476837","","F","null","77","77","1","swim-dual-task","","F","uppercase","546000","0","2","137f566121267ed5ef6a960c84c7047acd8407087476e648788ba3b221c6a6f8","546010.2999999523","1757.2000000476837","77","1","swim","","","","",""
"dual-task","null","null","null","","arctic","swim","1743.8999999761581","","T","null","77","77","1","swim-dual-task","","T","uppercase","554000","0","2","137f566121267ed5ef6a960c84c7047acd8407087476e648788ba3b221c6a6f8","554013.3999999762","1743.8999999761581","77","1","swim","","","","",""
"dual-task","null","null","null","","arctic","swim","1455.5","","B","null","77","77","1","swim-dual-task","","B","uppercase","566000","0","2","137f566121267ed5ef6a960c84c7047acd8407087476e648788ba3b221c6a6f8","566012.8999999762","1455.5","77","1","swim","","","","",""
"dual-task","null","null","null","","arctic","swim","794.8999999761581","","E","null","77","77","1","swim-dual-task","","E","uppercase","578000","0","2","137f566121267ed5ef6a960c84c7047acd8407087476e648788ba3b221c6a6f8","578012.2999999523","794.8999999761581","77","1","swim","","","","",""
"dual-task","null","null","null","","arctic","swim","705.6000000238419","","B","null","77","77","1","swim-dual-task","","B","uppercase","588000","0","2","137f566121267ed5ef6a960c84c7047acd8407087476e648788ba3b221c6a6f8","588011.8999999762","705.6000000238419","77","1","swim","","","","",""
"dual-task","null","null","null","","arctic","swim","901.5","","E","null","77","77","1","swim-dual-task","","E","uppercase","600000","0","2","137f566121267ed5ef6a960c84c7047acd8407087476e648788ba3b221c6a6f8","600006.7000000477","901.5","77","1","swim","","","","",""
"dual-task","null","null","null","","arctic","swim","1344.8999999761581","","g","null","88","88","1","swim-dual-task","","g","lowercase","610000","0","2","137f566121267ed5ef6a960c84c7047acd8407087476e648788ba3b221c6a6f8","610012.1000000238","1344.8999999761581","88","1","swim","","","","",""
"dual-task","null","null","null","","arctic","swim","1420.5","","T","null","77","77","1","swim-dual-task","","T","uppercase","622000","0","2","137f566121267ed5ef6a960c84c7047acd8407087476e648788ba3b221c6a6f8","622011.3999999762","1420.5","77","1","swim","","","","",""
"dual-task","null","null","null","","arctic","swim","NA","","E","null","NA","77","0","swim-dual-task","","E","uppercase","634000","1","2","137f566121267ed5ef6a960c84c7047acd8407087476e648788ba3b221c6a6f8","634011.5","NA","NA","0","swim","","","","",""
"dual-task","null","null","null","","arctic","swim","805.7999999523163","","b","null","88","88","1","swim-dual-task","","b","lowercase","640000","0","2","137f566121267ed5ef6a960c84c7047acd8407087476e648788ba3b221c6a6f8","640010.7000000477","805.7999999523163","88","1","swim","","","","",""
"dual-task","null","null","null","","arctic","swim","1233.3000000715256","","n","null","88","88","1","swim-dual-task","","n","lowercase","652000","0","2","137f566121267ed5ef6a960c84c7047acd8407087476e648788ba3b221c6a6f8","652012.2999999523","1233.3000000715256","88","1","swim","","","","",""
"dual-task","null","null","null","","arctic","swim","1026.7000000476837","","A","null","77","77","1","swim-dual-task","","A","uppercase","662000","0","2","137f566121267ed5ef6a960c84c7047acd8407087476e648788ba3b221c6a6f8","662014.3999999762","1026.7000000476837","77","1","swim","","","","",""
"dual-task","null","null","null","","arctic","swim","1704.7999999523163","","e","null","88","88","1","swim-dual-task","","e","lowercase","672000","0","2","137f566121267ed5ef6a960c84c7047acd8407087476e648788ba3b221c6a6f8","672012.8999999762","1704.7999999523163","88","1","swim","","","","",""
"dual-task","null","null","null","","arctic","swim","NA","","f","null","NA","88","0","swim-dual-task","","f","lowercase","682000","1","2","137f566121267ed5ef6a960c84c7047acd8407087476e648788ba3b221c6a6f8","682012.5","NA","NA","0","swim","","","","",""
"dual-task","null","null","null","","arctic","swim","NA","","N","null","NA","77","0","swim-dual-task","","N","uppercase","690000","1","2","137f566121267ed5ef6a960c84c7047acd8407087476e648788ba3b221c6a6f8","690013.7000000477","NA","NA","0","swim","","","","",""
"dual-task","null","null","null","","arctic","swim","1138.0999999046326","","H","null","77","77","1","swim-dual-task","","H","uppercase","700000","0","2","137f566121267ed5ef6a960c84c7047acd8407087476e648788ba3b221c6a6f8","700007.1000000238","1138.0999999046326","77","1","swim","","","","",""
"dual-task","null","null","null","","arctic","swim","1353.3999999761581","","G","null","77","77","1","swim-dual-task","","G","uppercase","708000","0","2","137f566121267ed5ef6a960c84c7047acd8407087476e648788ba3b221c6a6f8","708012.2999999523","1353.3999999761581","77","1","swim","","","","",""
"dual-task","null","null","null","","arctic","swim","563.8999999761581","","N","null","77","77","1","swim-dual-task","","N","uppercase","716000","0","2","137f566121267ed5ef6a960c84c7047acd8407087476e648788ba3b221c6a6f8","716011.1000000238","563.8999999761581","77","1","swim","","","","",""
"dual-task","null","null","null","","arctic","swim","662.5","","E","null","77","77","1","swim-dual-task","","E","uppercase","724000","0","2","137f566121267ed5ef6a960c84c7047acd8407087476e648788ba3b221c6a6f8","724009.2999999523","662.5","77","1","swim","","","","",""
"dual-task","null","null","null","","arctic","swim","1242.8999999761581","","D","null","77","77","1","swim-dual-task","","D","uppercase","736000","0","2","137f566121267ed5ef6a960c84c7047acd8407087476e648788ba3b221c6a6f8","736007.8999999762","1242.8999999761581","77","1","swim","","","","",""
"dual-task","null","null","null","","arctic","swim","745.8000000715256","","H","null","77","77","1","swim-dual-task","","H","uppercase","744000","0","2","137f566121267ed5ef6a960c84c7047acd8407087476e648788ba3b221c6a6f8","744008.2999999523","745.8000000715256","77","1","swim","","","","",""
"dual-task","null","null","null","","arctic","swim","663.1000000238419","","T","null","77","77","1","swim-dual-task","","T","uppercase","756000","0","2","137f566121267ed5ef6a960c84c7047acd8407087476e648788ba3b221c6a6f8","756012.3999999762","663.1000000238419","77","1","swim","","","","",""
"dual-task","null","null","null","","arctic","swim","1000.8999999761581","","n","null","88","88","1","swim-dual-task","","n","lowercase","768000","0","2","137f566121267ed5ef6a960c84c7047acd8407087476e648788ba3b221c6a6f8","768011.2000000477","1000.8999999761581","88","1","swim","","","","",""
"dual-task","null","null","null","","arctic","swim","844.3999999761581","","Q","null","77","77","1","swim-dual-task","","Q","uppercase","782000","0","2","137f566121267ed5ef6a960c84c7047acd8407087476e648788ba3b221c6a6f8","782042.2999999523","844.3999999761581","77","1","swim","","","","",""
"dual-task","null","null","null","","arctic","swim","1842.1000000238419","","e","null","88","88","1","swim-dual-task","","e","lowercase","790000","0","2","137f566121267ed5ef6a960c84c7047acd8407087476e648788ba3b221c6a6f8","790011.5","1842.1000000238419","88","1","swim","","","","",""
"audio-keyboard-response","62","4603545","0.0-6.0-2.0-1.0","137f566121267ed5ef6a960c84c7047acd8407087476e648788ba3b221c6a6f8","arctic","swim","null","","audio/story_swim_scrambled.mp3","","null","","","","","","","","","","","","","","","","","","","",""
"html-button-response","63","4605535","0.0-6.0-2.0-2.0","137f566121267ed5ef6a960c84c7047acd8407087476e648788ba3b221c6a6f8","arctic","swim","1988","","<p>This concludes the story. Thank you for listening.</p><p>You will now answer some questions about the content of the story.</p>","0","","","","","","","","","","","","","","","","","","","","",""
"survey-multi-choice","64","4610856","0.0-6.0-2.0-3.0-0.0","137f566121267ed5ef6a960c84c7047acd8407087476e648788ba3b221c6a6f8","arctic","swim","5320","","<b>What was the final step of the first swim test in the pool?</b>","","","","1","swim-comprehension","","","","","","","","","","","","","{""Q0"":""Tread water with hands above the water""}","","","",""
"survey-multi-choice","65","4614305","0.0-6.0-2.0-3.0-0.1","137f566121267ed5ef6a960c84c7047acd8407087476e648788ba3b221c6a6f8","arctic","swim","3184","","<b>How many astronaut candidates reported for duty at the Johnson Space Center?</b>","","","","1","swim-comprehension","","","","","","","","","","","","","{""Q0"":""Forty-four""}","","","",""
"survey-multi-choice","66","4618417","0.0-6.0-2.0-3.0-0.2","137f566121267ed5ef6a960c84c7047acd8407087476e648788ba3b221c6a6f8","arctic","swim","3855","","<b>Where is the home of naval aviation?</b>","","","","1","swim-comprehension","","","","","","","","","","","","","{""Q0"":""Pensacola""}","","","",""
"survey-multi-choice","67","4631485","0.0-6.0-2.0-3.0-0.3","137f566121267ed5ef6a960c84c7047acd8407087476e648788ba3b221c6a6f8","arctic","swim","12812","","<b>How often does the narrator swim, now that he is a good swimmer?</b>","","","","0","swim-comprehension","","","","","","","","","","","","","{""Q0"":""Every weekend with his kids""}","","","",""
"survey-multi-choice","68","4640252","0.0-6.0-2.0-3.0-0.4","137f566121267ed5ef6a960c84c7047acd8407087476e648788ba3b221c6a6f8","arctic","swim","8514","","<b>How did the narrator train for his swim test?</b>","","","","1","swim-comprehension","","","","","","","","","","","","","{""Q0"":""Took his kids to the pool every day""}","","","",""
"survey-multi-choice","69","4646258","0.0-6.0-2.0-3.0-0.5","137f566121267ed5ef6a960c84c7047acd8407087476e648788ba3b221c6a6f8","arctic","swim","5751","","<b>What were the astronaut candidates trained to do at the naval air station?</b>","","","","1","swim-comprehension","","","","","","","","","","","","","{""Q0"":""Eject out of aircraft and survive in water long enough to be rescued""}","","","",""
"survey-multi-choice","70","4651015","0.0-6.0-2.0-3.0-0.6","137f566121267ed5ef6a960c84c7047acd8407087476e648788ba3b221c6a6f8","arctic","swim","4504","","<b>What gave the narrator his greatest feeling of accomplishment?</b>","","","","1","swim-comprehension","","","","","","","","","","","","","{""Q0"":""Passing the water survival course""}","","","",""
"survey-multi-choice","71","4656235","0.0-6.0-2.0-3.0-0.7","137f566121267ed5ef6a960c84c7047acd8407087476e648788ba3b221c6a6f8","arctic","swim","4966","","<b>How many times did the astronaut candidates have to complete the final exercise to pass?</b>","","","","1","swim-comprehension","","","","","","","","","","","","","{""Q0"":""Two""}","","","",""
"survey-multi-choice","72","4659562","0.0-6.0-2.0-3.0-0.8","137f566121267ed5ef6a960c84c7047acd8407087476e648788ba3b221c6a6f8","arctic","swim","3075","","<b>What is the narrator afraid of, aside from the water?</b>","","","","1","swim-comprehension","","","","","","","","","","","","","{""Q0"":""Heights""}","","","",""
"survey-multi-choice","73","4662603","0.0-6.0-2.0-3.0-0.9","137f566121267ed5ef6a960c84c7047acd8407087476e648788ba3b221c6a6f8","arctic","swim","2786","","<b>How many astronaut candidates passed the first swim test?</b>","","","","1","swim-comprehension","","","","","","","","","","","","","{""Q0"":""All of them""}","","","",""
"html-button-response","74","4663890","0.0-6.0-2.0-4.0","137f566121267ed5ef6a960c84c7047acd8407087476e648788ba3b221c6a6f8","arctic","swim","1035","","<p>Thank you for your responses.</p><p>You will now answer some questions about your impressions of the story.</p>","0","","","","","","","","","","","","","","","","","","","","",""
"html-button-response","75","4667201","0.0-6.0-2.0-5.0-0.0","137f566121267ed5ef6a960c84c7047acd8407087476e648788ba3b221c6a6f8","arctic","swim","3311","","A4","4","","","","swim-engagement","","","","","","","","","","","","","","5","absorption","",""
"html-button-response","76","4667960","0.0-6.0-2.0-5.0-0.1","137f566121267ed5ef6a960c84c7047acd8407087476e648788ba3b221c6a6f8","arctic","swim","506","","A2","5","","","","swim-engagement","","","","","","","","","","","","","","6","absorption","",""
"html-button-response","77","4669842","0.0-6.0-2.0-5.0-0.2","137f566121267ed5ef6a960c84c7047acd8407087476e648788ba3b221c6a6f8","arctic","swim","1630","","EE2","5","","","","swim-engagement","","","","","","","","","","","","","","6","emo-engage","",""
"html-button-response","78","4671277","0.0-6.0-2.0-5.0-0.3","137f566121267ed5ef6a960c84c7047acd8407087476e648788ba3b221c6a6f8","arctic","swim","1180","","MS3","6","","","","swim-engagement","","","","","","","","","","","","","","7","mental-sim","",""
"html-button-response","79","4672133","0.0-6.0-2.0-5.0-0.4","137f566121267ed5ef6a960c84c7047acd8407087476e648788ba3b221c6a6f8","arctic","swim","604","","A1","5","","","","swim-engagement","","","","","","","","","","","","","","6","absorption","",""
"html-button-response","80","4672896","0.0-6.0-2.0-5.0-0.5","137f566121267ed5ef6a960c84c7047acd8407087476e648788ba3b221c6a6f8","arctic","swim","511","","A3","4","","","","swim-engagement","","","","","","","","","","","","","","5","absorption","",""
"html-button-response","81","4673619","0.0-6.0-2.0-5.0-0.6","137f566121267ed5ef6a960c84c7047acd8407087476e648788ba3b221c6a6f8","arctic","swim","471","","MS2","5","","","","swim-engagement","","","","","","","","","","","","","","6","mental-sim","",""
"html-button-response","82","4674983","0.0-6.0-2.0-5.0-0.7","137f566121267ed5ef6a960c84c7047acd8407087476e648788ba3b221c6a6f8","arctic","swim","1111","","MS1","4","","","","swim-engagement","","","","","","","","","","","","","","5","mental-sim","",""
"html-button-response","83","4676331","0.0-6.0-2.0-5.0-0.8","137f566121267ed5ef6a960c84c7047acd8407087476e648788ba3b221c6a6f8","arctic","swim","1096","","EE3","6","","","","swim-engagement","","","","","","","","","","","","","","7","emo-engage","",""
"html-button-response","84","4677134","0.0-6.0-2.0-5.0-0.9","137f566121267ed5ef6a960c84c7047acd8407087476e648788ba3b221c6a6f8","arctic","swim","551","","EE4","6","","","","swim-engagement","","","","","","","","","","","","","","7","emo-engage","",""
"html-button-response","85","4677814","0.0-6.0-2.0-5.0-0.10","137f566121267ed5ef6a960c84c7047acd8407087476e648788ba3b221c6a6f8","arctic","swim","428","","E1","5","","","","swim-engagement","","","","","","","","","","","","","","6","enjoyment","",""
"html-button-response","86","4678621","0.0-6.0-2.0-5.0-0.11","137f566121267ed5ef6a960c84c7047acd8407087476e648788ba3b221c6a6f8","arctic","swim","556","","E8","5","","","","swim-engagement","","","","","","","","","","","","","","6","enjoyment","",""
"html-button-response","87","4679409","0.0-6.0-2.0-5.0-0.12","137f566121267ed5ef6a960c84c7047acd8407087476e648788ba3b221c6a6f8","arctic","swim","536","","E10","6","","","","swim-engagement","","","","","","","","","","","","","","7","enjoyment","",""
"html-button-response","88","4680490","0.0-6.0-2.0-5.0-0.13","137f566121267ed5ef6a960c84c7047acd8407087476e648788ba3b221c6a6f8","arctic","swim","828","","E7","6","","","","swim-engagement","","","","","","","","","","","","","","7","enjoyment","",""
"html-button-response","89","4681469","0.0-6.0-2.0-5.0-0.14","137f566121267ed5ef6a960c84c7047acd8407087476e648788ba3b221c6a6f8","arctic","swim","727","","E6","6","","","","swim-engagement","","","","","","","","","","","","","","7","enjoyment","",""
"html-button-response","90","4682837","0.0-6.0-2.0-5.0-0.15","137f566121267ed5ef6a960c84c7047acd8407087476e648788ba3b221c6a6f8","arctic","swim","1115","","EE1","5","","","","swim-engagement","","","","","","","","","","","","","","6","emo-engage","",""
"html-button-response","91","4683515","0.0-6.0-2.0-5.0-0.16","137f566121267ed5ef6a960c84c7047acd8407087476e648788ba3b221c6a6f8","arctic","swim","424","","EE5","6","","","","swim-engagement","","","","","","","","","","","","","","7","emo-engage","",""
"html-button-response","92","4684281","0.0-6.0-2.0-5.0-0.17","137f566121267ed5ef6a960c84c7047acd8407087476e648788ba3b221c6a6f8","arctic","swim","513","","A5","6","","","","swim-engagement","","","","","","","","","","","","","","7","absorption","",""
"html-button-response","93","4685779","0.0-8.0","137f566121267ed5ef6a960c84c7047acd8407087476e648788ba3b221c6a6f8","arctic","swim","1245","","<p>Thank you for your responses.</p><p>You will now answer some demographic, hearing, and general health questions.</p>","0","","","","","","","","","","","","","","","","","","","","",""
"survey-multi-choice","94","4688760","0.0-9.0-0.0","137f566121267ed5ef6a960c84c7047acd8407087476e648788ba3b221c6a6f8","arctic","swim","2979","","","","","","","survey","","","","","","","","","","","","","{""Q0"":""Chrome""}","","","browser",""
"survey-text","95","4692300","0.0-9.0-1.0","137f566121267ed5ef6a960c84c7047acd8407087476e648788ba3b221c6a6f8","arctic","swim","3284.100000023842","","","","","","","survey","","","","","","","","","","","","","{""AGE"":""36""}","","","age","36"
"survey-multi-choice","96","4695335","0.0-9.0-2.0","137f566121267ed5ef6a960c84c7047acd8407087476e648788ba3b221c6a6f8","arctic","swim","2782","","","","","","","survey","","","","","","","","","","","","","{""Q0"":""Male""}","","","gender","Male"
"survey-multi-choice","97","4697291","0.0-9.0-4.0","137f566121267ed5ef6a960c84c7047acd8407087476e648788ba3b221c6a6f8","arctic","swim","1703","","","","","","","survey","","","","","","","","","","","","","{""Q0"":""Right""}","","","handedness","Right"
"survey-multi-choice","98","4699561","0.0-9.0-5.0","137f566121267ed5ef6a960c84c7047acd8407087476e648788ba3b221c6a6f8","arctic","swim","2015","","","","","","","survey","","","","","","","","","","","","","{""Q0"":""Bachelor's Degree""}","","","education","Bachelor's Degree"
"survey-text","99","4703847","0.0-10.0-0.0","137f566121267ed5ef6a960c84c7047acd8407087476e648788ba3b221c6a6f8","arctic","swim","4033.2999999523163","","","","","","","survey","","","","","","","","","","","","","{""L1"":""English""}","","","first-language","English"
"survey-text","100","4726488","0.0-10.0-1.0","137f566121267ed5ef6a960c84c7047acd8407087476e648788ba3b221c6a6f8","arctic","swim","22384.399999976158","","","","","","","survey","","","","","","","","","","","","","{""L2name"":""Russian"",""L2fluency"":""4"",""L3name"":""Georgian"",""L3fluency"":""3"",""L4name"":""Spanish"",""L4fluency"":""2""}","","","additional-languages","{""L2name"":""Russian"",""L2fluency"":""4"",""L3name"":""Georgian"",""L3fluency"":""3"",""L4name"":""Spanish"",""L4fluency"":""2""}"
"survey-multi-choice","101","4729041","0.0-10.0-2.0","137f566121267ed5ef6a960c84c7047acd8407087476e648788ba3b221c6a6f8","arctic","swim","2301","","","","","","","survey","","","","","","","","","","","","","{""Q0"":""No""}","","","hearing-aid","No"
"survey-multi-choice","102","4731585","0.0-10.0-3.0","137f566121267ed5ef6a960c84c7047acd8407087476e648788ba3b221c6a6f8","arctic","swim","2292","","","","","","","survey","","","","","","","","","","","","","{""Q0"":""Never""}","","","ringing-ears","Never"
"survey-multi-choice","103","4733994","0.0-10.0-5.0","137f566121267ed5ef6a960c84c7047acd8407087476e648788ba3b221c6a6f8","arctic","swim","2156","","","","","","","survey","","","","","","","","","","","","","{""Q0"":""No""}","","","neuro-disease","No"
"survey-multi-choice","104","4736632","0.0-10.0-7.0","137f566121267ed5ef6a960c84c7047acd8407087476e648788ba3b221c6a6f8","arctic","swim","2385","","","","","","","survey","","","","","","","","","","","","","{""Q0"":""No""}","","","take-meds","No"
"survey-text","105","4739287","0.0-10.0-9.0","137f566121267ed5ef6a960c84c7047acd8407087476e648788ba3b221c6a6f8","arctic","swim","2392.7000000476837","","","","","","","survey","","","","","","","","","","","","","{""HC"":""""}","","","health-concerns",""
"html-button-response","106","4741574","0.0-11.0-0.0","137f566121267ed5ef6a960c84c7047acd8407087476e648788ba3b221c6a6f8","arctic","swim","2033","","<p>How would you describe your musical skills/experiences?</p>","4","","","","survey","","","","","","","","","","","","","","","","music-skill","5"
"survey-multi-choice","107","4743998","0.0-11.0-1.0","137f566121267ed5ef6a960c84c7047acd8407087476e648788ba3b221c6a6f8","arctic","swim","2170","","","","","","","survey","","","","","","","","","","","","","{""Q0"":""Yes""}","","","music-instrument","Yes"
"survey-text","108","4748621","0.0-11.0-2.0-0.0","137f566121267ed5ef6a960c84c7047acd8407087476e648788ba3b221c6a6f8","arctic","swim","4369","","","","","","","survey","","","","","","","","","","","","","{""MEXP"":""12""}","","","music-training-yrs","12"
"html-button-response","109","4751850","0.0-12.0-0.0","137f566121267ed5ef6a960c84c7047acd8407087476e648788ba3b221c6a6f8","arctic","swim","2976","","<p>How would you describe your general hearing abilities?</p>","4","","","","survey","","","","","","","","","","","","","","","","ssq-01","5"
"html-button-response","110","4755495","0.0-12.0-1.0","137f566121267ed5ef6a960c84c7047acd8407087476e648788ba3b221c6a6f8","arctic","swim","3392","","<p>When you talk with someone at a place that strongly reverberates/echoes (e.g., in a church or train station),</br>can you understand what the person says?</p>","10","","","","survey","","","","","","","","","","","","","","","","ssq-02","10"
"html-button-response","111","4757856","0.0-12.0-2.0","137f566121267ed5ef6a960c84c7047acd8407087476e648788ba3b221c6a6f8","arctic","swim","2108","","<p>When you are with a group (~5 people) in a lively restaurant, can you follow the group's conversation?</p>","9","","","","survey","","","","","","","","","","","","","","","","ssq-03","9"
"html-button-response","112","4760506","0.0-12.0-3.0","137f566121267ed5ef6a960c84c7047acd8407087476e648788ba3b221c6a6f8","arctic","swim","2398","","<p>Based on the sound of a bus or truck, can you tell whether it is moving towards or away from you?</p>","9","","","","survey","","","","","","","","","","","","","","","","ssq-04","9"
"html-button-response","113","4762424","0.0-12.0-4.0","137f566121267ed5ef6a960c84c7047acd8407087476e648788ba3b221c6a6f8","arctic","swim","1665","","<p>When you are in an unknown environment, can you tell from which direction a brief sound originates?</p>","9","","","","survey","","","","","","","","","","","","","","","","ssq-05","9"
"html-button-response","114","4765612","0.0-12.0-5.0","137f566121267ed5ef6a960c84c7047acd8407087476e648788ba3b221c6a6f8","arctic","swim","2937","","<p>Are you able to ignore distracting sounds when you concentrate on a specific aspect of your acoustic surrounding?</p>","10","","","","survey","","","","","","","","","","","","","","","","ssq-06","10"
"fullscreen","115","4766865","0.0-13.0","137f566121267ed5ef6a960c84c7047acd8407087476e648788ba3b221c6a6f8","arctic","swim","","","","","","","","","true","","","","","","","","","","","","","","","",""
