"trial_type","trial_index","time_elapsed","internal_node_id","ParticipantID","firstStory","scramStory","rt","url","stimulus","button_pressed","key_press","correctRESP","correct","designation","success","letterStim","letterType","ONSET","TIMEOUT","CONDITION","Participant","ONSET_ACTUAL","RT","RESP","ACC","STORY","responses","response","type","surveyQuestion","QRESP"
"pavlovia","0","26","0.0-0.0","01d92d17ed0ea9d99d2bac6381808c7ee69318be66dd3daf29c6bf4568786f8d","swim","swim","","","","","","","","","","","","","","","","","","","","","","","","",""
"external-html","1","4386","0.0-1.0","01d92d17ed0ea9d99d2bac6381808c7ee69318be66dd3daf29c6bf4568786f8d","swim","swim","4199","consent/consent_updated.html","","","","","","","","","","","","","","","","","","","","","","",""
"html-button-response","2","48629","0.0-2.0-0.0","01d92d17ed0ea9d99d2bac6381808c7ee69318be66dd3daf29c6bf4568786f8d","swim","swim","44237","","<p>Before we begin the main task, you will complete a short volume calibration and headphone check.</p><p>Please make sure you are in a quiet listening environment, that you are wearing headphones, and that your computer's volume is turned on.<p></p>","0","","","","","","","","","","","","","","","","","","","","",""
"html-button-response","3","51100","0.0-2.0-1.0","01d92d17ed0ea9d99d2bac6381808c7ee69318be66dd3daf29c6bf4568786f8d","swim","swim","2208","","<p>The volume calibration will be first.</p><p>You will hear a thirty-second noise. Please adjust your computer's volume so that this noise is being presented at a comfortable level.<p></p>","0","","","","","","","","","","","","","","","","","","","","",""
"audio-button-response","4","55255","0.0-2.0-2.0","01d92d17ed0ea9d99d2bac6381808c7ee69318be66dd3daf29c6bf4568786f8d","swim","swim","3896","","audio/volumetest.mp3","0","","","","","","","","","","","","","","","","","","","","",""
"html-keyboard-response","5","59429","0.0-3.0-0.0","01d92d17ed0ea9d99d2bac6381808c7ee69318be66dd3daf29c6bf4568786f8d","swim","swim","4172","","<p>You will now complete a short headphone check.</p><p>On each trial, you will hear three tones. One of these tones will be quieter than the others. Your task is to identify whether the quiet tone occurred first, second, or third.</p><p>There are six trials in total.<p></p><p></p>(Press SPACEBAR to begin)","","32","","","","","","","","","","","","","","","","","","","",""
"html-keyboard-response","6","60204","0.0-3.0-1.0-0.0","01d92d17ed0ea9d99d2bac6381808c7ee69318be66dd3daf29c6bf4568786f8d","swim","swim","null","","<div style=""font-size:60px;"">+</div>","","null","","","","","","","","","","","","","","","","","","","",""
"audio-button-response","7","65349","0.0-3.0-1.0-1.0","01d92d17ed0ea9d99d2bac6381808c7ee69318be66dd3daf29c6bf4568786f8d","swim","swim","5143","","audio/t1_2.mp3","0","","0","1","headphone-test","","","","","","","","","","","","","","","","",""
"html-keyboard-response","8","65861","0.0-3.0-1.0-2.0","01d92d17ed0ea9d99d2bac6381808c7ee69318be66dd3daf29c6bf4568786f8d","swim","swim","null","","<p>Correct</p>","","null","","","","","","","","","","","","","","","","","","","",""
"html-keyboard-response","9","66372","0.0-3.0-1.0-0.1","01d92d17ed0ea9d99d2bac6381808c7ee69318be66dd3daf29c6bf4568786f8d","swim","swim","null","","<div style=""font-size:60px;"">+</div>","","null","","","","","","","","","","","","","","","","","","","",""
"audio-button-response","10","70728","0.0-3.0-1.0-1.1","01d92d17ed0ea9d99d2bac6381808c7ee69318be66dd3daf29c6bf4568786f8d","swim","swim","4356","","audio/t1_1.mp3","0","","0","1","headphone-test","","","","","","","","","","","","","","","","",""
"html-keyboard-response","11","71232","0.0-3.0-1.0-2.1","01d92d17ed0ea9d99d2bac6381808c7ee69318be66dd3daf29c6bf4568786f8d","swim","swim","null","","<p>Correct</p>","","null","","","","","","","","","","","","","","","","","","","",""
"html-keyboard-response","12","71744","0.0-3.0-1.0-0.2","01d92d17ed0ea9d99d2bac6381808c7ee69318be66dd3daf29c6bf4568786f8d","swim","swim","null","","<div style=""font-size:60px;"">+</div>","","null","","","","","","","","","","","","","","","","","","","",""
"audio-button-response","13","75673","0.0-3.0-1.0-1.2","01d92d17ed0ea9d99d2bac6381808c7ee69318be66dd3daf29c6bf4568786f8d","swim","swim","3929","","audio/t2_1.mp3","1","","1","1","headphone-test","","","","","","","","","","","","","","","","",""
"html-keyboard-response","14","76173","0.0-3.0-1.0-2.2","01d92d17ed0ea9d99d2bac6381808c7ee69318be66dd3daf29c6bf4568786f8d","swim","swim","null","","<p>Correct</p>","","null","","","","","","","","","","","","","","","","","","","",""
"html-keyboard-response","15","76687","0.0-3.0-1.0-0.3","01d92d17ed0ea9d99d2bac6381808c7ee69318be66dd3daf29c6bf4568786f8d","swim","swim","null","","<div style=""font-size:60px;"">+</div>","","null","","","","","","","","","","","","","","","","","","","",""
"audio-button-response","16","80419","0.0-3.0-1.0-1.3","01d92d17ed0ea9d99d2bac6381808c7ee69318be66dd3daf29c6bf4568786f8d","swim","swim","3732","","audio/t2_2.mp3","1","","1","1","headphone-test","","","","","","","","","","","","","","","","",""
"html-keyboard-response","17","80924","0.0-3.0-1.0-2.3","01d92d17ed0ea9d99d2bac6381808c7ee69318be66dd3daf29c6bf4568786f8d","swim","swim","null","","<p>Correct</p>","","null","","","","","","","","","","","","","","","","","","","",""
"html-keyboard-response","18","81432","0.0-3.0-1.0-0.4","01d92d17ed0ea9d99d2bac6381808c7ee69318be66dd3daf29c6bf4568786f8d","swim","swim","null","","<div style=""font-size:60px;"">+</div>","","null","","","","","","","","","","","","","","","","","","","",""
"audio-button-response","19","85333","0.0-3.0-1.0-1.4","01d92d17ed0ea9d99d2bac6381808c7ee69318be66dd3daf29c6bf4568786f8d","swim","swim","3900","","audio/t3_2.mp3","2","","2","1","headphone-test","","","","","","","","","","","","","","","","",""
"html-keyboard-response","20","85836","0.0-3.0-1.0-2.4","01d92d17ed0ea9d99d2bac6381808c7ee69318be66dd3daf29c6bf4568786f8d","swim","swim","null","","<p>Correct</p>","","null","","","","","","","","","","","","","","","","","","","",""
"html-keyboard-response","21","86344","0.0-3.0-1.0-0.5","01d92d17ed0ea9d99d2bac6381808c7ee69318be66dd3daf29c6bf4568786f8d","swim","swim","null","","<div style=""font-size:60px;"">+</div>","","null","","","","","","","","","","","","","","","","","","","",""
"audio-button-response","22","90153","0.0-3.0-1.0-1.5","01d92d17ed0ea9d99d2bac6381808c7ee69318be66dd3daf29c6bf4568786f8d","swim","swim","3807","","audio/t3_1.mp3","2","","2","1","headphone-test","","","","","","","","","","","","","","","","",""
"html-keyboard-response","23","90656","0.0-3.0-1.0-2.5","01d92d17ed0ea9d99d2bac6381808c7ee69318be66dd3daf29c6bf4568786f8d","swim","swim","null","","<p>Correct</p>","","null","","","","","","","","","","","","","","","","","","","",""
"fullscreen","24","92957","0.0-4.0","01d92d17ed0ea9d99d2bac6381808c7ee69318be66dd3daf29c6bf4568786f8d","swim","swim","","","","","","","","","true","","","","","","","","","","","","","","","",""
"html-button-response","25","97699","0.0-5.0-0.0","01d92d17ed0ea9d99d2bac6381808c7ee69318be66dd3daf29c6bf4568786f8d","swim","swim","4742","","<p>There are two blocks to this experiment.</p><p>In each block, you will hear a ~13.5 minute story. One of the stories will be scrambled. Please listen carefully to both stories and understand them as best you can.</p><p>After each story, you will be asked some questions to assess your comprehension.</p>","0","","","","","","","","","","","","","","","","","","","","",""
"html-button-response","26","109382","0.0-5.0-1.0","01d92d17ed0ea9d99d2bac6381808c7ee69318be66dd3daf29c6bf4568786f8d","swim","swim","11681","","<p>During each story, there will be an additional task.</p><p>A letter will occasionally appear on the screen.</br>Your job is to - as quickly as you can - decide whether the letter is lowercase or uppercase and press one of two keys on the keyboard:</p><p>If the letter is <b>lowercase</b>, press key &lt;<b>x</b>&gt;.</p><p>If the letter is <b>uppercase</b>, press key &lt;<b>m</b>&gt;.</p>","0","","","","","","","","","","","","","","","","","","","","",""
"html-keyboard-response","27","111358","0.0-5.0-2.0","01d92d17ed0ea9d99d2bac6381808c7ee69318be66dd3daf29c6bf4568786f8d","swim","swim","1976","","<p>Because we want your responses to be as quick as possible, please keep your index fingers over the keys while listening.</p><p>Each block lasts about 20 minutes.</p><p><b>Press &lt;x&gt; or &lt;m&gt; to start the first block!</b></p>","","88","","","","","","","","","","","","","","","","","","","",""
"html-keyboard-response","28","111874","0.0-7.0-0.0-0.0","01d92d17ed0ea9d99d2bac6381808c7ee69318be66dd3daf29c6bf4568786f8d","swim","swim","null","","<div style=""font-size:60px;"" tabindex=""0"">+</div>","","null","","","","","","","","","","","","","","","","","","","",""
"dual-task","null","null","null","","swim","swim","678","","G","null","77","77","1","swim-dual-task","","G","uppercase","12000","0","2","01d92d17ed0ea9d99d2bac6381808c7ee69318be66dd3daf29c6bf4568786f8d","12004","678","77","1","swim","","","","",""
"dual-task","null","null","null","","swim","swim","690","","R","null","77","77","1","swim-dual-task","","R","uppercase","24000","0","2","01d92d17ed0ea9d99d2bac6381808c7ee69318be66dd3daf29c6bf4568786f8d","24001","690","77","1","swim","","","","",""
"dual-task","null","null","null","","swim","swim","623","","A","null","77","77","1","swim-dual-task","","A","uppercase","34000","0","2","01d92d17ed0ea9d99d2bac6381808c7ee69318be66dd3daf29c6bf4568786f8d","34003","623","77","1","swim","","","","",""
"dual-task","null","null","null","","swim","swim","819","","n","null","88","88","1","swim-dual-task","","n","lowercase","42000","0","2","01d92d17ed0ea9d99d2bac6381808c7ee69318be66dd3daf29c6bf4568786f8d","41999","819","88","1","swim","","","","",""
"dual-task","null","null","null","","swim","swim","477","","R","null","77","77","1","swim-dual-task","","R","uppercase","50000","0","2","01d92d17ed0ea9d99d2bac6381808c7ee69318be66dd3daf29c6bf4568786f8d","50012","477","77","1","swim","","","","",""
"dual-task","null","null","null","","swim","swim","518","","e","null","88","88","1","swim-dual-task","","e","lowercase","58000","0","2","01d92d17ed0ea9d99d2bac6381808c7ee69318be66dd3daf29c6bf4568786f8d","58012","518","88","1","swim","","","","",""
"dual-task","null","null","null","","swim","swim","445","","G","null","77","77","1","swim-dual-task","","G","uppercase","68000","0","2","01d92d17ed0ea9d99d2bac6381808c7ee69318be66dd3daf29c6bf4568786f8d","68005","445","77","1","swim","","","","",""
"dual-task","null","null","null","","swim","swim","505","","T","null","77","77","1","swim-dual-task","","T","uppercase","78000","0","2","01d92d17ed0ea9d99d2bac6381808c7ee69318be66dd3daf29c6bf4568786f8d","78008","505","77","1","swim","","","","",""
"dual-task","null","null","null","","swim","swim","493","","d","null","88","88","1","swim-dual-task","","d","lowercase","86000","0","2","01d92d17ed0ea9d99d2bac6381808c7ee69318be66dd3daf29c6bf4568786f8d","86006","493","88","1","swim","","","","",""
"dual-task","null","null","null","","swim","swim","468","","H","null","77","77","1","swim-dual-task","","H","uppercase","98000","0","2","01d92d17ed0ea9d99d2bac6381808c7ee69318be66dd3daf29c6bf4568786f8d","98007","468","77","1","swim","","","","",""
"dual-task","null","null","null","","swim","swim","522","","F","null","77","77","1","swim-dual-task","","F","uppercase","110000","0","2","01d92d17ed0ea9d99d2bac6381808c7ee69318be66dd3daf29c6bf4568786f8d","110000","522","77","1","swim","","","","",""
"dual-task","null","null","null","","swim","swim","470","","Q","null","77","77","1","swim-dual-task","","Q","uppercase","118000","0","2","01d92d17ed0ea9d99d2bac6381808c7ee69318be66dd3daf29c6bf4568786f8d","118005","470","77","1","swim","","","","",""
"dual-task","null","null","null","","swim","swim","472","","T","null","77","77","1","swim-dual-task","","T","uppercase","132000","0","2","01d92d17ed0ea9d99d2bac6381808c7ee69318be66dd3daf29c6bf4568786f8d","132010","472","77","1","swim","","","","",""
"dual-task","null","null","null","","swim","swim","436","","N","null","77","77","1","swim-dual-task","","N","uppercase","146000","0","2","01d92d17ed0ea9d99d2bac6381808c7ee69318be66dd3daf29c6bf4568786f8d","146007","436","77","1","swim","","","","",""
"dual-task","null","null","null","","swim","swim","444","","B","null","77","77","1","swim-dual-task","","B","uppercase","154000","0","2","01d92d17ed0ea9d99d2bac6381808c7ee69318be66dd3daf29c6bf4568786f8d","154007","444","77","1","swim","","","","",""
"dual-task","null","null","null","","swim","swim","600","","Q","null","77","77","1","swim-dual-task","","Q","uppercase","160000","0","2","01d92d17ed0ea9d99d2bac6381808c7ee69318be66dd3daf29c6bf4568786f8d","160003","600","77","1","swim","","","","",""
"dual-task","null","null","null","","swim","swim","607","","d","null","88","88","1","swim-dual-task","","d","lowercase","170000","0","2","01d92d17ed0ea9d99d2bac6381808c7ee69318be66dd3daf29c6bf4568786f8d","170003","607","88","1","swim","","","","",""
"dual-task","null","null","null","","swim","swim","483","","E","null","77","77","1","swim-dual-task","","E","uppercase","182000","0","2","01d92d17ed0ea9d99d2bac6381808c7ee69318be66dd3daf29c6bf4568786f8d","182007","483","77","1","swim","","","","",""
"dual-task","null","null","null","","swim","swim","586","","t","null","88","88","1","swim-dual-task","","t","lowercase","190000","0","2","01d92d17ed0ea9d99d2bac6381808c7ee69318be66dd3daf29c6bf4568786f8d","190000","586","88","1","swim","","","","",""
"dual-task","null","null","null","","swim","swim","562","","N","null","77","77","1","swim-dual-task","","N","uppercase","202000","0","2","01d92d17ed0ea9d99d2bac6381808c7ee69318be66dd3daf29c6bf4568786f8d","202009","562","77","1","swim","","","","",""
"dual-task","null","null","null","","swim","swim","667","","A","null","77","77","1","swim-dual-task","","A","uppercase","214000","0","2","01d92d17ed0ea9d99d2bac6381808c7ee69318be66dd3daf29c6bf4568786f8d","214007","667","77","1","swim","","","","",""
"dual-task","null","null","null","","swim","swim","547","","R","null","77","77","1","swim-dual-task","","R","uppercase","226000","0","2","01d92d17ed0ea9d99d2bac6381808c7ee69318be66dd3daf29c6bf4568786f8d","226000","547","77","1","swim","","","","",""
"dual-task","null","null","null","","swim","swim","565","","n","null","77","88","0","swim-dual-task","","n","lowercase","234000","0","2","01d92d17ed0ea9d99d2bac6381808c7ee69318be66dd3daf29c6bf4568786f8d","234006","565","77","0","swim","","","","",""
"dual-task","null","null","null","","swim","swim","672","","D","null","77","77","1","swim-dual-task","","D","uppercase","242000","0","2","01d92d17ed0ea9d99d2bac6381808c7ee69318be66dd3daf29c6bf4568786f8d","242002","672","77","1","swim","","","","",""
"dual-task","null","null","null","","swim","swim","517","","f","null","88","88","1","swim-dual-task","","f","lowercase","248000","0","2","01d92d17ed0ea9d99d2bac6381808c7ee69318be66dd3daf29c6bf4568786f8d","248013","517","88","1","swim","","","","",""
"dual-task","null","null","null","","swim","swim","423","","D","null","77","77","1","swim-dual-task","","D","uppercase","256000","0","2","01d92d17ed0ea9d99d2bac6381808c7ee69318be66dd3daf29c6bf4568786f8d","256011","423","77","1","swim","","","","",""
"dual-task","null","null","null","","swim","swim","585","","g","null","88","88","1","swim-dual-task","","g","lowercase","264000","0","2","01d92d17ed0ea9d99d2bac6381808c7ee69318be66dd3daf29c6bf4568786f8d","264000","585","88","1","swim","","","","",""
"dual-task","null","null","null","","swim","swim","832","","h","null","88","88","1","swim-dual-task","","h","lowercase","270000","0","2","01d92d17ed0ea9d99d2bac6381808c7ee69318be66dd3daf29c6bf4568786f8d","270002","832","88","1","swim","","","","",""
"dual-task","null","null","null","","swim","swim","705","","q","null","88","88","1","swim-dual-task","","q","lowercase","280000","0","2","01d92d17ed0ea9d99d2bac6381808c7ee69318be66dd3daf29c6bf4568786f8d","280009","705","88","1","swim","","","","",""
"dual-task","null","null","null","","swim","swim","672","","g","null","88","88","1","swim-dual-task","","g","lowercase","286000","0","2","01d92d17ed0ea9d99d2bac6381808c7ee69318be66dd3daf29c6bf4568786f8d","286003","672","88","1","swim","","","","",""
"dual-task","null","null","null","","swim","swim","513","","G","null","77","77","1","swim-dual-task","","G","uppercase","294000","0","2","01d92d17ed0ea9d99d2bac6381808c7ee69318be66dd3daf29c6bf4568786f8d","294009","513","77","1","swim","","","","",""
"dual-task","null","null","null","","swim","swim","686","","h","null","88","88","1","swim-dual-task","","h","lowercase","306000","0","2","01d92d17ed0ea9d99d2bac6381808c7ee69318be66dd3daf29c6bf4568786f8d","306006","686","88","1","swim","","","","",""
"dual-task","null","null","null","","swim","swim","622","","e","null","88","88","1","swim-dual-task","","e","lowercase","314000","0","2","01d92d17ed0ea9d99d2bac6381808c7ee69318be66dd3daf29c6bf4568786f8d","314006","622","88","1","swim","","","","",""
"dual-task","null","null","null","","swim","swim","848","","R","null","77","77","1","swim-dual-task","","R","uppercase","326000","0","2","01d92d17ed0ea9d99d2bac6381808c7ee69318be66dd3daf29c6bf4568786f8d","326002","848","77","1","swim","","","","",""
"dual-task","null","null","null","","swim","swim","892","","e","null","88","88","1","swim-dual-task","","e","lowercase","338000","0","2","01d92d17ed0ea9d99d2bac6381808c7ee69318be66dd3daf29c6bf4568786f8d","338007","892","88","1","swim","","","","",""
"dual-task","null","null","null","","swim","swim","846","","H","null","77","77","1","swim-dual-task","","H","uppercase","348000","0","2","01d92d17ed0ea9d99d2bac6381808c7ee69318be66dd3daf29c6bf4568786f8d","348004","846","77","1","swim","","","","",""
"dual-task","null","null","null","","swim","swim","806","","h","null","88","88","1","swim-dual-task","","h","lowercase","356000","0","2","01d92d17ed0ea9d99d2bac6381808c7ee69318be66dd3daf29c6bf4568786f8d","356005","806","88","1","swim","","","","",""
"dual-task","null","null","null","","swim","swim","887","","b","null","88","88","1","swim-dual-task","","b","lowercase","364000","0","2","01d92d17ed0ea9d99d2bac6381808c7ee69318be66dd3daf29c6bf4568786f8d","364004","887","88","1","swim","","","","",""
"dual-task","null","null","null","","swim","swim","641","","F","null","77","77","1","swim-dual-task","","F","uppercase","376000","0","2","01d92d17ed0ea9d99d2bac6381808c7ee69318be66dd3daf29c6bf4568786f8d","376010","641","77","1","swim","","","","",""
"dual-task","null","null","null","","swim","swim","727","","a","null","88","88","1","swim-dual-task","","a","lowercase","384000","0","2","01d92d17ed0ea9d99d2bac6381808c7ee69318be66dd3daf29c6bf4568786f8d","384003","727","88","1","swim","","","","",""
"dual-task","null","null","null","","swim","swim","788","","q","null","88","88","1","swim-dual-task","","q","lowercase","394000","0","2","01d92d17ed0ea9d99d2bac6381808c7ee69318be66dd3daf29c6bf4568786f8d","394007","788","88","1","swim","","","","",""
"dual-task","null","null","null","","swim","swim","633","","a","null","88","88","1","swim-dual-task","","a","lowercase","404000","0","2","01d92d17ed0ea9d99d2bac6381808c7ee69318be66dd3daf29c6bf4568786f8d","404010","633","88","1","swim","","","","",""
"dual-task","null","null","null","","swim","swim","729","","G","null","77","77","1","swim-dual-task","","G","uppercase","410000","0","2","01d92d17ed0ea9d99d2bac6381808c7ee69318be66dd3daf29c6bf4568786f8d","410002","729","77","1","swim","","","","",""
"dual-task","null","null","null","","swim","swim","640","","h","null","88","88","1","swim-dual-task","","h","lowercase","420000","0","2","01d92d17ed0ea9d99d2bac6381808c7ee69318be66dd3daf29c6bf4568786f8d","420011","640","88","1","swim","","","","",""
"dual-task","null","null","null","","swim","swim","632","","Q","null","77","77","1","swim-dual-task","","Q","uppercase","430000","0","2","01d92d17ed0ea9d99d2bac6381808c7ee69318be66dd3daf29c6bf4568786f8d","430011","632","77","1","swim","","","","",""
"dual-task","null","null","null","","swim","swim","692","","q","null","88","88","1","swim-dual-task","","q","lowercase","436000","0","2","01d92d17ed0ea9d99d2bac6381808c7ee69318be66dd3daf29c6bf4568786f8d","436005","692","88","1","swim","","","","",""
"dual-task","null","null","null","","swim","swim","633","","B","null","77","77","1","swim-dual-task","","B","uppercase","442000","0","2","01d92d17ed0ea9d99d2bac6381808c7ee69318be66dd3daf29c6bf4568786f8d","442009","633","77","1","swim","","","","",""
"dual-task","null","null","null","","swim","swim","632","","r","null","88","88","1","swim-dual-task","","r","lowercase","454000","0","2","01d92d17ed0ea9d99d2bac6381808c7ee69318be66dd3daf29c6bf4568786f8d","454011","632","88","1","swim","","","","",""
"dual-task","null","null","null","","swim","swim","650","","f","null","88","88","1","swim-dual-task","","f","lowercase","462000","0","2","01d92d17ed0ea9d99d2bac6381808c7ee69318be66dd3daf29c6bf4568786f8d","462009","650","88","1","swim","","","","",""
"dual-task","null","null","null","","swim","swim","624","","A","null","77","77","1","swim-dual-task","","A","uppercase","476000","0","2","01d92d17ed0ea9d99d2bac6381808c7ee69318be66dd3daf29c6bf4568786f8d","476003","624","77","1","swim","","","","",""
"dual-task","null","null","null","","swim","swim","917","","e","null","88","88","1","swim-dual-task","","e","lowercase","490000","0","2","01d92d17ed0ea9d99d2bac6381808c7ee69318be66dd3daf29c6bf4568786f8d","490006","917","88","1","swim","","","","",""
"dual-task","null","null","null","","swim","swim","660","","t","null","88","88","1","swim-dual-task","","t","lowercase","496000","0","2","01d92d17ed0ea9d99d2bac6381808c7ee69318be66dd3daf29c6bf4568786f8d","496007","660","88","1","swim","","","","",""
"dual-task","null","null","null","","swim","swim","647","","b","null","88","88","1","swim-dual-task","","b","lowercase","510000","0","2","01d92d17ed0ea9d99d2bac6381808c7ee69318be66dd3daf29c6bf4568786f8d","510005","647","88","1","swim","","","","",""
"dual-task","null","null","null","","swim","swim","688","","Q","null","77","77","1","swim-dual-task","","Q","uppercase","520000","0","2","01d92d17ed0ea9d99d2bac6381808c7ee69318be66dd3daf29c6bf4568786f8d","520011","688","77","1","swim","","","","",""
"dual-task","null","null","null","","swim","swim","485","","g","null","88","88","1","swim-dual-task","","g","lowercase","528000","0","2","01d92d17ed0ea9d99d2bac6381808c7ee69318be66dd3daf29c6bf4568786f8d","528005","485","88","1","swim","","","","",""
"dual-task","null","null","null","","swim","swim","830","","F","null","77","77","1","swim-dual-task","","F","uppercase","540000","0","2","01d92d17ed0ea9d99d2bac6381808c7ee69318be66dd3daf29c6bf4568786f8d","540012","830","77","1","swim","","","","",""
"dual-task","null","null","null","","swim","swim","1481","","a","null","88","88","1","swim-dual-task","","a","lowercase","546000","0","2","01d92d17ed0ea9d99d2bac6381808c7ee69318be66dd3daf29c6bf4568786f8d","546003","1481","88","1","swim","","","","",""
"dual-task","null","null","null","","swim","swim","800","","f","null","88","88","1","swim-dual-task","","f","lowercase","554000","0","2","01d92d17ed0ea9d99d2bac6381808c7ee69318be66dd3daf29c6bf4568786f8d","554004","800","88","1","swim","","","","",""
"dual-task","null","null","null","","swim","swim","524","","H","null","77","77","1","swim-dual-task","","H","uppercase","566000","0","2","01d92d17ed0ea9d99d2bac6381808c7ee69318be66dd3daf29c6bf4568786f8d","566006","524","77","1","swim","","","","",""
"dual-task","null","null","null","","swim","swim","569","","T","null","77","77","1","swim-dual-task","","T","uppercase","578000","0","2","01d92d17ed0ea9d99d2bac6381808c7ee69318be66dd3daf29c6bf4568786f8d","578002","569","77","1","swim","","","","",""
"dual-task","null","null","null","","swim","swim","886","","n","null","88","88","1","swim-dual-task","","n","lowercase","588000","0","2","01d92d17ed0ea9d99d2bac6381808c7ee69318be66dd3daf29c6bf4568786f8d","588005","886","88","1","swim","","","","",""
"dual-task","null","null","null","","swim","swim","754","","B","null","77","77","1","swim-dual-task","","B","uppercase","600000","0","2","01d92d17ed0ea9d99d2bac6381808c7ee69318be66dd3daf29c6bf4568786f8d","600001","754","77","1","swim","","","","",""
"dual-task","null","null","null","","swim","swim","1169","","d","null","88","88","1","swim-dual-task","","d","lowercase","610000","0","2","01d92d17ed0ea9d99d2bac6381808c7ee69318be66dd3daf29c6bf4568786f8d","610001","1169","88","1","swim","","","","",""
"dual-task","null","null","null","","swim","swim","745","","r","null","88","88","1","swim-dual-task","","r","lowercase","622000","0","2","01d92d17ed0ea9d99d2bac6381808c7ee69318be66dd3daf29c6bf4568786f8d","622003","745","88","1","swim","","","","",""
"dual-task","null","null","null","","swim","swim","544","","t","null","88","88","1","swim-dual-task","","t","lowercase","634000","0","2","01d92d17ed0ea9d99d2bac6381808c7ee69318be66dd3daf29c6bf4568786f8d","634010","544","88","1","swim","","","","",""
"dual-task","null","null","null","","swim","swim","786","","N","null","77","77","1","swim-dual-task","","N","uppercase","640000","0","2","01d92d17ed0ea9d99d2bac6381808c7ee69318be66dd3daf29c6bf4568786f8d","640001","786","77","1","swim","","","","",""
"dual-task","null","null","null","","swim","swim","541","","E","null","77","77","1","swim-dual-task","","E","uppercase","652000","0","2","01d92d17ed0ea9d99d2bac6381808c7ee69318be66dd3daf29c6bf4568786f8d","652006","541","77","1","swim","","","","",""
"dual-task","null","null","null","","swim","swim","625","","B","null","77","77","1","swim-dual-task","","B","uppercase","662000","0","2","01d92d17ed0ea9d99d2bac6381808c7ee69318be66dd3daf29c6bf4568786f8d","662010","625","77","1","swim","","","","",""
"dual-task","null","null","null","","swim","swim","578","","H","null","77","77","1","swim-dual-task","","H","uppercase","672000","0","2","01d92d17ed0ea9d99d2bac6381808c7ee69318be66dd3daf29c6bf4568786f8d","672008","578","77","1","swim","","","","",""
"dual-task","null","null","null","","swim","swim","522","","D","null","77","77","1","swim-dual-task","","D","uppercase","682000","0","2","01d92d17ed0ea9d99d2bac6381808c7ee69318be66dd3daf29c6bf4568786f8d","682002","522","77","1","swim","","","","",""
"dual-task","null","null","null","","swim","swim","595","","b","null","88","88","1","swim-dual-task","","b","lowercase","690000","0","2","01d92d17ed0ea9d99d2bac6381808c7ee69318be66dd3daf29c6bf4568786f8d","690008","595","88","1","swim","","","","",""
"dual-task","null","null","null","","swim","swim","632","","t","null","88","88","1","swim-dual-task","","t","lowercase","700000","0","2","01d92d17ed0ea9d99d2bac6381808c7ee69318be66dd3daf29c6bf4568786f8d","700012","632","88","1","swim","","","","",""
"dual-task","null","null","null","","swim","swim","569","","r","null","88","88","1","swim-dual-task","","r","lowercase","708000","0","2","01d92d17ed0ea9d99d2bac6381808c7ee69318be66dd3daf29c6bf4568786f8d","708010","569","88","1","swim","","","","",""
"dual-task","null","null","null","","swim","swim","788","","r","null","88","88","1","swim-dual-task","","r","lowercase","716000","0","2","01d92d17ed0ea9d99d2bac6381808c7ee69318be66dd3daf29c6bf4568786f8d","715999","788","88","1","swim","","","","",""
"dual-task","null","null","null","","swim","swim","751","","d","null","88","88","1","swim-dual-task","","d","lowercase","724000","0","2","01d92d17ed0ea9d99d2bac6381808c7ee69318be66dd3daf29c6bf4568786f8d","724012","751","88","1","swim","","","","",""
"dual-task","null","null","null","","swim","swim","515","","q","null","88","88","1","swim-dual-task","","q","lowercase","736000","0","2","01d92d17ed0ea9d99d2bac6381808c7ee69318be66dd3daf29c6bf4568786f8d","736007","515","88","1","swim","","","","",""
"dual-task","null","null","null","","swim","swim","656","","g","null","88","88","1","swim-dual-task","","g","lowercase","744000","0","2","01d92d17ed0ea9d99d2bac6381808c7ee69318be66dd3daf29c6bf4568786f8d","744003","656","88","1","swim","","","","",""
"dual-task","null","null","null","","swim","swim","525","","b","null","88","88","1","swim-dual-task","","b","lowercase","756000","0","2","01d92d17ed0ea9d99d2bac6381808c7ee69318be66dd3daf29c6bf4568786f8d","756005","525","88","1","swim","","","","",""
"dual-task","null","null","null","","swim","swim","831","","N","null","77","77","1","swim-dual-task","","N","uppercase","768000","0","2","01d92d17ed0ea9d99d2bac6381808c7ee69318be66dd3daf29c6bf4568786f8d","768012","831","77","1","swim","","","","",""
"dual-task","null","null","null","","swim","swim","831","","a","null","88","88","1","swim-dual-task","","a","lowercase","782000","0","2","01d92d17ed0ea9d99d2bac6381808c7ee69318be66dd3daf29c6bf4568786f8d","782004","831","88","1","swim","","","","",""
"dual-task","null","null","null","","swim","swim","577","","n","null","88","88","1","swim-dual-task","","n","lowercase","790000","0","2","01d92d17ed0ea9d99d2bac6381808c7ee69318be66dd3daf29c6bf4568786f8d","790002","577","88","1","swim","","","","",""
"audio-keyboard-response","29","921933","0.0-7.0-0.0-1.0","01d92d17ed0ea9d99d2bac6381808c7ee69318be66dd3daf29c6bf4568786f8d","swim","swim","null","","audio/story_swim_scrambled.mp3","","null","","","","","","","","","","","","","","","","","","","",""
"html-button-response","30","925912","0.0-7.0-0.0-2.0","01d92d17ed0ea9d99d2bac6381808c7ee69318be66dd3daf29c6bf4568786f8d","swim","swim","3967","","<p>This concludes the story. Thank you for listening.</p><p>You will now answer some questions about the content of the story.</p>","0","","","","","","","","","","","","","","","","","","","","",""
"survey-multi-choice","31","931460","0.0-7.0-0.0-3.0-0.0","01d92d17ed0ea9d99d2bac6381808c7ee69318be66dd3daf29c6bf4568786f8d","swim","swim","5524","","<b>How many times did the astronaut candidates have to complete the final exercise to pass?</b>","","","","1","swim-comprehension","","","","","","","","","","","","","{""Q0"":""Two""}","","","",""
"survey-multi-choice","32","941605","0.0-7.0-0.0-3.0-0.1","01d92d17ed0ea9d99d2bac6381808c7ee69318be66dd3daf29c6bf4568786f8d","swim","swim","9893","","<b>How often does the narrator swim, now that he is a good swimmer?</b>","","","","0","swim-comprehension","","","","","","","","","","","","","{""Q0"":""Every weekend with his kids""}","","","",""
"survey-multi-choice","33","945230","0.0-7.0-0.0-3.0-0.2","01d92d17ed0ea9d99d2bac6381808c7ee69318be66dd3daf29c6bf4568786f8d","swim","swim","3367","","<b>How many astronaut candidates reported for duty at the Johnson Space Center?</b>","","","","1","swim-comprehension","","","","","","","","","","","","","{""Q0"":""Forty-four""}","","","",""
"survey-multi-choice","34","953983","0.0-7.0-0.0-3.0-0.3","01d92d17ed0ea9d99d2bac6381808c7ee69318be66dd3daf29c6bf4568786f8d","swim","swim","8498","","<b>What was the final step of the first swim test in the pool?</b>","","","","1","swim-comprehension","","","","","","","","","","","","","{""Q0"":""Tread water with hands above the water""}","","","",""
"survey-multi-choice","35","957601","0.0-7.0-0.0-3.0-0.4","01d92d17ed0ea9d99d2bac6381808c7ee69318be66dd3daf29c6bf4568786f8d","swim","swim","3355","","<b>How many astronaut candidates passed the first swim test?</b>","","","","1","swim-comprehension","","","","","","","","","","","","","{""Q0"":""All of them""}","","","",""
"survey-multi-choice","36","961649","0.0-7.0-0.0-3.0-0.5","01d92d17ed0ea9d99d2bac6381808c7ee69318be66dd3daf29c6bf4568786f8d","swim","swim","3793","","<b>What is the narrator afraid of, aside from the water?</b>","","","","1","swim-comprehension","","","","","","","","","","","","","{""Q0"":""Heights""}","","","",""
"survey-multi-choice","37","968724","0.0-7.0-0.0-3.0-0.6","01d92d17ed0ea9d99d2bac6381808c7ee69318be66dd3daf29c6bf4568786f8d","swim","swim","6813","","<b>What were the astronaut candidates trained to do at the naval air station?</b>","","","","1","swim-comprehension","","","","","","","","","","","","","{""Q0"":""Eject out of aircraft and survive in water long enough to be rescued""}","","","",""
"survey-multi-choice","38","973721","0.0-7.0-0.0-3.0-0.7","01d92d17ed0ea9d99d2bac6381808c7ee69318be66dd3daf29c6bf4568786f8d","swim","swim","4732","","<b>Where is the home of naval aviation?</b>","","","","1","swim-comprehension","","","","","","","","","","","","","{""Q0"":""Pensacola""}","","","",""
"survey-multi-choice","39","980847","0.0-7.0-0.0-3.0-0.8","01d92d17ed0ea9d99d2bac6381808c7ee69318be66dd3daf29c6bf4568786f8d","swim","swim","6868","","<b>What gave the narrator his greatest feeling of accomplishment?</b>","","","","1","swim-comprehension","","","","","","","","","","","","","{""Q0"":""Passing the water survival course""}","","","",""
"survey-multi-choice","40","991249","0.0-7.0-0.0-3.0-0.9","01d92d17ed0ea9d99d2bac6381808c7ee69318be66dd3daf29c6bf4568786f8d","swim","swim","10138","","<b>How did the narrator train for his swim test?</b>","","","","0","swim-comprehension","","","","","","","","","","","","","{""Q0"":""Signed up for a swim class""}","","","",""
"html-button-response","41","993953","0.0-7.0-0.0-4.0","01d92d17ed0ea9d99d2bac6381808c7ee69318be66dd3daf29c6bf4568786f8d","swim","swim","2442","","<p>Thank you for your responses.</p><p>You will now answer some questions about your impressions of the story.</p>","0","","","","","","","","","","","","","","","","","","","","",""
"html-button-response","42","996002","0.0-7.0-0.0-5.0-0.0","01d92d17ed0ea9d99d2bac6381808c7ee69318be66dd3daf29c6bf4568786f8d","swim","swim","2045","","A4","0","","","","swim-engagement","","","","","","","","","","","","","","1","absorption","",""
"html-button-response","43","998930","0.0-7.0-0.0-5.0-0.1","01d92d17ed0ea9d99d2bac6381808c7ee69318be66dd3daf29c6bf4568786f8d","swim","swim","2673","","EE4","0","","","","swim-engagement","","","","","","","","","","","","","","1","emo-engage","",""
"html-button-response","44","1001878","0.0-7.0-0.0-5.0-0.2","01d92d17ed0ea9d99d2bac6381808c7ee69318be66dd3daf29c6bf4568786f8d","swim","swim","2693","","MS1","0","","","","swim-engagement","","","","","","","","","","","","","","1","mental-sim","",""
"html-button-response","45","1005054","0.0-7.0-0.0-5.0-0.3","01d92d17ed0ea9d99d2bac6381808c7ee69318be66dd3daf29c6bf4568786f8d","swim","swim","2924","","A5","0","","","","swim-engagement","","","","","","","","","","","","","","1","absorption","",""
"html-button-response","46","1008142","0.0-7.0-0.0-5.0-0.4","01d92d17ed0ea9d99d2bac6381808c7ee69318be66dd3daf29c6bf4568786f8d","swim","swim","2836","","MS2","0","","","","swim-engagement","","","","","","","","","","","","","","1","mental-sim","",""
"html-button-response","47","1010095","0.0-7.0-0.0-5.0-0.5","01d92d17ed0ea9d99d2bac6381808c7ee69318be66dd3daf29c6bf4568786f8d","swim","swim","1697","","E8","0","","","","swim-engagement","","","","","","","","","","","","","","1","enjoyment","",""
"html-button-response","48","1012994","0.0-7.0-0.0-5.0-0.6","01d92d17ed0ea9d99d2bac6381808c7ee69318be66dd3daf29c6bf4568786f8d","swim","swim","2645","","A2","0","","","","swim-engagement","","","","","","","","","","","","","","1","absorption","",""
"html-button-response","49","1016086","0.0-7.0-0.0-5.0-0.7","01d92d17ed0ea9d99d2bac6381808c7ee69318be66dd3daf29c6bf4568786f8d","swim","swim","2829","","EE1","0","","","","swim-engagement","","","","","","","","","","","","","","1","emo-engage","",""
"html-button-response","50","1017592","0.0-7.0-0.0-5.0-0.8","01d92d17ed0ea9d99d2bac6381808c7ee69318be66dd3daf29c6bf4568786f8d","swim","swim","1254","","E6","0","","","","swim-engagement","","","","","","","","","","","","","","1","enjoyment","",""
"html-button-response","51","1018899","0.0-7.0-0.0-5.0-0.9","01d92d17ed0ea9d99d2bac6381808c7ee69318be66dd3daf29c6bf4568786f8d","swim","swim","1049","","E1","0","","","","swim-engagement","","","","","","","","","","","","","","1","enjoyment","",""
"html-button-response","52","1020469","0.0-7.0-0.0-5.0-0.10","01d92d17ed0ea9d99d2bac6381808c7ee69318be66dd3daf29c6bf4568786f8d","swim","swim","1318","","EE2","0","","","","swim-engagement","","","","","","","","","","","","","","1","emo-engage","",""
"html-button-response","53","1022987","0.0-7.0-0.0-5.0-0.11","01d92d17ed0ea9d99d2bac6381808c7ee69318be66dd3daf29c6bf4568786f8d","swim","swim","2251","","A1","0","","","","swim-engagement","","","","","","","","","","","","","","1","absorption","",""
"html-button-response","54","1025832","0.0-7.0-0.0-5.0-0.12","01d92d17ed0ea9d99d2bac6381808c7ee69318be66dd3daf29c6bf4568786f8d","swim","swim","2588","","E10","6","","","","swim-engagement","","","","","","","","","","","","","","7","enjoyment","",""
"html-button-response","55","1028284","0.0-7.0-0.0-5.0-0.13","01d92d17ed0ea9d99d2bac6381808c7ee69318be66dd3daf29c6bf4568786f8d","swim","swim","2188","","E7","0","","","","swim-engagement","","","","","","","","","","","","","","1","enjoyment","",""
"html-button-response","56","1030020","0.0-7.0-0.0-5.0-0.14","01d92d17ed0ea9d99d2bac6381808c7ee69318be66dd3daf29c6bf4568786f8d","swim","swim","1474","","EE3","0","","","","swim-engagement","","","","","","","","","","","","","","1","emo-engage","",""
"html-button-response","57","1031573","0.0-7.0-0.0-5.0-0.15","01d92d17ed0ea9d99d2bac6381808c7ee69318be66dd3daf29c6bf4568786f8d","swim","swim","1291","","A3","0","","","","swim-engagement","","","","","","","","","","","","","","1","absorption","",""
"html-button-response","58","1034771","0.0-7.0-0.0-5.0-0.16","01d92d17ed0ea9d99d2bac6381808c7ee69318be66dd3daf29c6bf4568786f8d","swim","swim","2941","","MS3","0","","","","swim-engagement","","","","","","","","","","","","","","1","mental-sim","",""
"html-button-response","59","1036872","0.0-7.0-0.0-5.0-0.17","01d92d17ed0ea9d99d2bac6381808c7ee69318be66dd3daf29c6bf4568786f8d","swim","swim","1843","","EE5","0","","","","swim-engagement","","","","","","","","","","","","","","1","emo-engage","",""
"html-keyboard-response","60","1161572","0.0-7.0-1.0","01d92d17ed0ea9d99d2bac6381808c7ee69318be66dd3daf29c6bf4568786f8d","swim","swim","124444","","<p>Thank you for your responses. You will now listen to the second story.</p><p>Remember, as you listen to the story you will see letters appear on the screen.</br>As quickly as possible, press <b>&lt;x&gt;</b> if the letter is lowercase and <b>&lt;m&gt;</b> if the letter is uppercase.</p><p>Press <b>&lt;x&gt;</b> or <b>&lt;m&gt;</b> to begin listening!</p>","","88","","","","","","","","","","","","","","","","","","","",""
"html-keyboard-response","61","1162080","0.0-7.0-2.0-0.0","01d92d17ed0ea9d99d2bac6381808c7ee69318be66dd3daf29c6bf4568786f8d","swim","swim","null","","<div style=""font-size:60px;"" tabindex=""0"">+</div>","","null","","","","","","","","","","","","","","","","","","","",""
"dual-task","null","null","null","","swim","swim","630","","b","null","88","88","1","arctic-dual-task","","b","lowercase","12000","0","2","01d92d17ed0ea9d99d2bac6381808c7ee69318be66dd3daf29c6bf4568786f8d","12010","630","88","1","arctic","","","","",""
"dual-task","null","null","null","","swim","swim","NA","","n","null","NA","88","0","arctic-dual-task","","n","lowercase","20000","1","2","01d92d17ed0ea9d99d2bac6381808c7ee69318be66dd3daf29c6bf4568786f8d","20012","NA","NA","0","arctic","","","","",""
"dual-task","null","null","null","","swim","swim","620","","b","null","88","88","1","arctic-dual-task","","b","lowercase","26000","0","2","01d92d17ed0ea9d99d2bac6381808c7ee69318be66dd3daf29c6bf4568786f8d","26005","620","88","1","arctic","","","","",""
"dual-task","null","null","null","","swim","swim","509","","e","null","88","88","1","arctic-dual-task","","e","lowercase","36000","0","2","01d92d17ed0ea9d99d2bac6381808c7ee69318be66dd3daf29c6bf4568786f8d","36004","509","88","1","arctic","","","","",""
"dual-task","null","null","null","","swim","swim","677","","t","null","88","88","1","arctic-dual-task","","t","lowercase","48000","0","2","01d92d17ed0ea9d99d2bac6381808c7ee69318be66dd3daf29c6bf4568786f8d","48011","677","88","1","arctic","","","","",""
"dual-task","null","null","null","","swim","swim","661","","G","null","77","77","1","arctic-dual-task","","G","uppercase","54000","0","2","01d92d17ed0ea9d99d2bac6381808c7ee69318be66dd3daf29c6bf4568786f8d","54004","661","77","1","arctic","","","","",""
"dual-task","null","null","null","","swim","swim","780","","e","null","88","88","1","arctic-dual-task","","e","lowercase","62000","0","2","01d92d17ed0ea9d99d2bac6381808c7ee69318be66dd3daf29c6bf4568786f8d","62012","780","88","1","arctic","","","","",""
"dual-task","null","null","null","","swim","swim","589","","n","null","88","88","1","arctic-dual-task","","n","lowercase","72000","0","2","01d92d17ed0ea9d99d2bac6381808c7ee69318be66dd3daf29c6bf4568786f8d","72004","589","88","1","arctic","","","","",""
"dual-task","null","null","null","","swim","swim","719","","b","null","88","88","1","arctic-dual-task","","b","lowercase","78000","0","2","01d92d17ed0ea9d99d2bac6381808c7ee69318be66dd3daf29c6bf4568786f8d","78010","719","88","1","arctic","","","","",""
"dual-task","null","null","null","","swim","swim","621","","r","null","88","88","1","arctic-dual-task","","r","lowercase","90000","0","2","01d92d17ed0ea9d99d2bac6381808c7ee69318be66dd3daf29c6bf4568786f8d","90012","621","88","1","arctic","","","","",""
"dual-task","null","null","null","","swim","swim","628","","R","null","77","77","1","arctic-dual-task","","R","uppercase","96000","0","2","01d92d17ed0ea9d99d2bac6381808c7ee69318be66dd3daf29c6bf4568786f8d","96004","628","77","1","arctic","","","","",""
"dual-task","null","null","null","","swim","swim","648","","h","null","88","88","1","arctic-dual-task","","h","lowercase","102000","0","2","01d92d17ed0ea9d99d2bac6381808c7ee69318be66dd3daf29c6bf4568786f8d","102009","648","88","1","arctic","","","","",""
"dual-task","null","null","null","","swim","swim","601","","D","null","77","77","1","arctic-dual-task","","D","uppercase","114000","0","2","01d92d17ed0ea9d99d2bac6381808c7ee69318be66dd3daf29c6bf4568786f8d","113998","601","77","1","arctic","","","","",""
"dual-task","null","null","null","","swim","swim","575","","H","null","77","77","1","arctic-dual-task","","H","uppercase","126000","0","2","01d92d17ed0ea9d99d2bac6381808c7ee69318be66dd3daf29c6bf4568786f8d","126010","575","77","1","arctic","","","","",""
"dual-task","null","null","null","","swim","swim","675","","N","null","77","77","1","arctic-dual-task","","N","uppercase","138000","0","2","01d92d17ed0ea9d99d2bac6381808c7ee69318be66dd3daf29c6bf4568786f8d","138006","675","77","1","arctic","","","","",""
"dual-task","null","null","null","","swim","swim","605","","Q","null","77","77","1","arctic-dual-task","","Q","uppercase","148000","0","2","01d92d17ed0ea9d99d2bac6381808c7ee69318be66dd3daf29c6bf4568786f8d","148004","605","77","1","arctic","","","","",""
"dual-task","null","null","null","","swim","swim","768","","Q","null","77","77","1","arctic-dual-task","","Q","uppercase","158000","0","2","01d92d17ed0ea9d99d2bac6381808c7ee69318be66dd3daf29c6bf4568786f8d","158009","768","77","1","arctic","","","","",""
"dual-task","null","null","null","","swim","swim","618","","a","null","88","88","1","arctic-dual-task","","a","lowercase","166000","0","2","01d92d17ed0ea9d99d2bac6381808c7ee69318be66dd3daf29c6bf4568786f8d","166006","618","88","1","arctic","","","","",""
"dual-task","null","null","null","","swim","swim","584","","R","null","77","77","1","arctic-dual-task","","R","uppercase","174000","0","2","01d92d17ed0ea9d99d2bac6381808c7ee69318be66dd3daf29c6bf4568786f8d","174001","584","77","1","arctic","","","","",""
"dual-task","null","null","null","","swim","swim","865","","q","null","88","88","1","arctic-dual-task","","q","lowercase","182000","0","2","01d92d17ed0ea9d99d2bac6381808c7ee69318be66dd3daf29c6bf4568786f8d","182000","865","88","1","arctic","","","","",""
"dual-task","null","null","null","","swim","swim","733","","d","null","88","88","1","arctic-dual-task","","d","lowercase","190000","0","2","01d92d17ed0ea9d99d2bac6381808c7ee69318be66dd3daf29c6bf4568786f8d","190012","733","88","1","arctic","","","","",""
"dual-task","null","null","null","","swim","swim","690","","g","null","88","88","1","arctic-dual-task","","g","lowercase","198000","0","2","01d92d17ed0ea9d99d2bac6381808c7ee69318be66dd3daf29c6bf4568786f8d","198007","690","88","1","arctic","","","","",""
"dual-task","null","null","null","","swim","swim","787","","B","null","77","77","1","arctic-dual-task","","B","uppercase","210000","0","2","01d92d17ed0ea9d99d2bac6381808c7ee69318be66dd3daf29c6bf4568786f8d","209999","787","77","1","arctic","","","","",""
"dual-task","null","null","null","","swim","swim","652","","T","null","77","77","1","arctic-dual-task","","T","uppercase","222000","0","2","01d92d17ed0ea9d99d2bac6381808c7ee69318be66dd3daf29c6bf4568786f8d","222013","652","77","1","arctic","","","","",""
"dual-task","null","null","null","","swim","swim","679","","G","null","77","77","1","arctic-dual-task","","G","uppercase","236000","0","2","01d92d17ed0ea9d99d2bac6381808c7ee69318be66dd3daf29c6bf4568786f8d","236002","679","77","1","arctic","","","","",""
"dual-task","null","null","null","","swim","swim","822","","r","null","77","88","0","arctic-dual-task","","r","lowercase","250000","0","2","01d92d17ed0ea9d99d2bac6381808c7ee69318be66dd3daf29c6bf4568786f8d","250003","822","77","0","arctic","","","","",""
"dual-task","null","null","null","","swim","swim","621","","G","null","77","77","1","arctic-dual-task","","G","uppercase","258000","0","2","01d92d17ed0ea9d99d2bac6381808c7ee69318be66dd3daf29c6bf4568786f8d","258007","621","77","1","arctic","","","","",""
"dual-task","null","null","null","","swim","swim","814","","h","null","88","88","1","arctic-dual-task","","h","lowercase","268000","0","2","01d92d17ed0ea9d99d2bac6381808c7ee69318be66dd3daf29c6bf4568786f8d","268002","814","88","1","arctic","","","","",""
"dual-task","null","null","null","","swim","swim","937","","F","null","77","77","1","arctic-dual-task","","F","uppercase","278000","0","2","01d92d17ed0ea9d99d2bac6381808c7ee69318be66dd3daf29c6bf4568786f8d","278000","937","77","1","arctic","","","","",""
"dual-task","null","null","null","","swim","swim","752","","B","null","77","77","1","arctic-dual-task","","B","uppercase","284000","0","2","01d92d17ed0ea9d99d2bac6381808c7ee69318be66dd3daf29c6bf4568786f8d","284010","752","77","1","arctic","","","","",""
"dual-task","null","null","null","","swim","swim","735","","F","null","77","77","1","arctic-dual-task","","F","uppercase","292000","0","2","01d92d17ed0ea9d99d2bac6381808c7ee69318be66dd3daf29c6bf4568786f8d","292002","735","77","1","arctic","","","","",""
"dual-task","null","null","null","","swim","swim","713","","F","null","77","77","1","arctic-dual-task","","F","uppercase","304000","0","2","01d92d17ed0ea9d99d2bac6381808c7ee69318be66dd3daf29c6bf4568786f8d","304000","713","77","1","arctic","","","","",""
"dual-task","null","null","null","","swim","swim","730","","E","null","77","77","1","arctic-dual-task","","E","uppercase","310000","0","2","01d92d17ed0ea9d99d2bac6381808c7ee69318be66dd3daf29c6bf4568786f8d","310008","730","77","1","arctic","","","","",""
"dual-task","null","null","null","","swim","swim","632","","Q","null","77","77","1","arctic-dual-task","","Q","uppercase","322000","0","2","01d92d17ed0ea9d99d2bac6381808c7ee69318be66dd3daf29c6bf4568786f8d","322001","632","77","1","arctic","","","","",""
"dual-task","null","null","null","","swim","swim","726","","a","null","88","88","1","arctic-dual-task","","a","lowercase","336000","0","2","01d92d17ed0ea9d99d2bac6381808c7ee69318be66dd3daf29c6bf4568786f8d","336004","726","88","1","arctic","","","","",""
"dual-task","null","null","null","","swim","swim","705","","d","null","88","88","1","arctic-dual-task","","d","lowercase","344000","0","2","01d92d17ed0ea9d99d2bac6381808c7ee69318be66dd3daf29c6bf4568786f8d","344002","705","88","1","arctic","","","","",""
"dual-task","null","null","null","","swim","swim","803","","F","null","77","77","1","arctic-dual-task","","F","uppercase","358000","0","2","01d92d17ed0ea9d99d2bac6381808c7ee69318be66dd3daf29c6bf4568786f8d","357998","803","77","1","arctic","","","","",""
"dual-task","null","null","null","","swim","swim","777","","D","null","77","77","1","arctic-dual-task","","D","uppercase","370000","0","2","01d92d17ed0ea9d99d2bac6381808c7ee69318be66dd3daf29c6bf4568786f8d","370001","777","77","1","arctic","","","","",""
"dual-task","null","null","null","","swim","swim","698","","A","null","77","77","1","arctic-dual-task","","A","uppercase","380000","0","2","01d92d17ed0ea9d99d2bac6381808c7ee69318be66dd3daf29c6bf4568786f8d","380000","698","77","1","arctic","","","","",""
"dual-task","null","null","null","","swim","swim","836","","f","null","88","88","1","arctic-dual-task","","f","lowercase","392000","0","2","01d92d17ed0ea9d99d2bac6381808c7ee69318be66dd3daf29c6bf4568786f8d","392006","836","88","1","arctic","","","","",""
"dual-task","null","null","null","","swim","swim","750","","b","null","88","88","1","arctic-dual-task","","b","lowercase","400000","0","2","01d92d17ed0ea9d99d2bac6381808c7ee69318be66dd3daf29c6bf4568786f8d","400003","750","88","1","arctic","","","","",""
"dual-task","null","null","null","","swim","swim","775","","a","null","88","88","1","arctic-dual-task","","a","lowercase","408000","0","2","01d92d17ed0ea9d99d2bac6381808c7ee69318be66dd3daf29c6bf4568786f8d","408011","775","88","1","arctic","","","","",""
"dual-task","null","null","null","","swim","swim","572","","q","null","88","88","1","arctic-dual-task","","q","lowercase","420000","0","2","01d92d17ed0ea9d99d2bac6381808c7ee69318be66dd3daf29c6bf4568786f8d","419998","572","88","1","arctic","","","","",""
"dual-task","null","null","null","","swim","swim","743","","n","null","88","88","1","arctic-dual-task","","n","lowercase","430000","0","2","01d92d17ed0ea9d99d2bac6381808c7ee69318be66dd3daf29c6bf4568786f8d","430010","743","88","1","arctic","","","","",""
"dual-task","null","null","null","","swim","swim","655","","A","null","77","77","1","arctic-dual-task","","A","uppercase","442000","0","2","01d92d17ed0ea9d99d2bac6381808c7ee69318be66dd3daf29c6bf4568786f8d","442002","655","77","1","arctic","","","","",""
"dual-task","null","null","null","","swim","swim","792","","g","null","88","88","1","arctic-dual-task","","g","lowercase","456000","0","2","01d92d17ed0ea9d99d2bac6381808c7ee69318be66dd3daf29c6bf4568786f8d","456001","792","88","1","arctic","","","","",""
"dual-task","null","null","null","","swim","swim","839","","E","null","77","77","1","arctic-dual-task","","E","uppercase","464000","0","2","01d92d17ed0ea9d99d2bac6381808c7ee69318be66dd3daf29c6bf4568786f8d","464002","839","77","1","arctic","","","","",""
"dual-task","null","null","null","","swim","swim","918","","T","null","77","77","1","arctic-dual-task","","T","uppercase","470000","0","2","01d92d17ed0ea9d99d2bac6381808c7ee69318be66dd3daf29c6bf4568786f8d","470004","918","77","1","arctic","","","","",""
"dual-task","null","null","null","","swim","swim","483","","R","null","77","77","1","arctic-dual-task","","R","uppercase","476000","0","2","01d92d17ed0ea9d99d2bac6381808c7ee69318be66dd3daf29c6bf4568786f8d","476006","483","77","1","arctic","","","","",""
"dual-task","null","null","null","","swim","swim","663","","D","null","77","77","1","arctic-dual-task","","D","uppercase","490000","0","2","01d92d17ed0ea9d99d2bac6381808c7ee69318be66dd3daf29c6bf4568786f8d","490003","663","77","1","arctic","","","","",""
"dual-task","null","null","null","","swim","swim","747","","T","null","77","77","1","arctic-dual-task","","T","uppercase","502000","0","2","01d92d17ed0ea9d99d2bac6381808c7ee69318be66dd3daf29c6bf4568786f8d","502007","747","77","1","arctic","","","","",""
"dual-task","null","null","null","","swim","swim","938","","f","null","88","88","1","arctic-dual-task","","f","lowercase","510000","0","2","01d92d17ed0ea9d99d2bac6381808c7ee69318be66dd3daf29c6bf4568786f8d","510007","938","88","1","arctic","","","","",""
"dual-task","null","null","null","","swim","swim","721","","h","null","88","88","1","arctic-dual-task","","h","lowercase","516000","0","2","01d92d17ed0ea9d99d2bac6381808c7ee69318be66dd3daf29c6bf4568786f8d","516000","721","88","1","arctic","","","","",""
"dual-task","null","null","null","","swim","swim","824","","H","null","77","77","1","arctic-dual-task","","H","uppercase","526000","0","2","01d92d17ed0ea9d99d2bac6381808c7ee69318be66dd3daf29c6bf4568786f8d","526001","824","77","1","arctic","","","","",""
"dual-task","null","null","null","","swim","swim","763","","D","null","77","77","1","arctic-dual-task","","D","uppercase","538000","0","2","01d92d17ed0ea9d99d2bac6381808c7ee69318be66dd3daf29c6bf4568786f8d","538008","763","77","1","arctic","","","","",""
"dual-task","null","null","null","","swim","swim","1096","","B","null","77","77","1","arctic-dual-task","","B","uppercase","552000","0","2","01d92d17ed0ea9d99d2bac6381808c7ee69318be66dd3daf29c6bf4568786f8d","552010","1096","77","1","arctic","","","","",""
"dual-task","null","null","null","","swim","swim","819","","H","null","77","77","1","arctic-dual-task","","H","uppercase","564000","0","2","01d92d17ed0ea9d99d2bac6381808c7ee69318be66dd3daf29c6bf4568786f8d","564000","819","77","1","arctic","","","","",""
"dual-task","null","null","null","","swim","swim","655","","a","null","88","88","1","arctic-dual-task","","a","lowercase","572000","0","2","01d92d17ed0ea9d99d2bac6381808c7ee69318be66dd3daf29c6bf4568786f8d","572002","655","88","1","arctic","","","","",""
"dual-task","null","null","null","","swim","swim","1015","","t","null","88","88","1","arctic-dual-task","","t","lowercase","582000","0","2","01d92d17ed0ea9d99d2bac6381808c7ee69318be66dd3daf29c6bf4568786f8d","582004","1015","88","1","arctic","","","","",""
"dual-task","null","null","null","","swim","swim","755","","h","null","88","88","1","arctic-dual-task","","h","lowercase","590000","0","2","01d92d17ed0ea9d99d2bac6381808c7ee69318be66dd3daf29c6bf4568786f8d","589999","755","88","1","arctic","","","","",""
"dual-task","null","null","null","","swim","swim","1247","","q","null","88","88","1","arctic-dual-task","","q","lowercase","596000","0","2","01d92d17ed0ea9d99d2bac6381808c7ee69318be66dd3daf29c6bf4568786f8d","596003","1247","88","1","arctic","","","","",""
"dual-task","null","null","null","","swim","swim","657","","B","null","77","77","1","arctic-dual-task","","B","uppercase","604000","0","2","01d92d17ed0ea9d99d2bac6381808c7ee69318be66dd3daf29c6bf4568786f8d","604001","657","77","1","arctic","","","","",""
"dual-task","null","null","null","","swim","swim","721","","A","null","77","77","1","arctic-dual-task","","A","uppercase","612000","0","2","01d92d17ed0ea9d99d2bac6381808c7ee69318be66dd3daf29c6bf4568786f8d","612008","721","77","1","arctic","","","","",""
"dual-task","null","null","null","","swim","swim","681","","g","null","88","88","1","arctic-dual-task","","g","lowercase","624000","0","2","01d92d17ed0ea9d99d2bac6381808c7ee69318be66dd3daf29c6bf4568786f8d","623999","681","88","1","arctic","","","","",""
"dual-task","null","null","null","","swim","swim","919","","N","null","77","77","1","arctic-dual-task","","N","uppercase","632000","0","2","01d92d17ed0ea9d99d2bac6381808c7ee69318be66dd3daf29c6bf4568786f8d","632001","919","77","1","arctic","","","","",""
"dual-task","null","null","null","","swim","swim","714","","R","null","77","77","1","arctic-dual-task","","R","uppercase","644000","0","2","01d92d17ed0ea9d99d2bac6381808c7ee69318be66dd3daf29c6bf4568786f8d","644008","714","77","1","arctic","","","","",""
"dual-task","null","null","null","","swim","swim","1063","","e","null","88","88","1","arctic-dual-task","","e","lowercase","654000","0","2","01d92d17ed0ea9d99d2bac6381808c7ee69318be66dd3daf29c6bf4568786f8d","654004","1063","88","1","arctic","","","","",""
"dual-task","null","null","null","","swim","swim","898","","n","null","88","88","1","arctic-dual-task","","n","lowercase","664000","0","2","01d92d17ed0ea9d99d2bac6381808c7ee69318be66dd3daf29c6bf4568786f8d","664000","898","88","1","arctic","","","","",""
"dual-task","null","null","null","","swim","swim","776","","q","null","88","88","1","arctic-dual-task","","q","lowercase","672000","0","2","01d92d17ed0ea9d99d2bac6381808c7ee69318be66dd3daf29c6bf4568786f8d","672010","776","88","1","arctic","","","","",""
"dual-task","null","null","null","","swim","swim","642","","d","null","88","88","1","arctic-dual-task","","d","lowercase","678000","0","2","01d92d17ed0ea9d99d2bac6381808c7ee69318be66dd3daf29c6bf4568786f8d","678009","642","88","1","arctic","","","","",""
"dual-task","null","null","null","","swim","swim","733","","N","null","77","77","1","arctic-dual-task","","N","uppercase","686000","0","2","01d92d17ed0ea9d99d2bac6381808c7ee69318be66dd3daf29c6bf4568786f8d","686005","733","77","1","arctic","","","","",""
"dual-task","null","null","null","","swim","swim","654","","e","null","88","88","1","arctic-dual-task","","e","lowercase","698000","0","2","01d92d17ed0ea9d99d2bac6381808c7ee69318be66dd3daf29c6bf4568786f8d","698012","654","88","1","arctic","","","","",""
"dual-task","null","null","null","","swim","swim","877","","T","null","77","77","1","arctic-dual-task","","T","uppercase","712000","0","2","01d92d17ed0ea9d99d2bac6381808c7ee69318be66dd3daf29c6bf4568786f8d","712004","877","77","1","arctic","","","","",""
"dual-task","null","null","null","","swim","swim","695","","g","null","88","88","1","arctic-dual-task","","g","lowercase","718000","0","2","01d92d17ed0ea9d99d2bac6381808c7ee69318be66dd3daf29c6bf4568786f8d","718002","695","88","1","arctic","","","","",""
"dual-task","null","null","null","","swim","swim","640","","Q","null","77","77","1","arctic-dual-task","","Q","uppercase","732000","0","2","01d92d17ed0ea9d99d2bac6381808c7ee69318be66dd3daf29c6bf4568786f8d","732011","640","77","1","arctic","","","","",""
"dual-task","null","null","null","","swim","swim","680","","E","null","77","77","1","arctic-dual-task","","E","uppercase","738000","0","2","01d92d17ed0ea9d99d2bac6381808c7ee69318be66dd3daf29c6bf4568786f8d","738003","680","77","1","arctic","","","","",""
"dual-task","null","null","null","","swim","swim","727","","d","null","88","88","1","arctic-dual-task","","d","lowercase","752000","0","2","01d92d17ed0ea9d99d2bac6381808c7ee69318be66dd3daf29c6bf4568786f8d","752003","727","88","1","arctic","","","","",""
"dual-task","null","null","null","","swim","swim","769","","f","null","88","88","1","arctic-dual-task","","f","lowercase","760000","0","2","01d92d17ed0ea9d99d2bac6381808c7ee69318be66dd3daf29c6bf4568786f8d","760010","769","88","1","arctic","","","","",""
"dual-task","null","null","null","","swim","swim","746","","A","null","77","77","1","arctic-dual-task","","A","uppercase","768000","0","2","01d92d17ed0ea9d99d2bac6381808c7ee69318be66dd3daf29c6bf4568786f8d","768000","746","77","1","arctic","","","","",""
"dual-task","null","null","null","","swim","swim","831","","r","null","88","88","1","arctic-dual-task","","r","lowercase","780000","0","2","01d92d17ed0ea9d99d2bac6381808c7ee69318be66dd3daf29c6bf4568786f8d","780003","831","88","1","arctic","","","","",""
"audio-keyboard-response","62","1960187","0.0-7.0-2.0-1.0","01d92d17ed0ea9d99d2bac6381808c7ee69318be66dd3daf29c6bf4568786f8d","swim","swim","null","","audio/story_arctic.mp3","","null","","","","","","","","","","","","","","","","","","","",""
"html-button-response","63","1963034","0.0-7.0-2.0-2.0","01d92d17ed0ea9d99d2bac6381808c7ee69318be66dd3daf29c6bf4568786f8d","swim","swim","2836","","<p>This concludes the story. Thank you for listening.</p><p>You will now answer some questions about the content of the story.</p>","0","","","","","","","","","","","","","","","","","","","","",""
"survey-multi-choice","64","1968836","0.0-7.0-2.0-3.0-0.0","01d92d17ed0ea9d99d2bac6381808c7ee69318be66dd3daf29c6bf4568786f8d","swim","swim","5787","","<b>How did the narrator prepare for her expedition?</b>","","","","1","arctic-comprehension","","","","","","","","","","","","","{""Q0"":""Trained in Alaska learning how to dogsled""}","","","",""
"survey-multi-choice","65","1973592","0.0-7.0-2.0-3.0-0.1","01d92d17ed0ea9d99d2bac6381808c7ee69318be66dd3daf29c6bf4568786f8d","swim","swim","4490","","<b>How many sponsorships did the narrator receive to support her expedition?</b>","","","","1","arctic-comprehension","","","","","","","","","","","","","{""Q0"":""None""}","","","",""
"survey-multi-choice","66","1978415","0.0-7.0-2.0-3.0-0.2","01d92d17ed0ea9d99d2bac6381808c7ee69318be66dd3daf29c6bf4568786f8d","swim","swim","4555","","<b>Which dog on the narrator&#39;s dog team never followed instructions?</b>","","","","1","arctic-comprehension","","","","","","","","","","","","","{""Q0"":""Robert""}","","","",""
"survey-multi-choice","67","1986312","0.0-7.0-2.0-3.0-0.3","01d92d17ed0ea9d99d2bac6381808c7ee69318be66dd3daf29c6bf4568786f8d","swim","swim","7631","","<b>What were the weather conditions in the Arctic like the winter of the narrator&#39;s expedition?</b>","","","","0","arctic-comprehension","","","","","","","","","","","","","{""Q0"":""It was the coldest winter in recorded history.""}","","","",""
"survey-multi-choice","68","1992253","0.0-7.0-2.0-3.0-0.4","01d92d17ed0ea9d99d2bac6381808c7ee69318be66dd3daf29c6bf4568786f8d","swim","swim","5679","","<b>How did the narrator&#39;s encounter with the polar bears end?</b>","","","","1","arctic-comprehension","","","","","","","","","","","","","{""Q0"":""The bears walked back to their den.""}","","","",""
"survey-multi-choice","69","1997609","0.0-7.0-2.0-3.0-0.5","01d92d17ed0ea9d99d2bac6381808c7ee69318be66dd3daf29c6bf4568786f8d","swim","swim","5094","","<b>What is the name of the narrator&#39;s neighbour?</b>","","","","1","arctic-comprehension","","","","","","","","","","","","","{""Q0"":""Dave""}","","","",""
"survey-multi-choice","70","2003146","0.0-7.0-2.0-3.0-0.6","01d92d17ed0ea9d99d2bac6381808c7ee69318be66dd3daf29c6bf4568786f8d","swim","swim","5280","","<b>How did the narrator&#39;s neighbour respond when she told him about her expedition?</b>","","","","1","arctic-comprehension","","","","","","","","","","","","","{""Q0"":""He said she was going to fail.""}","","","",""
"survey-multi-choice","71","2010343","0.0-7.0-2.0-3.0-0.7","01d92d17ed0ea9d99d2bac6381808c7ee69318be66dd3daf29c6bf4568786f8d","swim","swim","6934","","<b>How did the dogs respond when they saw the bears?</b>","","","","0","arctic-comprehension","","","","","","","","","","","","","{""Q0"":""Barked aggressively""}","","","",""
"survey-multi-choice","72","2015328","0.0-7.0-2.0-3.0-0.8","01d92d17ed0ea9d99d2bac6381808c7ee69318be66dd3daf29c6bf4568786f8d","swim","swim","4722","","<b>What did the narrator do for leisure while in her tent?</b>","","","","1","arctic-comprehension","","","","","","","","","","","","","{""Q0"":""Read""}","","","",""
"survey-multi-choice","73","2021027","0.0-7.0-2.0-3.0-0.9","01d92d17ed0ea9d99d2bac6381808c7ee69318be66dd3daf29c6bf4568786f8d","swim","swim","5442","","<b>What was the objective of the narrator&#39;s expedition?</b>","","","","1","arctic-comprehension","","","","","","","","","","","","","{""Q0"":""Dogsled across Arctic America""}","","","",""
"html-button-response","74","2022896","0.0-7.0-2.0-4.0","01d92d17ed0ea9d99d2bac6381808c7ee69318be66dd3daf29c6bf4568786f8d","swim","swim","1612","","<p>Thank you for your responses.</p><p>You will now answer some questions about your impressions of the story.</p>","0","","","","","","","","","","","","","","","","","","","","",""
"html-button-response","75","2024940","0.0-7.0-2.0-5.0-0.0","01d92d17ed0ea9d99d2bac6381808c7ee69318be66dd3daf29c6bf4568786f8d","swim","swim","2042","","E7","4","","","","arctic-engagement","","","","","","","","","","","","","","5","enjoyment","",""
"html-button-response","76","2026740","0.0-7.0-2.0-5.0-0.1","01d92d17ed0ea9d99d2bac6381808c7ee69318be66dd3daf29c6bf4568786f8d","swim","swim","1542","","E1","5","","","","arctic-engagement","","","","","","","","","","","","","","6","enjoyment","",""
"html-button-response","77","2030248","0.0-7.0-2.0-5.0-0.2","01d92d17ed0ea9d99d2bac6381808c7ee69318be66dd3daf29c6bf4568786f8d","swim","swim","3250","","A5","1","","","","arctic-engagement","","","","","","","","","","","","","","2","absorption","",""
"html-button-response","78","2032384","0.0-7.0-2.0-5.0-0.3","01d92d17ed0ea9d99d2bac6381808c7ee69318be66dd3daf29c6bf4568786f8d","swim","swim","1872","","E8","5","","","","arctic-engagement","","","","","","","","","","","","","","6","enjoyment","",""
"html-button-response","79","2034287","0.0-7.0-2.0-5.0-0.4","01d92d17ed0ea9d99d2bac6381808c7ee69318be66dd3daf29c6bf4568786f8d","swim","swim","1637","","EE4","5","","","","arctic-engagement","","","","","","","","","","","","","","6","emo-engage","",""
"html-button-response","80","2036778","0.0-7.0-2.0-5.0-0.5","01d92d17ed0ea9d99d2bac6381808c7ee69318be66dd3daf29c6bf4568786f8d","swim","swim","2235","","EE3","4","","","","arctic-engagement","","","","","","","","","","","","","","5","emo-engage","",""
"html-button-response","81","2039170","0.0-7.0-2.0-5.0-0.6","01d92d17ed0ea9d99d2bac6381808c7ee69318be66dd3daf29c6bf4568786f8d","swim","swim","2141","","E10","6","","","","arctic-engagement","","","","","","","","","","","","","","7","enjoyment","",""
"html-button-response","82","2042842","0.0-7.0-2.0-5.0-0.7","01d92d17ed0ea9d99d2bac6381808c7ee69318be66dd3daf29c6bf4568786f8d","swim","swim","3410","","EE1","4","","","","arctic-engagement","","","","","","","","","","","","","","5","emo-engage","",""
"html-button-response","83","2045137","0.0-7.0-2.0-5.0-0.8","01d92d17ed0ea9d99d2bac6381808c7ee69318be66dd3daf29c6bf4568786f8d","swim","swim","2032","","MS3","4","","","","arctic-engagement","","","","","","","","","","","","","","5","mental-sim","",""
"html-button-response","84","2047239","0.0-7.0-2.0-5.0-0.9","01d92d17ed0ea9d99d2bac6381808c7ee69318be66dd3daf29c6bf4568786f8d","swim","swim","1843","","E6","5","","","","arctic-engagement","","","","","","","","","","","","","","6","enjoyment","",""
"html-button-response","85","2051328","0.0-7.0-2.0-5.0-0.10","01d92d17ed0ea9d99d2bac6381808c7ee69318be66dd3daf29c6bf4568786f8d","swim","swim","3825","","MS2","4","","","","arctic-engagement","","","","","","","","","","","","","","5","mental-sim","",""
"html-button-response","86","2054664","0.0-7.0-2.0-5.0-0.11","01d92d17ed0ea9d99d2bac6381808c7ee69318be66dd3daf29c6bf4568786f8d","swim","swim","3074","","A2","5","","","","arctic-engagement","","","","","","","","","","","","","","6","absorption","",""
"html-button-response","87","2057608","0.0-7.0-2.0-5.0-0.12","01d92d17ed0ea9d99d2bac6381808c7ee69318be66dd3daf29c6bf4568786f8d","swim","swim","2691","","A1","0","","","","arctic-engagement","","","","","","","","","","","","","","1","absorption","",""
"html-button-response","88","2060988","0.0-7.0-2.0-5.0-0.13","01d92d17ed0ea9d99d2bac6381808c7ee69318be66dd3daf29c6bf4568786f8d","swim","swim","3126","","A4","0","","","","arctic-engagement","","","","","","","","","","","","","","1","absorption","",""
"html-button-response","89","2064860","0.0-7.0-2.0-5.0-0.14","01d92d17ed0ea9d99d2bac6381808c7ee69318be66dd3daf29c6bf4568786f8d","swim","swim","3608","","MS1","4","","","","arctic-engagement","","","","","","","","","","","","","","5","mental-sim","",""
"html-button-response","90","2067035","0.0-7.0-2.0-5.0-0.15","01d92d17ed0ea9d99d2bac6381808c7ee69318be66dd3daf29c6bf4568786f8d","swim","swim","1917","","EE5","6","","","","arctic-engagement","","","","","","","","","","","","","","7","emo-engage","",""
"html-button-response","91","2068375","0.0-7.0-2.0-5.0-0.16","01d92d17ed0ea9d99d2bac6381808c7ee69318be66dd3daf29c6bf4568786f8d","swim","swim","1074","","A3","6","","","","arctic-engagement","","","","","","","","","","","","","","7","absorption","",""
"html-button-response","92","2069867","0.0-7.0-2.0-5.0-0.17","01d92d17ed0ea9d99d2bac6381808c7ee69318be66dd3daf29c6bf4568786f8d","swim","swim","1239","","EE2","6","","","","arctic-engagement","","","","","","","","","","","","","","7","emo-engage","",""
"html-button-response","93","2071493","0.0-8.0","01d92d17ed0ea9d99d2bac6381808c7ee69318be66dd3daf29c6bf4568786f8d","swim","swim","1376","","<p>Thank you for your responses.</p><p>You will now answer some demographic, hearing, and general health questions.</p>","0","","","","","","","","","","","","","","","","","","","","",""
"survey-multi-choice","94","2075706","0.0-9.0-0.0","01d92d17ed0ea9d99d2bac6381808c7ee69318be66dd3daf29c6bf4568786f8d","swim","swim","4210","","","","","","","survey","","","","","","","","","","","","","{""Q0"":""Firefox""}","","","browser",""
"survey-text","95","2079192","0.0-9.0-1.0","01d92d17ed0ea9d99d2bac6381808c7ee69318be66dd3daf29c6bf4568786f8d","swim","swim","3194","","","","","","","survey","","","","","","","","","","","","","{""AGE"":""39""}","","","age","39"
"survey-multi-choice","96","2081328","0.0-9.0-2.0","01d92d17ed0ea9d99d2bac6381808c7ee69318be66dd3daf29c6bf4568786f8d","swim","swim","1882","","","","","","","survey","","","","","","","","","","","","","{""Q0"":""Female""}","","","gender","Female"
"survey-multi-choice","97","2083394","0.0-9.0-4.0","01d92d17ed0ea9d99d2bac6381808c7ee69318be66dd3daf29c6bf4568786f8d","swim","swim","1810","","","","","","","survey","","","","","","","","","","","","","{""Q0"":""Right""}","","","handedness","Right"
"survey-multi-choice","98","2086385","0.0-9.0-5.0","01d92d17ed0ea9d99d2bac6381808c7ee69318be66dd3daf29c6bf4568786f8d","swim","swim","2722","","","","","","","survey","","","","","","","","","","","","","{""Q0"":""College Degree (2 years)""}","","","education","College Degree (2 years)"
"survey-text","99","2090693","0.0-10.0-0.0","01d92d17ed0ea9d99d2bac6381808c7ee69318be66dd3daf29c6bf4568786f8d","swim","swim","4040","","","","","","","survey","","","","","","","","","","","","","{""L1"":""english""}","","","first-language","english"
"survey-text","100","2096627","0.0-10.0-1.0","01d92d17ed0ea9d99d2bac6381808c7ee69318be66dd3daf29c6bf4568786f8d","swim","swim","5673","","","","","","","survey","","","","","","","","","","","","","{""L2name"":"""",""L2fluency"":"""",""L3name"":"""",""L3fluency"":"""",""L4name"":"""",""L4fluency"":""""}","","","additional-languages","{""L2name"":"""",""L2fluency"":"""",""L3name"":"""",""L3fluency"":"""",""L4name"":"""",""L4fluency"":""""}"
"survey-multi-choice","101","2099059","0.0-10.0-2.0","01d92d17ed0ea9d99d2bac6381808c7ee69318be66dd3daf29c6bf4568786f8d","swim","swim","2175","","","","","","","survey","","","","","","","","","","","","","{""Q0"":""No""}","","","hearing-aid","No"
"survey-multi-choice","102","2102459","0.0-10.0-3.0","01d92d17ed0ea9d99d2bac6381808c7ee69318be66dd3daf29c6bf4568786f8d","swim","swim","3141","","","","","","","survey","","","","","","","","","","","","","{""Q0"":""Never""}","","","ringing-ears","Never"
"survey-multi-choice","103","2105022","0.0-10.0-5.0","01d92d17ed0ea9d99d2bac6381808c7ee69318be66dd3daf29c6bf4568786f8d","swim","swim","2298","","","","","","","survey","","","","","","","","","","","","","{""Q0"":""No""}","","","neuro-disease","No"
"survey-multi-choice","104","2108538","0.0-10.0-7.0","01d92d17ed0ea9d99d2bac6381808c7ee69318be66dd3daf29c6bf4568786f8d","swim","swim","3254","","","","","","","survey","","","","","","","","","","","","","{""Q0"":""No""}","","","take-meds","No"
"survey-text","105","2112399","0.0-10.0-9.0","01d92d17ed0ea9d99d2bac6381808c7ee69318be66dd3daf29c6bf4568786f8d","swim","swim","3567","","","","","","","survey","","","","","","","","","","","","","{""HC"":""""}","","","health-concerns",""
"html-button-response","106","2117136","0.0-11.0-0.0","01d92d17ed0ea9d99d2bac6381808c7ee69318be66dd3daf29c6bf4568786f8d","swim","swim","4475","","<p>How would you describe your musical skills/experiences?</p>","1","","","","survey","","","","","","","","","","","","","","","","music-skill","2"
"survey-multi-choice","107","2119859","0.0-11.0-1.0","01d92d17ed0ea9d99d2bac6381808c7ee69318be66dd3daf29c6bf4568786f8d","swim","swim","2460","","","","","","","survey","","","","","","","","","","","","","{""Q0"":""Yes""}","","","music-instrument","Yes"
"survey-text","108","2125007","0.0-11.0-2.0-0.0","01d92d17ed0ea9d99d2bac6381808c7ee69318be66dd3daf29c6bf4568786f8d","swim","swim","4882","","","","","","","survey","","","","","","","","","","","","","{""MEXP"":""3""}","","","music-training-yrs","3"
"html-button-response","109","2127729","0.0-12.0-0.0","01d92d17ed0ea9d99d2bac6381808c7ee69318be66dd3daf29c6bf4568786f8d","swim","swim","2471","","<p>How would you describe your general hearing abilities?</p>","4","","","","survey","","","","","","","","","","","","","","","","ssq-01","5"
"html-button-response","110","2133823","0.0-12.0-1.0","01d92d17ed0ea9d99d2bac6381808c7ee69318be66dd3daf29c6bf4568786f8d","swim","swim","5842","","<p>When you talk with someone at a place that strongly reverberates/echoes (e.g., in a church or train station),</br>can you understand what the person says?</p>","7","","","","survey","","","","","","","","","","","","","","","","ssq-02","7"
"html-button-response","111","2136969","0.0-12.0-2.0","01d92d17ed0ea9d99d2bac6381808c7ee69318be66dd3daf29c6bf4568786f8d","swim","swim","2883","","<p>When you are with a group (~5 people) in a lively restaurant, can you follow the group's conversation?</p>","7","","","","survey","","","","","","","","","","","","","","","","ssq-03","7"
"html-button-response","112","2142692","0.0-12.0-3.0","01d92d17ed0ea9d99d2bac6381808c7ee69318be66dd3daf29c6bf4568786f8d","swim","swim","5470","","<p>Based on the sound of a bus or truck, can you tell whether it is moving towards or away from you?</p>","0","","","","survey","","","","","","","","","","","","","","","","ssq-04","0"
"html-button-response","113","2148734","0.0-12.0-4.0","01d92d17ed0ea9d99d2bac6381808c7ee69318be66dd3daf29c6bf4568786f8d","swim","swim","5784","","<p>When you are in an unknown environment, can you tell from which direction a brief sound originates?</p>","6","","","","survey","","","","","","","","","","","","","","","","ssq-05","6"
"html-button-response","114","2153483","0.0-12.0-5.0","01d92d17ed0ea9d99d2bac6381808c7ee69318be66dd3daf29c6bf4568786f8d","swim","swim","4482","","<p>Are you able to ignore distracting sounds when you concentrate on a specific aspect of your acoustic surrounding?</p>","7","","","","survey","","","","","","","","","","","","","","","","ssq-06","7"
"fullscreen","115","2154756","0.0-13.0","01d92d17ed0ea9d99d2bac6381808c7ee69318be66dd3daf29c6bf4568786f8d","swim","swim","","","","","","","","","true","","","","","","","","","","","","","","","",""
