"trial_type","trial_index","time_elapsed","internal_node_id","ParticipantID","firstStory","scramStory","rt","url","stimulus","button_pressed","key_press","correctRESP","correct","designation","success","letterStim","letterType","ONSET","TIMEOUT","CONDITION","Participant","ONSET_ACTUAL","RT","RESP","ACC","STORY","responses","response","type","surveyQuestion","QRESP"
"pavlovia","0","3","0.0-0.0","e3c38f26f23304988a42573d00d6b42369695cd153eb724a006d5f34ac8a3e17","swim","swim","","","","","","","","","","","","","","","","","","","","","","","","",""
"external-html","1","12199","0.0-1.0","e3c38f26f23304988a42573d00d6b42369695cd153eb724a006d5f34ac8a3e17","swim","swim","11913","consent/consent_updated.html","","","","","","","","","","","","","","","","","","","","","","",""
"html-button-response","2","17591","0.0-2.0-0.0","e3c38f26f23304988a42573d00d6b42369695cd153eb724a006d5f34ac8a3e17","swim","swim","5390","","<p>Before we begin the main task, you will complete a short volume calibration and headphone check.</p><p>Please make sure you are in a quiet listening environment, that you are wearing headphones, and that your computer's volume is turned on.<p></p>","0","","","","","","","","","","","","","","","","","","","","",""
"html-button-response","3","19786","0.0-2.0-1.0","e3c38f26f23304988a42573d00d6b42369695cd153eb724a006d5f34ac8a3e17","swim","swim","1944","","<p>The volume calibration will be first.</p><p>You will hear a thirty-second noise. Please adjust your computer's volume so that this noise is being presented at a comfortable level.<p></p>","0","","","","","","","","","","","","","","","","","","","","",""
"audio-button-response","4","23970","0.0-2.0-2.0","e3c38f26f23304988a42573d00d6b42369695cd153eb724a006d5f34ac8a3e17","swim","swim","3933","","audio/volumetest.mp3","0","","","","","","","","","","","","","","","","","","","","",""
"html-keyboard-response","5","28396","0.0-3.0-0.0","e3c38f26f23304988a42573d00d6b42369695cd153eb724a006d5f34ac8a3e17","swim","swim","4425","","<p>You will now complete a short headphone check.</p><p>On each trial, you will hear three tones. One of these tones will be quieter than the others. Your task is to identify whether the quiet tone occurred first, second, or third.</p><p>There are six trials in total.<p></p><p></p>(Press SPACEBAR to begin)","","32","","","","","","","","","","","","","","","","","","","",""
"html-keyboard-response","6","29148","0.0-3.0-1.0-0.0","e3c38f26f23304988a42573d00d6b42369695cd153eb724a006d5f34ac8a3e17","swim","swim","null","","<div style=""font-size:60px;"">+</div>","","null","","","","","","","","","","","","","","","","","","","",""
"audio-button-response","7","33624","0.0-3.0-1.0-1.0","e3c38f26f23304988a42573d00d6b42369695cd153eb724a006d5f34ac8a3e17","swim","swim","4475","","audio/t3_2.mp3","2","","2","1","headphone-test","","","","","","","","","","","","","","","","",""
"html-keyboard-response","8","34125","0.0-3.0-1.0-2.0","e3c38f26f23304988a42573d00d6b42369695cd153eb724a006d5f34ac8a3e17","swim","swim","null","","<p>Correct</p>","","null","","","","","","","","","","","","","","","","","","","",""
"html-keyboard-response","9","34626","0.0-3.0-1.0-0.1","e3c38f26f23304988a42573d00d6b42369695cd153eb724a006d5f34ac8a3e17","swim","swim","null","","<div style=""font-size:60px;"">+</div>","","null","","","","","","","","","","","","","","","","","","","",""
"audio-button-response","10","38978","0.0-3.0-1.0-1.1","e3c38f26f23304988a42573d00d6b42369695cd153eb724a006d5f34ac8a3e17","swim","swim","4351","","audio/t3_1.mp3","2","","2","1","headphone-test","","","","","","","","","","","","","","","","",""
"html-keyboard-response","11","39479","0.0-3.0-1.0-2.1","e3c38f26f23304988a42573d00d6b42369695cd153eb724a006d5f34ac8a3e17","swim","swim","null","","<p>Correct</p>","","null","","","","","","","","","","","","","","","","","","","",""
"html-keyboard-response","12","39980","0.0-3.0-1.0-0.2","e3c38f26f23304988a42573d00d6b42369695cd153eb724a006d5f34ac8a3e17","swim","swim","null","","<div style=""font-size:60px;"">+</div>","","null","","","","","","","","","","","","","","","","","","","",""
"audio-button-response","13","44592","0.0-3.0-1.0-1.2","e3c38f26f23304988a42573d00d6b42369695cd153eb724a006d5f34ac8a3e17","swim","swim","4612","","audio/t1_2.mp3","0","","0","1","headphone-test","","","","","","","","","","","","","","","","",""
"html-keyboard-response","14","45093","0.0-3.0-1.0-2.2","e3c38f26f23304988a42573d00d6b42369695cd153eb724a006d5f34ac8a3e17","swim","swim","null","","<p>Correct</p>","","null","","","","","","","","","","","","","","","","","","","",""
"html-keyboard-response","15","45594","0.0-3.0-1.0-0.3","e3c38f26f23304988a42573d00d6b42369695cd153eb724a006d5f34ac8a3e17","swim","swim","null","","<div style=""font-size:60px;"">+</div>","","null","","","","","","","","","","","","","","","","","","","",""
"audio-button-response","16","50234","0.0-3.0-1.0-1.3","e3c38f26f23304988a42573d00d6b42369695cd153eb724a006d5f34ac8a3e17","swim","swim","4639","","audio/t2_2.mp3","0","","1","0","headphone-test","","","","","","","","","","","","","","","","",""
"html-keyboard-response","17","50735","0.0-3.0-1.0-2.3","e3c38f26f23304988a42573d00d6b42369695cd153eb724a006d5f34ac8a3e17","swim","swim","null","","<p>Incorrect</p>","","null","","","","","","","","","","","","","","","","","","","",""
"html-keyboard-response","18","51236","0.0-3.0-1.0-0.4","e3c38f26f23304988a42573d00d6b42369695cd153eb724a006d5f34ac8a3e17","swim","swim","null","","<div style=""font-size:60px;"">+</div>","","null","","","","","","","","","","","","","","","","","","","",""
"audio-button-response","19","55662","0.0-3.0-1.0-1.4","e3c38f26f23304988a42573d00d6b42369695cd153eb724a006d5f34ac8a3e17","swim","swim","4425","","audio/t1_1.mp3","1","","0","0","headphone-test","","","","","","","","","","","","","","","","",""
"html-keyboard-response","20","56163","0.0-3.0-1.0-2.4","e3c38f26f23304988a42573d00d6b42369695cd153eb724a006d5f34ac8a3e17","swim","swim","null","","<p>Incorrect</p>","","null","","","","","","","","","","","","","","","","","","","",""
"html-keyboard-response","21","56664","0.0-3.0-1.0-0.5","e3c38f26f23304988a42573d00d6b42369695cd153eb724a006d5f34ac8a3e17","swim","swim","null","","<div style=""font-size:60px;"">+</div>","","null","","","","","","","","","","","","","","","","","","","",""
"audio-button-response","22","61064","0.0-3.0-1.0-1.5","e3c38f26f23304988a42573d00d6b42369695cd153eb724a006d5f34ac8a3e17","swim","swim","4400","","audio/t2_1.mp3","1","","1","1","headphone-test","","","","","","","","","","","","","","","","",""
"html-keyboard-response","23","61565","0.0-3.0-1.0-2.5","e3c38f26f23304988a42573d00d6b42369695cd153eb724a006d5f34ac8a3e17","swim","swim","null","","<p>Correct</p>","","null","","","","","","","","","","","","","","","","","","","",""
"fullscreen","24","64266","0.0-4.0","e3c38f26f23304988a42573d00d6b42369695cd153eb724a006d5f34ac8a3e17","swim","swim","","","","","","","","","true","","","","","","","","","","","","","","","",""
"html-button-response","25","70048","0.0-5.0-0.0","e3c38f26f23304988a42573d00d6b42369695cd153eb724a006d5f34ac8a3e17","swim","swim","5780","","<p>There are two blocks to this experiment.</p><p>In each block, you will hear a ~13.5 minute story. One of the stories will be scrambled. Please listen carefully to both stories and understand them as best you can.</p><p>After each story, you will be asked some questions to assess your comprehension.</p>","0","","","","","","","","","","","","","","","","","","","","",""
"html-button-response","26","83012","0.0-5.0-1.0","e3c38f26f23304988a42573d00d6b42369695cd153eb724a006d5f34ac8a3e17","swim","swim","12963","","<p>During each story, there will be an additional task.</p><p>A letter will occasionally appear on the screen.</br>Your job is to - as quickly as you can - decide whether the letter is lowercase or uppercase and press one of two keys on the keyboard:</p><p>If the letter is <b>lowercase</b>, press key &lt;<b>x</b>&gt;.</p><p>If the letter is <b>uppercase</b>, press key &lt;<b>m</b>&gt;.</p>","0","","","","","","","","","","","","","","","","","","","","",""
"html-keyboard-response","27","127619","0.0-5.0-2.0","e3c38f26f23304988a42573d00d6b42369695cd153eb724a006d5f34ac8a3e17","swim","swim","44607","","<p>Because we want your responses to be as quick as possible, please keep your index fingers over the keys while listening.</p><p>Each block lasts about 20 minutes.</p><p><b>Press &lt;x&gt; or &lt;m&gt; to start the first block!</b></p>","","77","","","","","","","","","","","","","","","","","","","",""
"html-keyboard-response","28","128121","0.0-7.0-0.0-0.0","e3c38f26f23304988a42573d00d6b42369695cd153eb724a006d5f34ac8a3e17","swim","swim","null","","<div style=""font-size:60px;"" tabindex=""0"">+</div>","","null","","","","","","","","","","","","","","","","","","","",""
"dual-task","null","null","null","","swim","swim","1867.7000000029802","","r","null","88","88","1","swim-dual-task","","r","lowercase","14000","0","3","e3c38f26f23304988a42573d00d6b42369695cd153eb724a006d5f34ac8a3e17","14000.70000000298","1867.7000000029802","88","1","swim","","","","",""
"dual-task","null","null","null","","swim","swim","NA","","E","null","NA","77","0","swim-dual-task","","E","uppercase","20000","1","3","e3c38f26f23304988a42573d00d6b42369695cd153eb724a006d5f34ac8a3e17","19999.79999999702","NA","NA","0","swim","","","","",""
"dual-task","null","null","null","","swim","swim","539.3000000119209","","g","null","88","88","1","swim-dual-task","","g","lowercase","32000","0","3","e3c38f26f23304988a42573d00d6b42369695cd153eb724a006d5f34ac8a3e17","32000.39999999106","539.3000000119209","88","1","swim","","","","",""
"dual-task","null","null","null","","swim","swim","451.70000000298023","","Q","null","77","77","1","swim-dual-task","","Q","uppercase","44000","0","3","e3c38f26f23304988a42573d00d6b42369695cd153eb724a006d5f34ac8a3e17","44000","451.70000000298023","77","1","swim","","","","",""
"dual-task","null","null","null","","swim","swim","663.7999999970198","","d","null","88","88","1","swim-dual-task","","d","lowercase","56000","0","3","e3c38f26f23304988a42573d00d6b42369695cd153eb724a006d5f34ac8a3e17","56000.5","663.7999999970198","88","1","swim","","","","",""
"dual-task","null","null","null","","swim","swim","451.1000000089407","","D","null","77","77","1","swim-dual-task","","D","uppercase","66000","0","3","e3c38f26f23304988a42573d00d6b42369695cd153eb724a006d5f34ac8a3e17","66000.5","451.1000000089407","77","1","swim","","","","",""
"dual-task","null","null","null","","swim","swim","521.2999999970198","","E","null","77","77","1","swim-dual-task","","E","uppercase","80000","0","3","e3c38f26f23304988a42573d00d6b42369695cd153eb724a006d5f34ac8a3e17","80000.70000000298","521.2999999970198","77","1","swim","","","","",""
"dual-task","null","null","null","","swim","swim","623.2999999970198","","N","null","77","77","1","swim-dual-task","","N","uppercase","88000","0","3","e3c38f26f23304988a42573d00d6b42369695cd153eb724a006d5f34ac8a3e17","88000.09999999404","623.2999999970198","77","1","swim","","","","",""
"dual-task","null","null","null","","swim","swim","NA","","F","null","NA","77","0","swim-dual-task","","F","uppercase","96000","1","3","e3c38f26f23304988a42573d00d6b42369695cd153eb724a006d5f34ac8a3e17","96000.39999999106","NA","NA","0","swim","","","","",""
"dual-task","null","null","null","","swim","swim","1635.5","","f","null","88","88","1","swim-dual-task","","f","lowercase","106000","0","3","e3c38f26f23304988a42573d00d6b42369695cd153eb724a006d5f34ac8a3e17","106000.39999999106","1635.5","88","1","swim","","","","",""
"dual-task","null","null","null","","swim","swim","NA","","d","null","NA","88","0","swim-dual-task","","d","lowercase","112000","1","3","e3c38f26f23304988a42573d00d6b42369695cd153eb724a006d5f34ac8a3e17","111999.70000000298","NA","NA","0","swim","","","","",""
"dual-task","null","null","null","","swim","swim","1361.7999999970198","","q","null","88","88","1","swim-dual-task","","q","lowercase","120000","0","3","e3c38f26f23304988a42573d00d6b42369695cd153eb724a006d5f34ac8a3e17","120000.09999999404","1361.7999999970198","88","1","swim","","","","",""
"dual-task","null","null","null","","swim","swim","541.7999999970198","","g","null","88","88","1","swim-dual-task","","g","lowercase","134000","0","3","e3c38f26f23304988a42573d00d6b42369695cd153eb724a006d5f34ac8a3e17","134000.20000000298","541.7999999970198","88","1","swim","","","","",""
"dual-task","null","null","null","","swim","swim","504.19999998807907","","N","null","77","77","1","swim-dual-task","","N","uppercase","144000","0","3","e3c38f26f23304988a42573d00d6b42369695cd153eb724a006d5f34ac8a3e17","144000.70000000298","504.19999998807907","77","1","swim","","","","",""
"dual-task","null","null","null","","swim","swim","1317.4000000059605","","b","null","88","88","1","swim-dual-task","","b","lowercase","152000","0","3","e3c38f26f23304988a42573d00d6b42369695cd153eb724a006d5f34ac8a3e17","152000.09999999404","1317.4000000059605","88","1","swim","","","","",""
"dual-task","null","null","null","","swim","swim","466.79999999701977","","t","null","88","88","1","swim-dual-task","","t","lowercase","164000","0","3","e3c38f26f23304988a42573d00d6b42369695cd153eb724a006d5f34ac8a3e17","164000.70000000298","466.79999999701977","88","1","swim","","","","",""
"dual-task","null","null","null","","swim","swim","443.29999999701977","","b","null","88","88","1","swim-dual-task","","b","lowercase","176000","0","3","e3c38f26f23304988a42573d00d6b42369695cd153eb724a006d5f34ac8a3e17","176000.29999999702","443.29999999701977","88","1","swim","","","","",""
"dual-task","null","null","null","","swim","swim","576.8000000119209","","F","null","77","77","1","swim-dual-task","","F","uppercase","188000","0","3","e3c38f26f23304988a42573d00d6b42369695cd153eb724a006d5f34ac8a3e17","188000.29999999702","576.8000000119209","77","1","swim","","","","",""
"dual-task","null","null","null","","swim","swim","645","","Q","null","77","77","1","swim-dual-task","","Q","uppercase","198000","0","3","e3c38f26f23304988a42573d00d6b42369695cd153eb724a006d5f34ac8a3e17","198000.20000000298","645","77","1","swim","","","","",""
"dual-task","null","null","null","","swim","swim","477.5","","D","null","77","77","1","swim-dual-task","","D","uppercase","208000","0","3","e3c38f26f23304988a42573d00d6b42369695cd153eb724a006d5f34ac8a3e17","208000.70000000298","477.5","77","1","swim","","","","",""
"dual-task","null","null","null","","swim","swim","460.69999998807907","","h","null","88","88","1","swim-dual-task","","h","lowercase","218000","0","3","e3c38f26f23304988a42573d00d6b42369695cd153eb724a006d5f34ac8a3e17","218000.20000000298","460.69999998807907","88","1","swim","","","","",""
"dual-task","null","null","null","","swim","swim","1328.699999988079","","B","null","77","77","1","swim-dual-task","","B","uppercase","228000","0","3","e3c38f26f23304988a42573d00d6b42369695cd153eb724a006d5f34ac8a3e17","228000.20000000298","1328.699999988079","77","1","swim","","","","",""
"dual-task","null","null","null","","swim","swim","560.1999999880791","","g","null","88","88","1","swim-dual-task","","g","lowercase","240000","0","3","e3c38f26f23304988a42573d00d6b42369695cd153eb724a006d5f34ac8a3e17","240000.70000000298","560.1999999880791","88","1","swim","","","","",""
"dual-task","null","null","null","","swim","swim","NA","","E","null","NA","77","0","swim-dual-task","","E","uppercase","252000","1","3","e3c38f26f23304988a42573d00d6b42369695cd153eb724a006d5f34ac8a3e17","252000.79999999702","NA","NA","0","swim","","","","",""
"dual-task","null","null","null","","swim","swim","NA","","F","null","NA","77","0","swim-dual-task","","F","uppercase","260000","1","3","e3c38f26f23304988a42573d00d6b42369695cd153eb724a006d5f34ac8a3e17","260001.20000000298","NA","NA","0","swim","","","","",""
"dual-task","null","null","null","","swim","swim","458.09999999403954","","t","null","88","88","1","swim-dual-task","","t","lowercase","274000","0","3","e3c38f26f23304988a42573d00d6b42369695cd153eb724a006d5f34ac8a3e17","274000.299999997","458.09999999403954","88","1","swim","","","","",""
"dual-task","null","null","null","","swim","swim","777.9000000059605","","t","null","88","88","1","swim-dual-task","","t","lowercase","284000","0","3","e3c38f26f23304988a42573d00d6b42369695cd153eb724a006d5f34ac8a3e17","284000.39999999106","777.9000000059605","88","1","swim","","","","",""
"dual-task","null","null","null","","swim","swim","485.70000000298023","","R","null","77","77","1","swim-dual-task","","R","uppercase","296000","0","3","e3c38f26f23304988a42573d00d6b42369695cd153eb724a006d5f34ac8a3e17","296000.39999999106","485.70000000298023","77","1","swim","","","","",""
"dual-task","null","null","null","","swim","swim","476.90000000596046","","n","null","88","88","1","swim-dual-task","","n","lowercase","310000","0","3","e3c38f26f23304988a42573d00d6b42369695cd153eb724a006d5f34ac8a3e17","310000.700000003","476.90000000596046","88","1","swim","","","","",""
"dual-task","null","null","null","","swim","swim","1072.5","","a","null","88","88","1","swim-dual-task","","a","lowercase","318000","0","3","e3c38f26f23304988a42573d00d6b42369695cd153eb724a006d5f34ac8a3e17","318000.09999999404","1072.5","88","1","swim","","","","",""
"dual-task","null","null","null","","swim","swim","407.20000000298023","","B","null","77","77","1","swim-dual-task","","B","uppercase","328000","0","3","e3c38f26f23304988a42573d00d6b42369695cd153eb724a006d5f34ac8a3e17","328000.89999999106","407.20000000298023","77","1","swim","","","","",""
"dual-task","null","null","null","","swim","swim","NA","","G","null","NA","77","0","swim-dual-task","","G","uppercase","334000","1","3","e3c38f26f23304988a42573d00d6b42369695cd153eb724a006d5f34ac8a3e17","334000.700000003","NA","NA","0","swim","","","","",""
"dual-task","null","null","null","","swim","swim","1253.5999999940395","","A","null","88","77","0","swim-dual-task","","A","uppercase","344000","0","3","e3c38f26f23304988a42573d00d6b42369695cd153eb724a006d5f34ac8a3e17","344000.200000003","1253.5999999940395","88","0","swim","","","","",""
"dual-task","null","null","null","","swim","swim","1476.4000000059605","","h","null","88","88","1","swim-dual-task","","h","lowercase","352000","0","3","e3c38f26f23304988a42573d00d6b42369695cd153eb724a006d5f34ac8a3e17","352000.5","1476.4000000059605","88","1","swim","","","","",""
"dual-task","null","null","null","","swim","swim","458.79999999701977","","f","null","88","88","1","swim-dual-task","","f","lowercase","366000","0","3","e3c38f26f23304988a42573d00d6b42369695cd153eb724a006d5f34ac8a3e17","366000.700000003","458.79999999701977","88","1","swim","","","","",""
"dual-task","null","null","null","","swim","swim","926.9000000059605","","H","null","77","77","1","swim-dual-task","","H","uppercase","374000","0","3","e3c38f26f23304988a42573d00d6b42369695cd153eb724a006d5f34ac8a3e17","374000.09999999404","926.9000000059605","77","1","swim","","","","",""
"dual-task","null","null","null","","swim","swim","686.5","","e","null","88","88","1","swim-dual-task","","e","lowercase","382000","0","3","e3c38f26f23304988a42573d00d6b42369695cd153eb724a006d5f34ac8a3e17","382000.89999999106","686.5","88","1","swim","","","","",""
"dual-task","null","null","null","","swim","swim","494.6000000089407","","Q","null","77","77","1","swim-dual-task","","Q","uppercase","392000","0","3","e3c38f26f23304988a42573d00d6b42369695cd153eb724a006d5f34ac8a3e17","392001.39999999106","494.6000000089407","77","1","swim","","","","",""
"dual-task","null","null","null","","swim","swim","388.6000000089407","","Q","null","77","77","1","swim-dual-task","","Q","uppercase","400000","0","3","e3c38f26f23304988a42573d00d6b42369695cd153eb724a006d5f34ac8a3e17","400000.89999999106","388.6000000089407","77","1","swim","","","","",""
"dual-task","null","null","null","","swim","swim","457.29999999701977","","R","null","77","77","1","swim-dual-task","","R","uppercase","414000","0","3","e3c38f26f23304988a42573d00d6b42369695cd153eb724a006d5f34ac8a3e17","414000","457.29999999701977","77","1","swim","","","","",""
"dual-task","null","null","null","","swim","swim","449.3999999910593","","a","null","88","88","1","swim-dual-task","","a","lowercase","424000","0","3","e3c38f26f23304988a42573d00d6b42369695cd153eb724a006d5f34ac8a3e17","424001","449.3999999910593","88","1","swim","","","","",""
"dual-task","null","null","null","","swim","swim","438.5","","t","null","88","88","1","swim-dual-task","","t","lowercase","434000","0","3","e3c38f26f23304988a42573d00d6b42369695cd153eb724a006d5f34ac8a3e17","434000.39999999106","438.5","88","1","swim","","","","",""
"dual-task","null","null","null","","swim","swim","488.09999999403954","","G","null","77","77","1","swim-dual-task","","G","uppercase","446000","0","3","e3c38f26f23304988a42573d00d6b42369695cd153eb724a006d5f34ac8a3e17","446001","488.09999999403954","77","1","swim","","","","",""
"dual-task","null","null","null","","swim","swim","511.3999999910593","","N","null","77","77","1","swim-dual-task","","N","uppercase","456000","0","3","e3c38f26f23304988a42573d00d6b42369695cd153eb724a006d5f34ac8a3e17","456001.5","511.3999999910593","77","1","swim","","","","",""
"dual-task","null","null","null","","swim","swim","452.59999999403954","","T","null","77","77","1","swim-dual-task","","T","uppercase","466000","0","3","e3c38f26f23304988a42573d00d6b42369695cd153eb724a006d5f34ac8a3e17","466001.5","452.59999999403954","77","1","swim","","","","",""
"dual-task","null","null","null","","swim","swim","461.3999999910593","","q","null","88","88","1","swim-dual-task","","q","lowercase","478000","0","3","e3c38f26f23304988a42573d00d6b42369695cd153eb724a006d5f34ac8a3e17","478000.59999999404","461.3999999910593","88","1","swim","","","","",""
"dual-task","null","null","null","","swim","swim","426.29999999701977","","T","null","77","77","1","swim-dual-task","","T","uppercase","488000","0","3","e3c38f26f23304988a42573d00d6b42369695cd153eb724a006d5f34ac8a3e17","488001.59999999404","426.29999999701977","77","1","swim","","","","",""
"dual-task","null","null","null","","swim","swim","438.5","","N","null","77","77","1","swim-dual-task","","N","uppercase","498000","0","3","e3c38f26f23304988a42573d00d6b42369695cd153eb724a006d5f34ac8a3e17","498001","438.5","77","1","swim","","","","",""
"dual-task","null","null","null","","swim","swim","463.09999999403954","","q","null","88","88","1","swim-dual-task","","q","lowercase","512000","0","3","e3c38f26f23304988a42573d00d6b42369695cd153eb724a006d5f34ac8a3e17","512001.09999999404","463.09999999403954","88","1","swim","","","","",""
"dual-task","null","null","null","","swim","swim","919.0999999940395","","A","null","77","77","1","swim-dual-task","","A","uppercase","518000","0","3","e3c38f26f23304988a42573d00d6b42369695cd153eb724a006d5f34ac8a3e17","518000.39999999106","919.0999999940395","77","1","swim","","","","",""
"dual-task","null","null","null","","swim","swim","743","","G","null","88","77","0","swim-dual-task","","G","uppercase","524000","0","3","e3c38f26f23304988a42573d00d6b42369695cd153eb724a006d5f34ac8a3e17","524000.700000003","743","88","0","swim","","","","",""
"dual-task","null","null","null","","swim","swim","461.40000000596046","","e","null","88","88","1","swim-dual-task","","e","lowercase","536000","0","3","e3c38f26f23304988a42573d00d6b42369695cd153eb724a006d5f34ac8a3e17","536000.700000003","461.40000000596046","88","1","swim","","","","",""
"dual-task","null","null","null","","swim","swim","617","","D","null","77","77","1","swim-dual-task","","D","uppercase","550000","0","3","e3c38f26f23304988a42573d00d6b42369695cd153eb724a006d5f34ac8a3e17","550000.5","617","77","1","swim","","","","",""
"dual-task","null","null","null","","swim","swim","436","","R","null","77","77","1","swim-dual-task","","R","uppercase","556000","0","3","e3c38f26f23304988a42573d00d6b42369695cd153eb724a006d5f34ac8a3e17","556000.799999997","436","77","1","swim","","","","",""
"dual-task","null","null","null","","swim","swim","539.8999999910593","","B","null","77","77","1","swim-dual-task","","B","uppercase","562000","0","3","e3c38f26f23304988a42573d00d6b42369695cd153eb724a006d5f34ac8a3e17","562000","539.8999999910593","77","1","swim","","","","",""
"dual-task","null","null","null","","swim","swim","1106.7000000029802","","f","null","88","88","1","swim-dual-task","","f","lowercase","568000","0","3","e3c38f26f23304988a42573d00d6b42369695cd153eb724a006d5f34ac8a3e17","568000.299999997","1106.7000000029802","88","1","swim","","","","",""
"dual-task","null","null","null","","swim","swim","425","","r","null","88","88","1","swim-dual-task","","r","lowercase","580000","0","3","e3c38f26f23304988a42573d00d6b42369695cd153eb724a006d5f34ac8a3e17","580000.8999999911","425","88","1","swim","","","","",""
"dual-task","null","null","null","","swim","swim","523.3999999910593","","q","null","88","88","1","swim-dual-task","","q","lowercase","590000","0","3","e3c38f26f23304988a42573d00d6b42369695cd153eb724a006d5f34ac8a3e17","590001.599999994","523.3999999910593","88","1","swim","","","","",""
"dual-task","null","null","null","","swim","swim","483.90000000596046","","a","null","88","88","1","swim-dual-task","","a","lowercase","604000","0","3","e3c38f26f23304988a42573d00d6b42369695cd153eb724a006d5f34ac8a3e17","604001.099999994","483.90000000596046","88","1","swim","","","","",""
"dual-task","null","null","null","","swim","swim","489","","d","null","88","88","1","swim-dual-task","","d","lowercase","614000","0","3","e3c38f26f23304988a42573d00d6b42369695cd153eb724a006d5f34ac8a3e17","614000.5","489","88","1","swim","","","","",""
"dual-task","null","null","null","","swim","swim","523.2999999970198","","D","null","77","77","1","swim-dual-task","","D","uppercase","624000","0","3","e3c38f26f23304988a42573d00d6b42369695cd153eb724a006d5f34ac8a3e17","624001.599999994","523.2999999970198","77","1","swim","","","","",""
"dual-task","null","null","null","","swim","swim","455.79999999701977","","R","null","77","77","1","swim-dual-task","","R","uppercase","632000","0","3","e3c38f26f23304988a42573d00d6b42369695cd153eb724a006d5f34ac8a3e17","632000.799999997","455.79999999701977","77","1","swim","","","","",""
"dual-task","null","null","null","","swim","swim","484.29999999701977","","H","null","77","77","1","swim-dual-task","","H","uppercase","642000","0","3","e3c38f26f23304988a42573d00d6b42369695cd153eb724a006d5f34ac8a3e17","642000.700000003","484.29999999701977","77","1","swim","","","","",""
"dual-task","null","null","null","","swim","swim","432.5","","T","null","77","77","1","swim-dual-task","","T","uppercase","648000","0","3","e3c38f26f23304988a42573d00d6b42369695cd153eb724a006d5f34ac8a3e17","648001.099999994","432.5","77","1","swim","","","","",""
"dual-task","null","null","null","","swim","swim","498","","f","null","88","88","1","swim-dual-task","","f","lowercase","660000","0","3","e3c38f26f23304988a42573d00d6b42369695cd153eb724a006d5f34ac8a3e17","660001.200000003","498","88","1","swim","","","","",""
"dual-task","null","null","null","","swim","swim","437","","r","null","88","88","1","swim-dual-task","","r","lowercase","670000","0","3","e3c38f26f23304988a42573d00d6b42369695cd153eb724a006d5f34ac8a3e17","670000.599999994","437","88","1","swim","","","","",""
"dual-task","null","null","null","","swim","swim","421.29999999701977","","h","null","88","88","1","swim-dual-task","","h","lowercase","680000","0","3","e3c38f26f23304988a42573d00d6b42369695cd153eb724a006d5f34ac8a3e17","680001.200000003","421.29999999701977","88","1","swim","","","","",""
"dual-task","null","null","null","","swim","swim","637.5999999940395","","T","null","77","77","1","swim-dual-task","","T","uppercase","692000","0","3","e3c38f26f23304988a42573d00d6b42369695cd153eb724a006d5f34ac8a3e17","692000.700000003","637.5999999940395","77","1","swim","","","","",""
"dual-task","null","null","null","","swim","swim","460.20000000298023","","d","null","88","88","1","swim-dual-task","","d","lowercase","702000","0","3","e3c38f26f23304988a42573d00d6b42369695cd153eb724a006d5f34ac8a3e17","702001.200000003","460.20000000298023","88","1","swim","","","","",""
"dual-task","null","null","null","","swim","swim","921","","e","null","88","88","1","swim-dual-task","","e","lowercase","710000","0","3","e3c38f26f23304988a42573d00d6b42369695cd153eb724a006d5f34ac8a3e17","710001.5","921","88","1","swim","","","","",""
"dual-task","null","null","null","","swim","swim","632.7999999970198","","n","null","88","88","1","swim-dual-task","","n","lowercase","718000","0","3","e3c38f26f23304988a42573d00d6b42369695cd153eb724a006d5f34ac8a3e17","718000.5","632.7999999970198","88","1","swim","","","","",""
"dual-task","null","null","null","","swim","swim","533.6000000089407","","G","null","77","77","1","swim-dual-task","","G","uppercase","730000","0","3","e3c38f26f23304988a42573d00d6b42369695cd153eb724a006d5f34ac8a3e17","730001.5","533.6000000089407","77","1","swim","","","","",""
"dual-task","null","null","null","","swim","swim","619.5","","A","null","77","77","1","swim-dual-task","","A","uppercase","742000","0","3","e3c38f26f23304988a42573d00d6b42369695cd153eb724a006d5f34ac8a3e17","742000.599999994","619.5","77","1","swim","","","","",""
"dual-task","null","null","null","","swim","swim","1869.5","","b","null","88","88","1","swim-dual-task","","b","lowercase","748000","0","3","e3c38f26f23304988a42573d00d6b42369695cd153eb724a006d5f34ac8a3e17","748001.3999999911","1869.5","88","1","swim","","","","",""
"dual-task","null","null","null","","swim","swim","422.70000000298023","","g","null","88","88","1","swim-dual-task","","g","lowercase","762000","0","3","e3c38f26f23304988a42573d00d6b42369695cd153eb724a006d5f34ac8a3e17","762000.599999994","422.70000000298023","88","1","swim","","","","",""
"dual-task","null","null","null","","swim","swim","438.90000000596046","","H","null","77","77","1","swim-dual-task","","H","uppercase","772000","0","3","e3c38f26f23304988a42573d00d6b42369695cd153eb724a006d5f34ac8a3e17","772001.099999994","438.90000000596046","77","1","swim","","","","",""
"dual-task","null","null","null","","swim","swim","423.19999998807907","","B","null","77","77","1","swim-dual-task","","B","uppercase","784000","0","3","e3c38f26f23304988a42573d00d6b42369695cd153eb724a006d5f34ac8a3e17","784000.599999994","423.19999998807907","77","1","swim","","","","",""
"dual-task","null","null","null","","swim","swim","402.30000001192093","","F","null","77","77","1","swim-dual-task","","F","uppercase","792000","0","3","e3c38f26f23304988a42573d00d6b42369695cd153eb724a006d5f34ac8a3e17","792000.8999999911","402.30000001192093","77","1","swim","","","","",""
"audio-keyboard-response","29","938137","0.0-7.0-0.0-1.0","e3c38f26f23304988a42573d00d6b42369695cd153eb724a006d5f34ac8a3e17","swim","swim","null","","audio/story_swim_scrambled.mp3","","null","","","","","","","","","","","","","","","","","","","",""
"html-button-response","30","941225","0.0-7.0-0.0-2.0","e3c38f26f23304988a42573d00d6b42369695cd153eb724a006d5f34ac8a3e17","swim","swim","3086","","<p>This concludes the story. Thank you for listening.</p><p>You will now answer some questions about the content of the story.</p>","0","","","","","","","","","","","","","","","","","","","","",""
"survey-multi-choice","31","962833","0.0-7.0-0.0-3.0-0.0","e3c38f26f23304988a42573d00d6b42369695cd153eb724a006d5f34ac8a3e17","swim","swim","21605","","<b>What were the astronaut candidates trained to do at the naval air station?</b>","","","","1","swim-comprehension","","","","","","","","","","","","","{""Q0"":""Eject out of aircraft and survive in water long enough to be rescued""}","","","",""
"survey-multi-choice","32","968685","0.0-7.0-0.0-3.0-0.1","e3c38f26f23304988a42573d00d6b42369695cd153eb724a006d5f34ac8a3e17","swim","swim","5599","","<b>Where is the home of naval aviation?</b>","","","","1","swim-comprehension","","","","","","","","","","","","","{""Q0"":""Pensacola""}","","","",""
"survey-multi-choice","33","974807","0.0-7.0-0.0-3.0-0.2","e3c38f26f23304988a42573d00d6b42369695cd153eb724a006d5f34ac8a3e17","swim","swim","5868","","<b>How many astronaut candidates reported for duty at the Johnson Space Center?</b>","","","","1","swim-comprehension","","","","","","","","","","","","","{""Q0"":""Forty-four""}","","","",""
"survey-multi-choice","34","980473","0.0-7.0-0.0-3.0-0.3","e3c38f26f23304988a42573d00d6b42369695cd153eb724a006d5f34ac8a3e17","swim","swim","5412","","<b>What gave the narrator his greatest feeling of accomplishment?</b>","","","","1","swim-comprehension","","","","","","","","","","","","","{""Q0"":""Passing the water survival course""}","","","",""
"survey-multi-choice","35","989591","0.0-7.0-0.0-3.0-0.4","e3c38f26f23304988a42573d00d6b42369695cd153eb724a006d5f34ac8a3e17","swim","swim","8864","","<b>How did the narrator train for his swim test?</b>","","","","1","swim-comprehension","","","","","","","","","","","","","{""Q0"":""Took his kids to the pool every day""}","","","",""
"survey-multi-choice","36","994801","0.0-7.0-0.0-3.0-0.5","e3c38f26f23304988a42573d00d6b42369695cd153eb724a006d5f34ac8a3e17","swim","swim","4956","","<b>How often does the narrator swim, now that he is a good swimmer?</b>","","","","1","swim-comprehension","","","","","","","","","","","","","{""Q0"":""Never swam again in his life""}","","","",""
"survey-multi-choice","37","998621","0.0-7.0-0.0-3.0-0.6","e3c38f26f23304988a42573d00d6b42369695cd153eb724a006d5f34ac8a3e17","swim","swim","3566","","<b>How many times did the astronaut candidates have to complete the final exercise to pass?</b>","","","","1","swim-comprehension","","","","","","","","","","","","","{""Q0"":""Two""}","","","",""
"survey-multi-choice","38","1005491","0.0-7.0-0.0-3.0-0.7","e3c38f26f23304988a42573d00d6b42369695cd153eb724a006d5f34ac8a3e17","swim","swim","6617","","<b>What was the final step of the first swim test in the pool?</b>","","","","1","swim-comprehension","","","","","","","","","","","","","{""Q0"":""Tread water with hands above the water""}","","","",""
"survey-multi-choice","39","1010898","0.0-7.0-0.0-3.0-0.8","e3c38f26f23304988a42573d00d6b42369695cd153eb724a006d5f34ac8a3e17","swim","swim","5156","","<b>How many astronaut candidates passed the first swim test?</b>","","","","1","swim-comprehension","","","","","","","","","","","","","{""Q0"":""All of them""}","","","",""
"survey-multi-choice","40","1014607","0.0-7.0-0.0-3.0-0.9","e3c38f26f23304988a42573d00d6b42369695cd153eb724a006d5f34ac8a3e17","swim","swim","3455","","<b>What is the narrator afraid of, aside from the water?</b>","","","","1","swim-comprehension","","","","","","","","","","","","","{""Q0"":""Heights""}","","","",""
"html-button-response","41","1016234","0.0-7.0-0.0-4.0","e3c38f26f23304988a42573d00d6b42369695cd153eb724a006d5f34ac8a3e17","swim","swim","1376","","<p>Thank you for your responses.</p><p>You will now answer some questions about your impressions of the story.</p>","0","","","","","","","","","","","","","","","","","","","","",""
"html-button-response","42","1018022","0.0-7.0-0.0-5.0-0.0","e3c38f26f23304988a42573d00d6b42369695cd153eb724a006d5f34ac8a3e17","swim","swim","1786","","A3","4","","","","swim-engagement","","","","","","","","","","","","","","5","absorption","",""
"html-button-response","43","1019672","0.0-7.0-0.0-5.0-0.1","e3c38f26f23304988a42573d00d6b42369695cd153eb724a006d5f34ac8a3e17","swim","swim","1398","","E1","2","","","","swim-engagement","","","","","","","","","","","","","","3","enjoyment","",""
"html-button-response","44","1021226","0.0-7.0-0.0-5.0-0.2","e3c38f26f23304988a42573d00d6b42369695cd153eb724a006d5f34ac8a3e17","swim","swim","1302","","EE2","4","","","","swim-engagement","","","","","","","","","","","","","","5","emo-engage","",""
"html-button-response","45","1022691","0.0-7.0-0.0-5.0-0.3","e3c38f26f23304988a42573d00d6b42369695cd153eb724a006d5f34ac8a3e17","swim","swim","1214","","E6","3","","","","swim-engagement","","","","","","","","","","","","","","4","enjoyment","",""
"html-button-response","46","1024935","0.0-7.0-0.0-5.0-0.4","e3c38f26f23304988a42573d00d6b42369695cd153eb724a006d5f34ac8a3e17","swim","swim","1993","","E7","3","","","","swim-engagement","","","","","","","","","","","","","","4","enjoyment","",""
"html-button-response","47","1026964","0.0-7.0-0.0-5.0-0.5","e3c38f26f23304988a42573d00d6b42369695cd153eb724a006d5f34ac8a3e17","swim","swim","1777","","EE5","4","","","","swim-engagement","","","","","","","","","","","","","","5","emo-engage","",""
"html-button-response","48","1029199","0.0-7.0-0.0-5.0-0.6","e3c38f26f23304988a42573d00d6b42369695cd153eb724a006d5f34ac8a3e17","swim","swim","1985","","A2","3","","","","swim-engagement","","","","","","","","","","","","","","4","absorption","",""
"html-button-response","49","1031507","0.0-7.0-0.0-5.0-0.7","e3c38f26f23304988a42573d00d6b42369695cd153eb724a006d5f34ac8a3e17","swim","swim","2057","","A1","2","","","","swim-engagement","","","","","","","","","","","","","","3","absorption","",""
"html-button-response","50","1033623","0.0-7.0-0.0-5.0-0.8","e3c38f26f23304988a42573d00d6b42369695cd153eb724a006d5f34ac8a3e17","swim","swim","1865","","MS3","2","","","","swim-engagement","","","","","","","","","","","","","","3","mental-sim","",""
"html-button-response","51","1036155","0.0-7.0-0.0-5.0-0.9","e3c38f26f23304988a42573d00d6b42369695cd153eb724a006d5f34ac8a3e17","swim","swim","2280","","MS1","3","","","","swim-engagement","","","","","","","","","","","","","","4","mental-sim","",""
"html-button-response","52","1038143","0.0-7.0-0.0-5.0-0.10","e3c38f26f23304988a42573d00d6b42369695cd153eb724a006d5f34ac8a3e17","swim","swim","1737","","EE4","2","","","","swim-engagement","","","","","","","","","","","","","","3","emo-engage","",""
"html-button-response","53","1040009","0.0-7.0-0.0-5.0-0.11","e3c38f26f23304988a42573d00d6b42369695cd153eb724a006d5f34ac8a3e17","swim","swim","1614","","MS2","3","","","","swim-engagement","","","","","","","","","","","","","","4","mental-sim","",""
"html-button-response","54","1042775","0.0-7.0-0.0-5.0-0.12","e3c38f26f23304988a42573d00d6b42369695cd153eb724a006d5f34ac8a3e17","swim","swim","2513","","EE1","5","","","","swim-engagement","","","","","","","","","","","","","","6","emo-engage","",""
"html-button-response","55","1044329","0.0-7.0-0.0-5.0-0.13","e3c38f26f23304988a42573d00d6b42369695cd153eb724a006d5f34ac8a3e17","swim","swim","1302","","EE3","3","","","","swim-engagement","","","","","","","","","","","","","","4","emo-engage","",""
"html-button-response","56","1046229","0.0-7.0-0.0-5.0-0.14","e3c38f26f23304988a42573d00d6b42369695cd153eb724a006d5f34ac8a3e17","swim","swim","1649","","E8","1","","","","swim-engagement","","","","","","","","","","","","","","2","enjoyment","",""
"html-button-response","57","1048807","0.0-7.0-0.0-5.0-0.15","e3c38f26f23304988a42573d00d6b42369695cd153eb724a006d5f34ac8a3e17","swim","swim","2327","","E10","0","","","","swim-engagement","","","","","","","","","","","","","","1","enjoyment","",""
"html-button-response","58","1050731","0.0-7.0-0.0-5.0-0.16","e3c38f26f23304988a42573d00d6b42369695cd153eb724a006d5f34ac8a3e17","swim","swim","1673","","A4","1","","","","swim-engagement","","","","","","","","","","","","","","2","absorption","",""
"html-button-response","59","1052717","0.0-7.0-0.0-5.0-0.17","e3c38f26f23304988a42573d00d6b42369695cd153eb724a006d5f34ac8a3e17","swim","swim","1735","","A5","1","","","","swim-engagement","","","","","","","","","","","","","","2","absorption","",""
"html-keyboard-response","60","1264339","0.0-7.0-1.0","e3c38f26f23304988a42573d00d6b42369695cd153eb724a006d5f34ac8a3e17","swim","swim","211371","","<p>Thank you for your responses. You will now listen to the second story.</p><p>Remember, as you listen to the story you will see letters appear on the screen.</br>As quickly as possible, press <b>&lt;x&gt;</b> if the letter is lowercase and <b>&lt;m&gt;</b> if the letter is uppercase.</p><p>Press <b>&lt;x&gt;</b> or <b>&lt;m&gt;</b> to begin listening!</p>","","77","","","","","","","","","","","","","","","","","","","",""
"html-keyboard-response","61","1264840","0.0-7.0-2.0-0.0","e3c38f26f23304988a42573d00d6b42369695cd153eb724a006d5f34ac8a3e17","swim","swim","null","","<div style=""font-size:60px;"" tabindex=""0"">+</div>","","null","","","","","","","","","","","","","","","","","","","",""
"dual-task","null","null","null","","swim","swim","498.20000000298023","","e","null","88","88","1","arctic-dual-task","","e","lowercase","14000","0","3","e3c38f26f23304988a42573d00d6b42369695cd153eb724a006d5f34ac8a3e17","14000.70000000298","498.20000000298023","88","1","arctic","","","","",""
"dual-task","null","null","null","","swim","swim","423.09999999403954","","E","null","77","77","1","arctic-dual-task","","E","uppercase","28000","0","3","e3c38f26f23304988a42573d00d6b42369695cd153eb724a006d5f34ac8a3e17","27999.59999999404","423.09999999403954","77","1","arctic","","","","",""
"dual-task","null","null","null","","swim","swim","468","","g","null","88","88","1","arctic-dual-task","","g","lowercase","38000","0","3","e3c38f26f23304988a42573d00d6b42369695cd153eb724a006d5f34ac8a3e17","38000.59999999404","468","88","1","arctic","","","","",""
"dual-task","null","null","null","","swim","swim","488.29999999701977","","h","null","88","88","1","arctic-dual-task","","h","lowercase","50000","0","3","e3c38f26f23304988a42573d00d6b42369695cd153eb724a006d5f34ac8a3e17","50000.09999999404","488.29999999701977","88","1","arctic","","","","",""
"dual-task","null","null","null","","swim","swim","1026.7000000029802","","e","null","88","88","1","arctic-dual-task","","e","lowercase","58000","0","3","e3c38f26f23304988a42573d00d6b42369695cd153eb724a006d5f34ac8a3e17","58001.09999999404","1026.7000000029802","88","1","arctic","","","","",""
"dual-task","null","null","null","","swim","swim","400.59999999403954","","h","null","88","88","1","arctic-dual-task","","h","lowercase","70000","0","3","e3c38f26f23304988a42573d00d6b42369695cd153eb724a006d5f34ac8a3e17","69999.59999999404","400.59999999403954","88","1","arctic","","","","",""
"dual-task","null","null","null","","swim","swim","524.2000000029802","","r","null","88","88","1","arctic-dual-task","","r","lowercase","84000","0","3","e3c38f26f23304988a42573d00d6b42369695cd153eb724a006d5f34ac8a3e17","84000.20000000298","524.2000000029802","88","1","arctic","","","","",""
"dual-task","null","null","null","","swim","swim","542.9000000059605","","e","null","88","88","1","arctic-dual-task","","e","lowercase","98000","0","3","e3c38f26f23304988a42573d00d6b42369695cd153eb724a006d5f34ac8a3e17","98001","542.9000000059605","88","1","arctic","","","","",""
"dual-task","null","null","null","","swim","swim","560.3999999910593","","b","null","88","88","1","arctic-dual-task","","b","lowercase","112000","0","3","e3c38f26f23304988a42573d00d6b42369695cd153eb724a006d5f34ac8a3e17","112000.70000000298","560.3999999910593","88","1","arctic","","","","",""
"dual-task","null","null","null","","swim","swim","1413.1000000089407","","R","null","77","77","1","arctic-dual-task","","R","uppercase","120000","0","3","e3c38f26f23304988a42573d00d6b42369695cd153eb724a006d5f34ac8a3e17","120000","1413.1000000089407","77","1","arctic","","","","",""
"dual-task","null","null","null","","swim","swim","471.70000000298023","","H","null","77","77","1","arctic-dual-task","","H","uppercase","132000","0","3","e3c38f26f23304988a42573d00d6b42369695cd153eb724a006d5f34ac8a3e17","132000.09999999404","471.70000000298023","77","1","arctic","","","","",""
"dual-task","null","null","null","","swim","swim","531.5","","T","null","77","77","1","arctic-dual-task","","T","uppercase","146000","0","3","e3c38f26f23304988a42573d00d6b42369695cd153eb724a006d5f34ac8a3e17","146000.29999999702","531.5","77","1","arctic","","","","",""
"dual-task","null","null","null","","swim","swim","440.20000000298023","","G","null","77","77","1","arctic-dual-task","","G","uppercase","154000","0","3","e3c38f26f23304988a42573d00d6b42369695cd153eb724a006d5f34ac8a3e17","154000.59999999404","440.20000000298023","77","1","arctic","","","","",""
"dual-task","null","null","null","","swim","swim","597.4000000059605","","a","null","88","88","1","arctic-dual-task","","a","lowercase","164000","0","3","e3c38f26f23304988a42573d00d6b42369695cd153eb724a006d5f34ac8a3e17","164000.09999999404","597.4000000059605","88","1","arctic","","","","",""
"dual-task","null","null","null","","swim","swim","489.20000000298023","","H","null","77","77","1","arctic-dual-task","","H","uppercase","178000","0","3","e3c38f26f23304988a42573d00d6b42369695cd153eb724a006d5f34ac8a3e17","178000.20000000298","489.20000000298023","77","1","arctic","","","","",""
"dual-task","null","null","null","","swim","swim","465.90000000596046","","E","null","77","77","1","arctic-dual-task","","E","uppercase","186000","0","3","e3c38f26f23304988a42573d00d6b42369695cd153eb724a006d5f34ac8a3e17","186000.59999999404","465.90000000596046","77","1","arctic","","","","",""
"dual-task","null","null","null","","swim","swim","514.2999999970198","","r","null","88","88","1","arctic-dual-task","","r","lowercase","200000","0","3","e3c38f26f23304988a42573d00d6b42369695cd153eb724a006d5f34ac8a3e17","200000.79999999702","514.2999999970198","88","1","arctic","","","","",""
"dual-task","null","null","null","","swim","swim","488.8999999910593","","A","null","77","77","1","arctic-dual-task","","A","uppercase","212000","0","3","e3c38f26f23304988a42573d00d6b42369695cd153eb724a006d5f34ac8a3e17","212001.5","488.8999999910593","77","1","arctic","","","","",""
"dual-task","null","null","null","","swim","swim","479.59999999403954","","E","null","77","77","1","arctic-dual-task","","E","uppercase","220000","0","3","e3c38f26f23304988a42573d00d6b42369695cd153eb724a006d5f34ac8a3e17","220000.70000000298","479.59999999403954","77","1","arctic","","","","",""
"dual-task","null","null","null","","swim","swim","496.19999998807907","","B","null","77","77","1","arctic-dual-task","","B","uppercase","234000","0","3","e3c38f26f23304988a42573d00d6b42369695cd153eb724a006d5f34ac8a3e17","234000.40000000596","496.19999998807907","77","1","arctic","","","","",""
"dual-task","null","null","null","","swim","swim","471.5","","T","null","77","77","1","arctic-dual-task","","T","uppercase","246000","0","3","e3c38f26f23304988a42573d00d6b42369695cd153eb724a006d5f34ac8a3e17","246001.20000000298","471.5","77","1","arctic","","","","",""
"dual-task","null","null","null","","swim","swim","813.8999999910593","","A","null","77","77","1","arctic-dual-task","","A","uppercase","256000","0","3","e3c38f26f23304988a42573d00d6b42369695cd153eb724a006d5f34ac8a3e17","256000.90000000596","813.8999999910593","77","1","arctic","","","","",""
"dual-task","null","null","null","","swim","swim","1383.3999999910593","","F","null","77","77","1","arctic-dual-task","","F","uppercase","264000","0","3","e3c38f26f23304988a42573d00d6b42369695cd153eb724a006d5f34ac8a3e17","264000.40000000596","1383.3999999910593","77","1","arctic","","","","",""
"dual-task","null","null","null","","swim","swim","744.1999999880791","","d","null","88","88","1","arctic-dual-task","","d","lowercase","274000","0","3","e3c38f26f23304988a42573d00d6b42369695cd153eb724a006d5f34ac8a3e17","274000.299999997","744.1999999880791","88","1","arctic","","","","",""
"dual-task","null","null","null","","swim","swim","1186","","q","null","88","88","1","arctic-dual-task","","q","lowercase","286000","0","3","e3c38f26f23304988a42573d00d6b42369695cd153eb724a006d5f34ac8a3e17","286000.299999997","1186","88","1","arctic","","","","",""
"dual-task","null","null","null","","swim","swim","689.1999999880791","","A","null","77","77","1","arctic-dual-task","","A","uppercase","296000","0","3","e3c38f26f23304988a42573d00d6b42369695cd153eb724a006d5f34ac8a3e17","296000.299999997","689.1999999880791","77","1","arctic","","","","",""
"dual-task","null","null","null","","swim","swim","NA","","A","null","NA","77","0","arctic-dual-task","","A","uppercase","306000","1","3","e3c38f26f23304988a42573d00d6b42369695cd153eb724a006d5f34ac8a3e17","306001.200000003","NA","NA","0","arctic","","","","",""
"dual-task","null","null","null","","swim","swim","1340.2999999970198","","T","null","77","77","1","arctic-dual-task","","T","uppercase","314000","0","3","e3c38f26f23304988a42573d00d6b42369695cd153eb724a006d5f34ac8a3e17","314001.200000003","1340.2999999970198","77","1","arctic","","","","",""
"dual-task","null","null","null","","swim","swim","513.2000000029802","","Q","null","77","77","1","arctic-dual-task","","Q","uppercase","326000","0","3","e3c38f26f23304988a42573d00d6b42369695cd153eb724a006d5f34ac8a3e17","326000.700000003","513.2000000029802","77","1","arctic","","","","",""
"dual-task","null","null","null","","swim","swim","451.20000000298023","","Q","null","77","77","1","arctic-dual-task","","Q","uppercase","334000","0","3","e3c38f26f23304988a42573d00d6b42369695cd153eb724a006d5f34ac8a3e17","334000.09999999404","451.20000000298023","77","1","arctic","","","","",""
"dual-task","null","null","null","","swim","swim","443.20000000298023","","B","null","77","77","1","arctic-dual-task","","B","uppercase","346000","0","3","e3c38f26f23304988a42573d00d6b42369695cd153eb724a006d5f34ac8a3e17","346000.700000003","443.20000000298023","77","1","arctic","","","","",""
"dual-task","null","null","null","","swim","swim","592.6000000089407","","e","null","88","88","1","arctic-dual-task","","e","lowercase","356000","0","3","e3c38f26f23304988a42573d00d6b42369695cd153eb724a006d5f34ac8a3e17","356001.09999999404","592.6000000089407","88","1","arctic","","","","",""
"dual-task","null","null","null","","swim","swim","472.90000000596046","","F","null","77","77","1","arctic-dual-task","","F","uppercase","366000","0","3","e3c38f26f23304988a42573d00d6b42369695cd153eb724a006d5f34ac8a3e17","366000.09999999404","472.90000000596046","77","1","arctic","","","","",""
"dual-task","null","null","null","","swim","swim","594.3000000119209","","f","null","88","88","1","arctic-dual-task","","f","lowercase","376000","0","3","e3c38f26f23304988a42573d00d6b42369695cd153eb724a006d5f34ac8a3e17","376001.09999999404","594.3000000119209","88","1","arctic","","","","",""
"dual-task","null","null","null","","swim","swim","492.1000000089407","","n","null","88","88","1","arctic-dual-task","","n","lowercase","386000","0","3","e3c38f26f23304988a42573d00d6b42369695cd153eb724a006d5f34ac8a3e17","386000.59999999404","492.1000000089407","88","1","arctic","","","","",""
"dual-task","null","null","null","","swim","swim","478.8999999910593","","N","null","77","77","1","arctic-dual-task","","N","uppercase","398000","0","3","e3c38f26f23304988a42573d00d6b42369695cd153eb724a006d5f34ac8a3e17","398000.700000003","478.8999999910593","77","1","arctic","","","","",""
"dual-task","null","null","null","","swim","swim","1118.2000000029802","","D","null","77","77","1","arctic-dual-task","","D","uppercase","404000","0","3","e3c38f26f23304988a42573d00d6b42369695cd153eb724a006d5f34ac8a3e17","404000.40000000596","1118.2000000029802","77","1","arctic","","","","",""
"dual-task","null","null","null","","swim","swim","526.0999999940395","","t","null","88","88","1","arctic-dual-task","","t","lowercase","418000","0","3","e3c38f26f23304988a42573d00d6b42369695cd153eb724a006d5f34ac8a3e17","418001.09999999404","526.0999999940395","88","1","arctic","","","","",""
"dual-task","null","null","null","","swim","swim","1717.8999999910593","","r","null","88","88","1","arctic-dual-task","","r","lowercase","424000","0","3","e3c38f26f23304988a42573d00d6b42369695cd153eb724a006d5f34ac8a3e17","424000.40000000596","1717.8999999910593","88","1","arctic","","","","",""
"dual-task","null","null","null","","swim","swim","562","","a","null","88","88","1","arctic-dual-task","","a","lowercase","436000","0","3","e3c38f26f23304988a42573d00d6b42369695cd153eb724a006d5f34ac8a3e17","436000.90000000596","562","88","1","arctic","","","","",""
"dual-task","null","null","null","","swim","swim","1034.2000000029802","","N","null","77","77","1","arctic-dual-task","","N","uppercase","446000","0","3","e3c38f26f23304988a42573d00d6b42369695cd153eb724a006d5f34ac8a3e17","446000.40000000596","1034.2000000029802","77","1","arctic","","","","",""
"dual-task","null","null","null","","swim","swim","1695","","t","null","88","88","1","arctic-dual-task","","t","lowercase","452000","0","3","e3c38f26f23304988a42573d00d6b42369695cd153eb724a006d5f34ac8a3e17","452001.200000003","1695","88","1","arctic","","","","",""
"dual-task","null","null","null","","swim","swim","1074.2000000029802","","t","null","88","88","1","arctic-dual-task","","t","lowercase","460000","0","3","e3c38f26f23304988a42573d00d6b42369695cd153eb724a006d5f34ac8a3e17","460000.5","1074.2000000029802","88","1","arctic","","","","",""
"dual-task","null","null","null","","swim","swim","763.0999999940395","","F","null","77","77","1","arctic-dual-task","","F","uppercase","468000","0","3","e3c38f26f23304988a42573d00d6b42369695cd153eb724a006d5f34ac8a3e17","468000.90000000596","763.0999999940395","77","1","arctic","","","","",""
"dual-task","null","null","null","","swim","swim","NA","","G","null","NA","77","0","arctic-dual-task","","G","uppercase","474000","1","3","e3c38f26f23304988a42573d00d6b42369695cd153eb724a006d5f34ac8a3e17","474000.200000003","NA","NA","0","arctic","","","","",""
"dual-task","null","null","null","","swim","swim","1125.7000000029802","","R","null","77","77","1","arctic-dual-task","","R","uppercase","484000","0","3","e3c38f26f23304988a42573d00d6b42369695cd153eb724a006d5f34ac8a3e17","484000.799999997","1125.7000000029802","77","1","arctic","","","","",""
"dual-task","null","null","null","","swim","swim","447.69999998807907","","n","null","88","88","1","arctic-dual-task","","n","lowercase","498000","0","3","e3c38f26f23304988a42573d00d6b42369695cd153eb724a006d5f34ac8a3e17","498000.799999997","447.69999998807907","88","1","arctic","","","","",""
"dual-task","null","null","null","","swim","swim","669.2000000029802","","b","null","88","88","1","arctic-dual-task","","b","lowercase","504000","0","3","e3c38f26f23304988a42573d00d6b42369695cd153eb724a006d5f34ac8a3e17","504000.5","669.2000000029802","88","1","arctic","","","","",""
"dual-task","null","null","null","","swim","swim","1049.2000000029802","","T","null","77","77","1","arctic-dual-task","","T","uppercase","512000","0","3","e3c38f26f23304988a42573d00d6b42369695cd153eb724a006d5f34ac8a3e17","512001","1049.2000000029802","77","1","arctic","","","","",""
"dual-task","null","null","null","","swim","swim","932.7999999970198","","Q","null","88","77","0","arctic-dual-task","","Q","uppercase","518000","0","3","e3c38f26f23304988a42573d00d6b42369695cd153eb724a006d5f34ac8a3e17","518000.799999997","932.7999999970198","88","0","arctic","","","","",""
"dual-task","null","null","null","","swim","swim","497.29999999701977","","E","null","77","77","1","arctic-dual-task","","E","uppercase","528000","0","3","e3c38f26f23304988a42573d00d6b42369695cd153eb724a006d5f34ac8a3e17","528000.700000003","497.29999999701977","77","1","arctic","","","","",""
"dual-task","null","null","null","","swim","swim","497.3999999910593","","h","null","88","88","1","arctic-dual-task","","h","lowercase","536000","0","3","e3c38f26f23304988a42573d00d6b42369695cd153eb724a006d5f34ac8a3e17","536000.200000003","497.3999999910593","88","1","arctic","","","","",""
"dual-task","null","null","null","","swim","swim","495","","D","null","77","77","1","arctic-dual-task","","D","uppercase","548000","0","3","e3c38f26f23304988a42573d00d6b42369695cd153eb724a006d5f34ac8a3e17","548000.700000003","495","77","1","arctic","","","","",""
"dual-task","null","null","null","","swim","swim","440.59999999403954","","N","null","77","77","1","arctic-dual-task","","N","uppercase","556000","0","3","e3c38f26f23304988a42573d00d6b42369695cd153eb724a006d5f34ac8a3e17","556000.599999994","440.59999999403954","77","1","arctic","","","","",""
"dual-task","null","null","null","","swim","swim","526.7000000029802","","f","null","88","88","1","arctic-dual-task","","f","lowercase","568000","0","3","e3c38f26f23304988a42573d00d6b42369695cd153eb724a006d5f34ac8a3e17","568001.200000003","526.7000000029802","88","1","arctic","","","","",""
"dual-task","null","null","null","","swim","swim","497.8999999910593","","b","null","88","88","1","arctic-dual-task","","b","lowercase","576000","0","3","e3c38f26f23304988a42573d00d6b42369695cd153eb724a006d5f34ac8a3e17","576001.099999994","497.8999999910593","88","1","arctic","","","","",""
"dual-task","null","null","null","","swim","swim","455.90000000596046","","b","null","88","88","1","arctic-dual-task","","b","lowercase","584000","0","3","e3c38f26f23304988a42573d00d6b42369695cd153eb724a006d5f34ac8a3e17","584001.5","455.90000000596046","88","1","arctic","","","","",""
"dual-task","null","null","null","","swim","swim","472.09999999403954","","B","null","77","77","1","arctic-dual-task","","B","uppercase","592000","0","3","e3c38f26f23304988a42573d00d6b42369695cd153eb724a006d5f34ac8a3e17","592000.799999997","472.09999999403954","77","1","arctic","","","","",""
"dual-task","null","null","null","","swim","swim","525.2999999970198","","a","null","88","88","1","arctic-dual-task","","a","lowercase","600000","0","3","e3c38f26f23304988a42573d00d6b42369695cd153eb724a006d5f34ac8a3e17","600000.299999997","525.2999999970198","88","1","arctic","","","","",""
"dual-task","null","null","null","","swim","swim","519.1999999880791","","g","null","88","88","1","arctic-dual-task","","g","lowercase","614000","0","3","e3c38f26f23304988a42573d00d6b42369695cd153eb724a006d5f34ac8a3e17","614000.400000006","519.1999999880791","88","1","arctic","","","","",""
"dual-task","null","null","null","","swim","swim","579.4000000059605","","B","null","77","77","1","arctic-dual-task","","B","uppercase","622000","0","3","e3c38f26f23304988a42573d00d6b42369695cd153eb724a006d5f34ac8a3e17","622001.299999997","579.4000000059605","77","1","arctic","","","","",""
"dual-task","null","null","null","","swim","swim","576.1000000089407","","H","null","77","77","1","arctic-dual-task","","H","uppercase","628000","0","3","e3c38f26f23304988a42573d00d6b42369695cd153eb724a006d5f34ac8a3e17","628001.099999994","576.1000000089407","77","1","arctic","","","","",""
"dual-task","null","null","null","","swim","swim","466.09999999403954","","R","null","77","77","1","arctic-dual-task","","R","uppercase","636000","0","3","e3c38f26f23304988a42573d00d6b42369695cd153eb724a006d5f34ac8a3e17","636000.400000006","466.09999999403954","77","1","arctic","","","","",""
"dual-task","null","null","null","","swim","swim","620.7999999970198","","h","null","88","88","1","arctic-dual-task","","h","lowercase","642000","0","3","e3c38f26f23304988a42573d00d6b42369695cd153eb724a006d5f34ac8a3e17","642000.200000003","620.7999999970198","88","1","arctic","","","","",""
"dual-task","null","null","null","","swim","swim","527.4000000059605","","g","null","88","88","1","arctic-dual-task","","g","lowercase","650000","0","3","e3c38f26f23304988a42573d00d6b42369695cd153eb724a006d5f34ac8a3e17","650001.099999994","527.4000000059605","88","1","arctic","","","","",""
"dual-task","null","null","null","","swim","swim","464.29999999701977","","H","null","77","77","1","arctic-dual-task","","H","uppercase","662000","0","3","e3c38f26f23304988a42573d00d6b42369695cd153eb724a006d5f34ac8a3e17","662000.599999994","464.29999999701977","77","1","arctic","","","","",""
"dual-task","null","null","null","","swim","swim","429.29999999701977","","D","null","77","77","1","arctic-dual-task","","D","uppercase","668000","0","3","e3c38f26f23304988a42573d00d6b42369695cd153eb724a006d5f34ac8a3e17","668001","429.29999999701977","77","1","arctic","","","","",""
"dual-task","null","null","null","","swim","swim","488","","q","null","88","88","1","arctic-dual-task","","q","lowercase","674000","0","3","e3c38f26f23304988a42573d00d6b42369695cd153eb724a006d5f34ac8a3e17","674000.700000003","488","88","1","arctic","","","","",""
"dual-task","null","null","null","","swim","swim","515.8000000119209","","Q","null","77","77","1","arctic-dual-task","","Q","uppercase","682000","0","3","e3c38f26f23304988a42573d00d6b42369695cd153eb724a006d5f34ac8a3e17","682000.599999994","515.8000000119209","77","1","arctic","","","","",""
"dual-task","null","null","null","","swim","swim","496.3999999910593","","d","null","88","88","1","arctic-dual-task","","d","lowercase","696000","0","3","e3c38f26f23304988a42573d00d6b42369695cd153eb724a006d5f34ac8a3e17","696000.200000003","496.3999999910593","88","1","arctic","","","","",""
"dual-task","null","null","null","","swim","swim","482.29999999701977","","d","null","88","88","1","arctic-dual-task","","d","lowercase","704000","0","3","e3c38f26f23304988a42573d00d6b42369695cd153eb724a006d5f34ac8a3e17","704001.700000003","482.29999999701977","88","1","arctic","","","","",""
"dual-task","null","null","null","","swim","swim","747.2000000029802","","G","null","77","77","1","arctic-dual-task","","G","uppercase","710000","0","3","e3c38f26f23304988a42573d00d6b42369695cd153eb724a006d5f34ac8a3e17","710001.400000006","747.2000000029802","77","1","arctic","","","","",""
"dual-task","null","null","null","","swim","swim","543.5","","n","null","88","88","1","arctic-dual-task","","n","lowercase","722000","0","3","e3c38f26f23304988a42573d00d6b42369695cd153eb724a006d5f34ac8a3e17","722001","543.5","88","1","arctic","","","","",""
"dual-task","null","null","null","","swim","swim","470.8999999910593","","n","null","88","88","1","arctic-dual-task","","n","lowercase","730000","0","3","e3c38f26f23304988a42573d00d6b42369695cd153eb724a006d5f34ac8a3e17","730000.799999997","470.8999999910593","88","1","arctic","","","","",""
"dual-task","null","null","null","","swim","swim","471.29999999701977","","g","null","88","88","1","arctic-dual-task","","g","lowercase","740000","0","3","e3c38f26f23304988a42573d00d6b42369695cd153eb724a006d5f34ac8a3e17","740001.299999997","471.29999999701977","88","1","arctic","","","","",""
"dual-task","null","null","null","","swim","swim","569.2999999970198","","G","null","77","77","1","arctic-dual-task","","G","uppercase","750000","0","3","e3c38f26f23304988a42573d00d6b42369695cd153eb724a006d5f34ac8a3e17","750000.799999997","569.2999999970198","77","1","arctic","","","","",""
"dual-task","null","null","null","","swim","swim","681.7000000029802","","d","null","88","88","1","arctic-dual-task","","d","lowercase","758000","0","3","e3c38f26f23304988a42573d00d6b42369695cd153eb724a006d5f34ac8a3e17","758001.799999997","681.7000000029802","88","1","arctic","","","","",""
"dual-task","null","null","null","","swim","swim","544.6999999880791","","N","null","77","77","1","arctic-dual-task","","N","uppercase","772000","0","3","e3c38f26f23304988a42573d00d6b42369695cd153eb724a006d5f34ac8a3e17","772001.299999997","544.6999999880791","77","1","arctic","","","","",""
"dual-task","null","null","null","","swim","swim","442.5","","f","null","88","88","1","arctic-dual-task","","f","lowercase","782000","0","3","e3c38f26f23304988a42573d00d6b42369695cd153eb724a006d5f34ac8a3e17","782000.799999997","442.5","88","1","arctic","","","","",""
"audio-keyboard-response","62","2062905","0.0-7.0-2.0-1.0","e3c38f26f23304988a42573d00d6b42369695cd153eb724a006d5f34ac8a3e17","swim","swim","null","","audio/story_arctic.mp3","","null","","","","","","","","","","","","","","","","","","","",""
"html-button-response","63","2073929","0.0-7.0-2.0-2.0","e3c38f26f23304988a42573d00d6b42369695cd153eb724a006d5f34ac8a3e17","swim","swim","11024","","<p>This concludes the story. Thank you for listening.</p><p>You will now answer some questions about the content of the story.</p>","0","","","","","","","","","","","","","","","","","","","","",""
"survey-multi-choice","64","2082678","0.0-7.0-2.0-3.0-0.0","e3c38f26f23304988a42573d00d6b42369695cd153eb724a006d5f34ac8a3e17","swim","swim","8747","","<b>How did the narrator&#39;s neighbour respond when she told him about her expedition?</b>","","","","1","arctic-comprehension","","","","","","","","","","","","","{""Q0"":""He said she was going to fail.""}","","","",""
"survey-multi-choice","65","2088656","0.0-7.0-2.0-3.0-0.1","e3c38f26f23304988a42573d00d6b42369695cd153eb724a006d5f34ac8a3e17","swim","swim","5725","","<b>Which dog on the narrator&#39;s dog team never followed instructions?</b>","","","","1","arctic-comprehension","","","","","","","","","","","","","{""Q0"":""Robert""}","","","",""
"survey-multi-choice","66","2095474","0.0-7.0-2.0-3.0-0.2","e3c38f26f23304988a42573d00d6b42369695cd153eb724a006d5f34ac8a3e17","swim","swim","6566","","<b>How did the narrator prepare for her expedition?</b>","","","","1","arctic-comprehension","","","","","","","","","","","","","{""Q0"":""Trained in Alaska learning how to dogsled""}","","","",""
"survey-multi-choice","67","2099792","0.0-7.0-2.0-3.0-0.3","e3c38f26f23304988a42573d00d6b42369695cd153eb724a006d5f34ac8a3e17","swim","swim","4065","","<b>How many sponsorships did the narrator receive to support her expedition?</b>","","","","1","arctic-comprehension","","","","","","","","","","","","","{""Q0"":""None""}","","","",""
"survey-multi-choice","68","2104290","0.0-7.0-2.0-3.0-0.4","e3c38f26f23304988a42573d00d6b42369695cd153eb724a006d5f34ac8a3e17","swim","swim","4246","","<b>What did the narrator do for leisure while in her tent?</b>","","","","1","arctic-comprehension","","","","","","","","","","","","","{""Q0"":""Read""}","","","",""
"survey-multi-choice","69","2107372","0.0-7.0-2.0-3.0-0.5","e3c38f26f23304988a42573d00d6b42369695cd153eb724a006d5f34ac8a3e17","swim","swim","2830","","<b>What is the name of the narrator&#39;s neighbour?</b>","","","","1","arctic-comprehension","","","","","","","","","","","","","{""Q0"":""Dave""}","","","",""
"survey-multi-choice","70","2112298","0.0-7.0-2.0-3.0-0.6","e3c38f26f23304988a42573d00d6b42369695cd153eb724a006d5f34ac8a3e17","swim","swim","4674","","<b>How did the narrator&#39;s encounter with the polar bears end?</b>","","","","1","arctic-comprehension","","","","","","","","","","","","","{""Q0"":""The bears walked back to their den.""}","","","",""
"survey-multi-choice","71","2116080","0.0-7.0-2.0-3.0-0.7","e3c38f26f23304988a42573d00d6b42369695cd153eb724a006d5f34ac8a3e17","swim","swim","3529","","<b>What was the objective of the narrator&#39;s expedition?</b>","","","","1","arctic-comprehension","","","","","","","","","","","","","{""Q0"":""Dogsled across Arctic America""}","","","",""
"survey-multi-choice","72","2125218","0.0-7.0-2.0-3.0-0.8","e3c38f26f23304988a42573d00d6b42369695cd153eb724a006d5f34ac8a3e17","swim","swim","8884","","<b>How did the dogs respond when they saw the bears?</b>","","","","1","arctic-comprehension","","","","","","","","","","","","","{""Q0"":""Approached them""}","","","",""
"survey-multi-choice","73","2130480","0.0-7.0-2.0-3.0-0.9","e3c38f26f23304988a42573d00d6b42369695cd153eb724a006d5f34ac8a3e17","swim","swim","5009","","<b>What were the weather conditions in the Arctic like the winter of the narrator&#39;s expedition?</b>","","","","1","arctic-comprehension","","","","","","","","","","","","","{""Q0"":""There were more storms than any other winter in recorded history.""}","","","",""
"html-button-response","74","2131834","0.0-7.0-2.0-4.0","e3c38f26f23304988a42573d00d6b42369695cd153eb724a006d5f34ac8a3e17","swim","swim","1102","","<p>Thank you for your responses.</p><p>You will now answer some questions about your impressions of the story.</p>","0","","","","","","","","","","","","","","","","","","","","",""
"html-button-response","75","2133566","0.0-7.0-2.0-5.0-0.0","e3c38f26f23304988a42573d00d6b42369695cd153eb724a006d5f34ac8a3e17","swim","swim","1730","","E6","5","","","","arctic-engagement","","","","","","","","","","","","","","6","enjoyment","",""
"html-button-response","76","2135240","0.0-7.0-2.0-5.0-0.1","e3c38f26f23304988a42573d00d6b42369695cd153eb724a006d5f34ac8a3e17","swim","swim","1422","","E1","5","","","","arctic-engagement","","","","","","","","","","","","","","6","enjoyment","",""
"html-button-response","77","2136946","0.0-7.0-2.0-5.0-0.2","e3c38f26f23304988a42573d00d6b42369695cd153eb724a006d5f34ac8a3e17","swim","swim","1455","","MS3","4","","","","arctic-engagement","","","","","","","","","","","","","","5","mental-sim","",""
"html-button-response","78","2138324","0.0-7.0-2.0-5.0-0.3","e3c38f26f23304988a42573d00d6b42369695cd153eb724a006d5f34ac8a3e17","swim","swim","1126","","A3","4","","","","arctic-engagement","","","","","","","","","","","","","","5","absorption","",""
"html-button-response","79","2139798","0.0-7.0-2.0-5.0-0.4","e3c38f26f23304988a42573d00d6b42369695cd153eb724a006d5f34ac8a3e17","swim","swim","1222","","E8","3","","","","arctic-engagement","","","","","","","","","","","","","","4","enjoyment","",""
"html-button-response","80","2142138","0.0-7.0-2.0-5.0-0.5","e3c38f26f23304988a42573d00d6b42369695cd153eb724a006d5f34ac8a3e17","swim","swim","2088","","A5","2","","","","arctic-engagement","","","","","","","","","","","","","","3","absorption","",""
"html-button-response","81","2144118","0.0-7.0-2.0-5.0-0.6","e3c38f26f23304988a42573d00d6b42369695cd153eb724a006d5f34ac8a3e17","swim","swim","1728","","MS1","4","","","","arctic-engagement","","","","","","","","","","","","","","5","mental-sim","",""
"html-button-response","82","2145912","0.0-7.0-2.0-5.0-0.7","e3c38f26f23304988a42573d00d6b42369695cd153eb724a006d5f34ac8a3e17","swim","swim","1542","","EE4","4","","","","arctic-engagement","","","","","","","","","","","","","","5","emo-engage","",""
"html-button-response","83","2149014","0.0-7.0-2.0-5.0-0.8","e3c38f26f23304988a42573d00d6b42369695cd153eb724a006d5f34ac8a3e17","swim","swim","2850","","EE1","5","","","","arctic-engagement","","","","","","","","","","","","","","6","emo-engage","",""
"html-button-response","84","2151890","0.0-7.0-2.0-5.0-0.9","e3c38f26f23304988a42573d00d6b42369695cd153eb724a006d5f34ac8a3e17","swim","swim","2624","","MS2","3","","","","arctic-engagement","","","","","","","","","","","","","","4","mental-sim","",""
"html-button-response","85","2153862","0.0-7.0-2.0-5.0-0.10","e3c38f26f23304988a42573d00d6b42369695cd153eb724a006d5f34ac8a3e17","swim","swim","1720","","A4","2","","","","arctic-engagement","","","","","","","","","","","","","","3","absorption","",""
"html-button-response","86","2155552","0.0-7.0-2.0-5.0-0.11","e3c38f26f23304988a42573d00d6b42369695cd153eb724a006d5f34ac8a3e17","swim","swim","1438","","EE2","5","","","","arctic-engagement","","","","","","","","","","","","","","6","emo-engage","",""
"html-button-response","87","2156986","0.0-7.0-2.0-5.0-0.12","e3c38f26f23304988a42573d00d6b42369695cd153eb724a006d5f34ac8a3e17","swim","swim","1183","","E7","4","","","","arctic-engagement","","","","","","","","","","","","","","5","enjoyment","",""
"html-button-response","88","2158846","0.0-7.0-2.0-5.0-0.13","e3c38f26f23304988a42573d00d6b42369695cd153eb724a006d5f34ac8a3e17","swim","swim","1609","","EE5","4","","","","arctic-engagement","","","","","","","","","","","","","","5","emo-engage","",""
"html-button-response","89","2161994","0.0-7.0-2.0-5.0-0.14","e3c38f26f23304988a42573d00d6b42369695cd153eb724a006d5f34ac8a3e17","swim","swim","2897","","A1","1","","","","arctic-engagement","","","","","","","","","","","","","","2","absorption","",""
"html-button-response","90","2163292","0.0-7.0-2.0-5.0-0.15","e3c38f26f23304988a42573d00d6b42369695cd153eb724a006d5f34ac8a3e17","swim","swim","1046","","E10","3","","","","arctic-engagement","","","","","","","","","","","","","","4","enjoyment","",""
"html-button-response","91","2165112","0.0-7.0-2.0-5.0-0.16","e3c38f26f23304988a42573d00d6b42369695cd153eb724a006d5f34ac8a3e17","swim","swim","1568","","A2","5","","","","arctic-engagement","","","","","","","","","","","","","","6","absorption","",""
"html-button-response","92","2166738","0.0-7.0-2.0-5.0-0.17","e3c38f26f23304988a42573d00d6b42369695cd153eb724a006d5f34ac8a3e17","swim","swim","1374","","EE3","4","","","","arctic-engagement","","","","","","","","","","","","","","5","emo-engage","",""
"html-button-response","93","2168339","0.0-8.0","e3c38f26f23304988a42573d00d6b42369695cd153eb724a006d5f34ac8a3e17","swim","swim","1350","","<p>Thank you for your responses.</p><p>You will now answer some demographic, hearing, and general health questions.</p>","0","","","","","","","","","","","","","","","","","","","","",""
"survey-multi-choice","94","2170896","0.0-9.0-0.0","e3c38f26f23304988a42573d00d6b42369695cd153eb724a006d5f34ac8a3e17","swim","swim","2554","","","","","","","survey","","","","","","","","","","","","","{""Q0"":""Chrome""}","","","browser",""
"survey-text","95","2175310","0.0-9.0-1.0","e3c38f26f23304988a42573d00d6b42369695cd153eb724a006d5f34ac8a3e17","swim","swim","4161.699999988079","","","","","","","survey","","","","","","","","","","","","","{""AGE"":""39""}","","","age","39"
"survey-multi-choice","96","2177080","0.0-9.0-2.0","e3c38f26f23304988a42573d00d6b42369695cd153eb724a006d5f34ac8a3e17","swim","swim","1517","","","","","","","survey","","","","","","","","","","","","","{""Q0"":""Male""}","","","gender","Male"
"survey-multi-choice","97","2178682","0.0-9.0-4.0","e3c38f26f23304988a42573d00d6b42369695cd153eb724a006d5f34ac8a3e17","swim","swim","1350","","","","","","","survey","","","","","","","","","","","","","{""Q0"":""Right""}","","","handedness","Right"
"survey-multi-choice","98","2181525","0.0-9.0-5.0","e3c38f26f23304988a42573d00d6b42369695cd153eb724a006d5f34ac8a3e17","swim","swim","2591","","","","","","","survey","","","","","","","","","","","","","{""Q0"":""Some university undergraduate schooling""}","","","education","Some university undergraduate schooling"
"survey-text","99","2185853","0.0-10.0-0.0","e3c38f26f23304988a42573d00d6b42369695cd153eb724a006d5f34ac8a3e17","swim","swim","4075.3999999910593","","","","","","","survey","","","","","","","","","","","","","{""L1"":""English""}","","","first-language","English"
"survey-text","100","2194598","0.0-10.0-1.0","e3c38f26f23304988a42573d00d6b42369695cd153eb724a006d5f34ac8a3e17","swim","swim","8486.800000011921","","","","","","","survey","","","","","","","","","","","","","{""L2name"":""Spanish"",""L2fluency"":""6"",""L3name"":"""",""L3fluency"":"""",""L4name"":"""",""L4fluency"":""""}","","","additional-languages","{""L2name"":""Spanish"",""L2fluency"":""6"",""L3name"":"""",""L3fluency"":"""",""L4name"":"""",""L4fluency"":""""}"
"survey-multi-choice","101","2196720","0.0-10.0-2.0","e3c38f26f23304988a42573d00d6b42369695cd153eb724a006d5f34ac8a3e17","swim","swim","1871","","","","","","","survey","","","","","","","","","","","","","{""Q0"":""No""}","","","hearing-aid","No"
"survey-multi-choice","102","2198964","0.0-10.0-3.0","e3c38f26f23304988a42573d00d6b42369695cd153eb724a006d5f34ac8a3e17","swim","swim","1992","","","","","","","survey","","","","","","","","","","","","","{""Q0"":""Never""}","","","ringing-ears","Never"
"survey-multi-choice","103","2200990","0.0-10.0-5.0","e3c38f26f23304988a42573d00d6b42369695cd153eb724a006d5f34ac8a3e17","swim","swim","1774","","","","","","","survey","","","","","","","","","","","","","{""Q0"":""No""}","","","neuro-disease","No"
"survey-multi-choice","104","2203554","0.0-10.0-7.0","e3c38f26f23304988a42573d00d6b42369695cd153eb724a006d5f34ac8a3e17","swim","swim","2311","","","","","","","survey","","","","","","","","","","","","","{""Q0"":""No""}","","","take-meds","No"
"survey-text","105","2205934","0.0-10.0-9.0","e3c38f26f23304988a42573d00d6b42369695cd153eb724a006d5f34ac8a3e17","swim","swim","2124.5999999940395","","","","","","","survey","","","","","","","","","","","","","{""HC"":""""}","","","health-concerns",""
"html-button-response","106","2209314","0.0-11.0-0.0","e3c38f26f23304988a42573d00d6b42369695cd153eb724a006d5f34ac8a3e17","swim","swim","3129","","<p>How would you describe your musical skills/experiences?</p>","2","","","","survey","","","","","","","","","","","","","","","","music-skill","3"
"survey-multi-choice","107","2211786","0.0-11.0-1.0","e3c38f26f23304988a42573d00d6b42369695cd153eb724a006d5f34ac8a3e17","swim","swim","2219","","","","","","","survey","","","","","","","","","","","","","{""Q0"":""Yes""}","","","music-instrument","Yes"
"survey-text","108","2215300","0.0-11.0-2.0-0.0","e3c38f26f23304988a42573d00d6b42369695cd153eb724a006d5f34ac8a3e17","swim","swim","3261.5999999940395","","","","","","","survey","","","","","","","","","","","","","{""MEXP"":""8""}","","","music-training-yrs","8"
"html-button-response","109","2217634","0.0-12.0-0.0","e3c38f26f23304988a42573d00d6b42369695cd153eb724a006d5f34ac8a3e17","swim","swim","2083","","<p>How would you describe your general hearing abilities?</p>","4","","","","survey","","","","","","","","","","","","","","","","ssq-01","5"
"html-button-response","110","2220876","0.0-12.0-1.0","e3c38f26f23304988a42573d00d6b42369695cd153eb724a006d5f34ac8a3e17","swim","swim","2991","","<p>When you talk with someone at a place that strongly reverberates/echoes (e.g., in a church or train station),</br>can you understand what the person says?</p>","6","","","","survey","","","","","","","","","","","","","","","","ssq-02","6"
"html-button-response","111","2223064","0.0-12.0-2.0","e3c38f26f23304988a42573d00d6b42369695cd153eb724a006d5f34ac8a3e17","swim","swim","1936","","<p>When you are with a group (~5 people) in a lively restaurant, can you follow the group's conversation?</p>","7","","","","survey","","","","","","","","","","","","","","","","ssq-03","7"
"html-button-response","112","2226630","0.0-12.0-3.0","e3c38f26f23304988a42573d00d6b42369695cd153eb724a006d5f34ac8a3e17","swim","swim","3313","","<p>Based on the sound of a bus or truck, can you tell whether it is moving towards or away from you?</p>","6","","","","survey","","","","","","","","","","","","","","","","ssq-04","6"
"html-button-response","113","2230222","0.0-12.0-4.0","e3c38f26f23304988a42573d00d6b42369695cd153eb724a006d5f34ac8a3e17","swim","swim","3341","","<p>When you are in an unknown environment, can you tell from which direction a brief sound originates?</p>","5","","","","survey","","","","","","","","","","","","","","","","ssq-05","5"
"html-button-response","114","2232866","0.0-12.0-5.0","e3c38f26f23304988a42573d00d6b42369695cd153eb724a006d5f34ac8a3e17","swim","swim","2393","","<p>Are you able to ignore distracting sounds when you concentrate on a specific aspect of your acoustic surrounding?</p>","6","","","","survey","","","","","","","","","","","","","","","","ssq-06","6"
"fullscreen","115","2234118","0.0-13.0","e3c38f26f23304988a42573d00d6b42369695cd153eb724a006d5f34ac8a3e17","swim","swim","","","","","","","","","true","","","","","","","","","","","","","","","",""
