"trial_type","trial_index","time_elapsed","internal_node_id","ParticipantID","firstStory","scramStory","rt","url","stimulus","button_pressed","key_press","correctRESP","correct","designation","success","letterStim","letterType","ONSET","TIMEOUT","CONDITION","Participant","ONSET_ACTUAL","RT","RESP","ACC","STORY","responses","response","type","surveyQuestion","QRESP"
"pavlovia","0","4","0.0-0.0","0684bb03aa210f5d69def74f9019fd5f9b3609417c7051be1acbb15bbef96fe9","arctic","swim","","","","","","","","","","","","","","","","","","","","","","","","",""
"external-html","1","4956","0.0-1.0","0684bb03aa210f5d69def74f9019fd5f9b3609417c7051be1acbb15bbef96fe9","arctic","swim","4820","consent/consent_updated.html","","","","","","","","","","","","","","","","","","","","","","",""
"html-button-response","2","10897","0.0-2.0-0.0","0684bb03aa210f5d69def74f9019fd5f9b3609417c7051be1acbb15bbef96fe9","arctic","swim","5939","","<p>Before we begin the main task, you will complete a short volume calibration and headphone check.</p><p>Please make sure you are in a quiet listening environment, that you are wearing headphones, and that your computer's volume is turned on.<p></p>","0","","","","","","","","","","","","","","","","","","","","",""
"html-button-response","3","15240","0.0-2.0-1.0","0684bb03aa210f5d69def74f9019fd5f9b3609417c7051be1acbb15bbef96fe9","arctic","swim","4089","","<p>The volume calibration will be first.</p><p>You will hear a thirty-second noise. Please adjust your computer's volume so that this noise is being presented at a comfortable level.<p></p>","0","","","","","","","","","","","","","","","","","","","","",""
"audio-button-response","4","21530","0.0-2.0-2.0","0684bb03aa210f5d69def74f9019fd5f9b3609417c7051be1acbb15bbef96fe9","arctic","swim","6036","","audio/volumetest.mp3","0","","","","","","","","","","","","","","","","","","","","",""
"html-keyboard-response","5","29232","0.0-3.0-0.0","0684bb03aa210f5d69def74f9019fd5f9b3609417c7051be1acbb15bbef96fe9","arctic","swim","7702","","<p>You will now complete a short headphone check.</p><p>On each trial, you will hear three tones. One of these tones will be quieter than the others. Your task is to identify whether the quiet tone occurred first, second, or third.</p><p>There are six trials in total.<p></p><p></p>(Press SPACEBAR to begin)","","32","","","","","","","","","","","","","","","","","","","",""
"html-keyboard-response","6","29994","0.0-3.0-1.0-0.0","0684bb03aa210f5d69def74f9019fd5f9b3609417c7051be1acbb15bbef96fe9","arctic","swim","null","","<div style=""font-size:60px;"">+</div>","","null","","","","","","","","","","","","","","","","","","","",""
"audio-button-response","7","36013","0.0-3.0-1.0-1.0","0684bb03aa210f5d69def74f9019fd5f9b3609417c7051be1acbb15bbef96fe9","arctic","swim","6018","","audio/t2_1.mp3","1","","1","1","headphone-test","","","","","","","","","","","","","","","","",""
"html-keyboard-response","8","36531","0.0-3.0-1.0-2.0","0684bb03aa210f5d69def74f9019fd5f9b3609417c7051be1acbb15bbef96fe9","arctic","swim","null","","<p>Correct</p>","","null","","","","","","","","","","","","","","","","","","","",""
"html-keyboard-response","9","37040","0.0-3.0-1.0-0.1","0684bb03aa210f5d69def74f9019fd5f9b3609417c7051be1acbb15bbef96fe9","arctic","swim","null","","<div style=""font-size:60px;"">+</div>","","null","","","","","","","","","","","","","","","","","","","",""
"audio-button-response","10","41510","0.0-3.0-1.0-1.1","0684bb03aa210f5d69def74f9019fd5f9b3609417c7051be1acbb15bbef96fe9","arctic","swim","4468","","audio/t1_2.mp3","0","","0","1","headphone-test","","","","","","","","","","","","","","","","",""
"html-keyboard-response","11","42011","0.0-3.0-1.0-2.1","0684bb03aa210f5d69def74f9019fd5f9b3609417c7051be1acbb15bbef96fe9","arctic","swim","null","","<p>Correct</p>","","null","","","","","","","","","","","","","","","","","","","",""
"html-keyboard-response","12","42513","0.0-3.0-1.0-0.2","0684bb03aa210f5d69def74f9019fd5f9b3609417c7051be1acbb15bbef96fe9","arctic","swim","null","","<div style=""font-size:60px;"">+</div>","","null","","","","","","","","","","","","","","","","","","","",""
"audio-button-response","13","45780","0.0-3.0-1.0-1.2","0684bb03aa210f5d69def74f9019fd5f9b3609417c7051be1acbb15bbef96fe9","arctic","swim","3267","","audio/t1_1.mp3","0","","0","1","headphone-test","","","","","","","","","","","","","","","","",""
"html-keyboard-response","14","46287","0.0-3.0-1.0-2.2","0684bb03aa210f5d69def74f9019fd5f9b3609417c7051be1acbb15bbef96fe9","arctic","swim","null","","<p>Correct</p>","","null","","","","","","","","","","","","","","","","","","","",""
"html-keyboard-response","15","46802","0.0-3.0-1.0-0.3","0684bb03aa210f5d69def74f9019fd5f9b3609417c7051be1acbb15bbef96fe9","arctic","swim","null","","<div style=""font-size:60px;"">+</div>","","null","","","","","","","","","","","","","","","","","","","",""
"audio-button-response","16","49267","0.0-3.0-1.0-1.3","0684bb03aa210f5d69def74f9019fd5f9b3609417c7051be1acbb15bbef96fe9","arctic","swim","2463","","audio/t2_2.mp3","1","","1","1","headphone-test","","","","","","","","","","","","","","","","",""
"html-keyboard-response","17","49768","0.0-3.0-1.0-2.3","0684bb03aa210f5d69def74f9019fd5f9b3609417c7051be1acbb15bbef96fe9","arctic","swim","null","","<p>Correct</p>","","null","","","","","","","","","","","","","","","","","","","",""
"html-keyboard-response","18","50280","0.0-3.0-1.0-0.4","0684bb03aa210f5d69def74f9019fd5f9b3609417c7051be1acbb15bbef96fe9","arctic","swim","null","","<div style=""font-size:60px;"">+</div>","","null","","","","","","","","","","","","","","","","","","","",""
"audio-button-response","19","53906","0.0-3.0-1.0-1.4","0684bb03aa210f5d69def74f9019fd5f9b3609417c7051be1acbb15bbef96fe9","arctic","swim","3624","","audio/t3_2.mp3","2","","2","1","headphone-test","","","","","","","","","","","","","","","","",""
"html-keyboard-response","20","54407","0.0-3.0-1.0-2.4","0684bb03aa210f5d69def74f9019fd5f9b3609417c7051be1acbb15bbef96fe9","arctic","swim","null","","<p>Correct</p>","","null","","","","","","","","","","","","","","","","","","","",""
"html-keyboard-response","21","54915","0.0-3.0-1.0-0.5","0684bb03aa210f5d69def74f9019fd5f9b3609417c7051be1acbb15bbef96fe9","arctic","swim","null","","<div style=""font-size:60px;"">+</div>","","null","","","","","","","","","","","","","","","","","","","",""
"audio-button-response","22","58449","0.0-3.0-1.0-1.5","0684bb03aa210f5d69def74f9019fd5f9b3609417c7051be1acbb15bbef96fe9","arctic","swim","3532","","audio/t3_1.mp3","2","","2","1","headphone-test","","","","","","","","","","","","","","","","",""
"html-keyboard-response","23","58951","0.0-3.0-1.0-2.5","0684bb03aa210f5d69def74f9019fd5f9b3609417c7051be1acbb15bbef96fe9","arctic","swim","null","","<p>Correct</p>","","null","","","","","","","","","","","","","","","","","","","",""
"fullscreen","24","61777","0.0-4.0","0684bb03aa210f5d69def74f9019fd5f9b3609417c7051be1acbb15bbef96fe9","arctic","swim","","","","","","","","","true","","","","","","","","","","","","","","","",""
"html-button-response","25","73959","0.0-5.0-0.0","0684bb03aa210f5d69def74f9019fd5f9b3609417c7051be1acbb15bbef96fe9","arctic","swim","12180","","<p>There are two blocks to this experiment.</p><p>In each block, you will hear a ~13.5 minute story. One of the stories will be scrambled. Please listen carefully to both stories and understand them as best you can.</p><p>After each story, you will be asked some questions to assess your comprehension.</p>","0","","","","","","","","","","","","","","","","","","","","",""
"html-button-response","26","92283","0.0-5.0-1.0","0684bb03aa210f5d69def74f9019fd5f9b3609417c7051be1acbb15bbef96fe9","arctic","swim","18322","","<p>During each story, there will be an additional task.</p><p>A letter will occasionally appear on the screen.</br>Your job is to - as quickly as you can - decide whether the letter is lowercase or uppercase and press one of two keys on the keyboard:</p><p>If the letter is <b>lowercase</b>, press key &lt;<b>x</b>&gt;.</p><p>If the letter is <b>uppercase</b>, press key &lt;<b>m</b>&gt;.</p>","0","","","","","","","","","","","","","","","","","","","","",""
"html-keyboard-response","27","102800","0.0-5.0-2.0","0684bb03aa210f5d69def74f9019fd5f9b3609417c7051be1acbb15bbef96fe9","arctic","swim","10516","","<p>Because we want your responses to be as quick as possible, please keep your index fingers over the keys while listening.</p><p>Each block lasts about 20 minutes.</p><p><b>Press &lt;x&gt; or &lt;m&gt; to start the first block!</b></p>","","77","","","","","","","","","","","","","","","","","","","",""
"html-keyboard-response","28","103301","0.0-6.0-0.0-0.0","0684bb03aa210f5d69def74f9019fd5f9b3609417c7051be1acbb15bbef96fe9","arctic","swim","null","","<div style=""font-size:60px;"" tabindex=""0"">+</div>","","null","","","","","","","","","","","","","","","","","","","",""
"dual-task","null","null","null","","arctic","swim","670.5","","Q","null","77","77","1","arctic-dual-task","","Q","uppercase","10000","0","1","0684bb03aa210f5d69def74f9019fd5f9b3609417c7051be1acbb15bbef96fe9","10008.79999999702","670.5","77","1","arctic","","","","",""
"dual-task","null","null","null","","arctic","swim","724.2000000029802","","E","null","77","77","1","arctic-dual-task","","E","uppercase","24000","0","1","0684bb03aa210f5d69def74f9019fd5f9b3609417c7051be1acbb15bbef96fe9","24011.20000000298","724.2000000029802","77","1","arctic","","","","",""
"dual-task","null","null","null","","arctic","swim","663.3999999910593","","q","null","88","88","1","arctic-dual-task","","q","lowercase","34000","0","1","0684bb03aa210f5d69def74f9019fd5f9b3609417c7051be1acbb15bbef96fe9","34000.79999999702","663.3999999910593","88","1","arctic","","","","",""
"dual-task","null","null","null","","arctic","swim","641.0999999940395","","q","null","88","88","1","arctic-dual-task","","q","lowercase","44000","0","1","0684bb03aa210f5d69def74f9019fd5f9b3609417c7051be1acbb15bbef96fe9","44012.09999999404","641.0999999940395","88","1","arctic","","","","",""
"dual-task","null","null","null","","arctic","swim","566","","n","null","88","88","1","arctic-dual-task","","n","lowercase","56000","0","1","0684bb03aa210f5d69def74f9019fd5f9b3609417c7051be1acbb15bbef96fe9","56002.5","566","88","1","arctic","","","","",""
"dual-task","null","null","null","","arctic","swim","604","","A","null","77","77","1","arctic-dual-task","","A","uppercase","64000","0","1","0684bb03aa210f5d69def74f9019fd5f9b3609417c7051be1acbb15bbef96fe9","64003.89999999106","604","77","1","arctic","","","","",""
"dual-task","null","null","null","","arctic","swim","545","","d","null","88","88","1","arctic-dual-task","","d","lowercase","76000","0","1","0684bb03aa210f5d69def74f9019fd5f9b3609417c7051be1acbb15bbef96fe9","76007.09999999404","545","88","1","arctic","","","","",""
"dual-task","null","null","null","","arctic","swim","670.4000000059605","","g","null","88","88","1","arctic-dual-task","","g","lowercase","86000","0","1","0684bb03aa210f5d69def74f9019fd5f9b3609417c7051be1acbb15bbef96fe9","86009","670.4000000059605","88","1","arctic","","","","",""
"dual-task","null","null","null","","arctic","swim","643.5999999940395","","E","null","77","77","1","arctic-dual-task","","E","uppercase","100000","0","1","0684bb03aa210f5d69def74f9019fd5f9b3609417c7051be1acbb15bbef96fe9","100004.39999999106","643.5999999940395","77","1","arctic","","","","",""
"dual-task","null","null","null","","arctic","swim","623.3999999910593","","f","null","88","88","1","arctic-dual-task","","f","lowercase","110000","0","1","0684bb03aa210f5d69def74f9019fd5f9b3609417c7051be1acbb15bbef96fe9","110000.59999999404","623.3999999910593","88","1","arctic","","","","",""
"dual-task","null","null","null","","arctic","swim","612.5","","b","null","88","88","1","arctic-dual-task","","b","lowercase","122000","0","1","0684bb03aa210f5d69def74f9019fd5f9b3609417c7051be1acbb15bbef96fe9","122003","612.5","88","1","arctic","","","","",""
"dual-task","null","null","null","","arctic","swim","558.8999999910593","","F","null","77","77","1","arctic-dual-task","","F","uppercase","128000","0","1","0684bb03aa210f5d69def74f9019fd5f9b3609417c7051be1acbb15bbef96fe9","128008.89999999106","558.8999999910593","77","1","arctic","","","","",""
"dual-task","null","null","null","","arctic","swim","746.9000000059605","","G","null","77","77","1","arctic-dual-task","","G","uppercase","140000","0","1","0684bb03aa210f5d69def74f9019fd5f9b3609417c7051be1acbb15bbef96fe9","140004.59999999404","746.9000000059605","77","1","arctic","","","","",""
"dual-task","null","null","null","","arctic","swim","617.2000000029802","","R","null","77","77","1","arctic-dual-task","","R","uppercase","152000","0","1","0684bb03aa210f5d69def74f9019fd5f9b3609417c7051be1acbb15bbef96fe9","152006.09999999404","617.2000000029802","77","1","arctic","","","","",""
"dual-task","null","null","null","","arctic","swim","588","","E","null","77","77","1","arctic-dual-task","","E","uppercase","160000","0","1","0684bb03aa210f5d69def74f9019fd5f9b3609417c7051be1acbb15bbef96fe9","160012.29999999702","588","77","1","arctic","","","","",""
"dual-task","null","null","null","","arctic","swim","723.0999999940395","","H","null","77","77","1","arctic-dual-task","","H","uppercase","172000","0","1","0684bb03aa210f5d69def74f9019fd5f9b3609417c7051be1acbb15bbef96fe9","172005.39999999106","723.0999999940395","77","1","arctic","","","","",""
"dual-task","null","null","null","","arctic","swim","633.0999999940395","","r","null","88","88","1","arctic-dual-task","","r","lowercase","180000","0","1","0684bb03aa210f5d69def74f9019fd5f9b3609417c7051be1acbb15bbef96fe9","180007.70000000298","633.0999999940395","88","1","arctic","","","","",""
"dual-task","null","null","null","","arctic","swim","669.0999999940395","","e","null","88","88","1","arctic-dual-task","","e","lowercase","188000","0","1","0684bb03aa210f5d69def74f9019fd5f9b3609417c7051be1acbb15bbef96fe9","188002.29999999702","669.0999999940395","88","1","arctic","","","","",""
"dual-task","null","null","null","","arctic","swim","653.2000000029802","","F","null","77","77","1","arctic-dual-task","","F","uppercase","196000","0","1","0684bb03aa210f5d69def74f9019fd5f9b3609417c7051be1acbb15bbef96fe9","196011.20000000298","653.2000000029802","77","1","arctic","","","","",""
"dual-task","null","null","null","","arctic","swim","589.7999999970198","","b","null","88","88","1","arctic-dual-task","","b","lowercase","208000","0","1","0684bb03aa210f5d69def74f9019fd5f9b3609417c7051be1acbb15bbef96fe9","208009.79999999702","589.7999999970198","88","1","arctic","","","","",""
"dual-task","null","null","null","","arctic","swim","554.6000000089407","","g","null","88","88","1","arctic-dual-task","","g","lowercase","218000","0","1","0684bb03aa210f5d69def74f9019fd5f9b3609417c7051be1acbb15bbef96fe9","218005.09999999404","554.6000000089407","88","1","arctic","","","","",""
"dual-task","null","null","null","","arctic","swim","538.1000000089407","","b","null","88","88","1","arctic-dual-task","","b","lowercase","228000","0","1","0684bb03aa210f5d69def74f9019fd5f9b3609417c7051be1acbb15bbef96fe9","228014.29999999702","538.1000000089407","88","1","arctic","","","","",""
"dual-task","null","null","null","","arctic","swim","615.8999999910593","","r","null","88","88","1","arctic-dual-task","","r","lowercase","242000","0","1","0684bb03aa210f5d69def74f9019fd5f9b3609417c7051be1acbb15bbef96fe9","242007.79999999702","615.8999999910593","88","1","arctic","","","","",""
"dual-task","null","null","null","","arctic","swim","805.5","","H","null","77","77","1","arctic-dual-task","","H","uppercase","254000","0","1","0684bb03aa210f5d69def74f9019fd5f9b3609417c7051be1acbb15bbef96fe9","254010.29999999702","805.5","77","1","arctic","","","","",""
"dual-task","null","null","null","","arctic","swim","NA","","B","null","NA","77","0","arctic-dual-task","","B","uppercase","260000","1","1","0684bb03aa210f5d69def74f9019fd5f9b3609417c7051be1acbb15bbef96fe9","260003.79999999702","NA","NA","0","arctic","","","","",""
"dual-task","null","null","null","","arctic","swim","659.7999999970198","","T","null","77","77","1","arctic-dual-task","","T","uppercase","270000","0","1","0684bb03aa210f5d69def74f9019fd5f9b3609417c7051be1acbb15bbef96fe9","270012.200000003","659.7999999970198","77","1","arctic","","","","",""
"dual-task","null","null","null","","arctic","swim","525.4000000059605","","Q","null","77","77","1","arctic-dual-task","","Q","uppercase","282000","0","1","0684bb03aa210f5d69def74f9019fd5f9b3609417c7051be1acbb15bbef96fe9","282002.799999997","525.4000000059605","77","1","arctic","","","","",""
"dual-task","null","null","null","","arctic","swim","543.5","","q","null","88","88","1","arctic-dual-task","","q","lowercase","290000","0","1","0684bb03aa210f5d69def74f9019fd5f9b3609417c7051be1acbb15bbef96fe9","290000.200000003","543.5","88","1","arctic","","","","",""
"dual-task","null","null","null","","arctic","swim","715","","G","null","77","77","1","arctic-dual-task","","G","uppercase","300000","0","1","0684bb03aa210f5d69def74f9019fd5f9b3609417c7051be1acbb15bbef96fe9","300005.200000003","715","77","1","arctic","","","","",""
"dual-task","null","null","null","","arctic","swim","505.5","","D","null","77","77","1","arctic-dual-task","","D","uppercase","312000","0","1","0684bb03aa210f5d69def74f9019fd5f9b3609417c7051be1acbb15bbef96fe9","312006.799999997","505.5","77","1","arctic","","","","",""
"dual-task","null","null","null","","arctic","swim","695.6999999880791","","N","null","77","77","1","arctic-dual-task","","N","uppercase","320000","0","1","0684bb03aa210f5d69def74f9019fd5f9b3609417c7051be1acbb15bbef96fe9","320015.700000003","695.6999999880791","77","1","arctic","","","","",""
"dual-task","null","null","null","","arctic","swim","524.7000000029802","","D","null","77","77","1","arctic-dual-task","","D","uppercase","332000","0","1","0684bb03aa210f5d69def74f9019fd5f9b3609417c7051be1acbb15bbef96fe9","332011","524.7000000029802","77","1","arctic","","","","",""
"dual-task","null","null","null","","arctic","swim","841.5","","n","null","88","88","1","arctic-dual-task","","n","lowercase","340000","0","1","0684bb03aa210f5d69def74f9019fd5f9b3609417c7051be1acbb15bbef96fe9","340006.39999999106","841.5","88","1","arctic","","","","",""
"dual-task","null","null","null","","arctic","swim","667.0999999940395","","f","null","88","88","1","arctic-dual-task","","f","lowercase","352000","0","1","0684bb03aa210f5d69def74f9019fd5f9b3609417c7051be1acbb15bbef96fe9","352013","667.0999999940395","88","1","arctic","","","","",""
"dual-task","null","null","null","","arctic","swim","540.5","","a","null","88","88","1","arctic-dual-task","","a","lowercase","360000","0","1","0684bb03aa210f5d69def74f9019fd5f9b3609417c7051be1acbb15bbef96fe9","360003.299999997","540.5","88","1","arctic","","","","",""
"dual-task","null","null","null","","arctic","swim","648.6000000089407","","t","null","88","88","1","arctic-dual-task","","t","lowercase","368000","0","1","0684bb03aa210f5d69def74f9019fd5f9b3609417c7051be1acbb15bbef96fe9","368006.59999999404","648.6000000089407","88","1","arctic","","","","",""
"dual-task","null","null","null","","arctic","swim","586.2000000029802","","R","null","77","77","1","arctic-dual-task","","R","uppercase","382000","0","1","0684bb03aa210f5d69def74f9019fd5f9b3609417c7051be1acbb15bbef96fe9","382005.59999999404","586.2000000029802","77","1","arctic","","","","",""
"dual-task","null","null","null","","arctic","swim","584.1999999880791","","n","null","88","88","1","arctic-dual-task","","n","lowercase","396000","0","1","0684bb03aa210f5d69def74f9019fd5f9b3609417c7051be1acbb15bbef96fe9","396007.39999999106","584.1999999880791","88","1","arctic","","","","",""
"dual-task","null","null","null","","arctic","swim","526.7000000029802","","q","null","88","88","1","arctic-dual-task","","q","lowercase","406000","0","1","0684bb03aa210f5d69def74f9019fd5f9b3609417c7051be1acbb15bbef96fe9","406005.5","526.7000000029802","88","1","arctic","","","","",""
"dual-task","null","null","null","","arctic","swim","527.0999999940395","","H","null","77","77","1","arctic-dual-task","","H","uppercase","414000","0","1","0684bb03aa210f5d69def74f9019fd5f9b3609417c7051be1acbb15bbef96fe9","414009.700000003","527.0999999940395","77","1","arctic","","","","",""
"dual-task","null","null","null","","arctic","swim","484","","R","null","77","77","1","arctic-dual-task","","R","uppercase","422000","0","1","0684bb03aa210f5d69def74f9019fd5f9b3609417c7051be1acbb15bbef96fe9","422004.799999997","484","77","1","arctic","","","","",""
"dual-task","null","null","null","","arctic","swim","596.2000000029802","","g","null","88","88","1","arctic-dual-task","","g","lowercase","432000","0","1","0684bb03aa210f5d69def74f9019fd5f9b3609417c7051be1acbb15bbef96fe9","432003.799999997","596.2000000029802","88","1","arctic","","","","",""
"dual-task","null","null","null","","arctic","swim","537.1999999880791","","a","null","88","88","1","arctic-dual-task","","a","lowercase","440000","0","1","0684bb03aa210f5d69def74f9019fd5f9b3609417c7051be1acbb15bbef96fe9","440014.799999997","537.1999999880791","88","1","arctic","","","","",""
"dual-task","null","null","null","","arctic","swim","484.29999999701977","","a","null","88","88","1","arctic-dual-task","","a","lowercase","454000","0","1","0684bb03aa210f5d69def74f9019fd5f9b3609417c7051be1acbb15bbef96fe9","454011.299999997","484.29999999701977","88","1","arctic","","","","",""
"dual-task","null","null","null","","arctic","swim","540.5","","T","null","77","77","1","arctic-dual-task","","T","uppercase","462000","0","1","0684bb03aa210f5d69def74f9019fd5f9b3609417c7051be1acbb15bbef96fe9","462003.5","540.5","77","1","arctic","","","","",""
"dual-task","null","null","null","","arctic","swim","575.2999999970198","","B","null","77","77","1","arctic-dual-task","","B","uppercase","472000","0","1","0684bb03aa210f5d69def74f9019fd5f9b3609417c7051be1acbb15bbef96fe9","472017","575.2999999970198","77","1","arctic","","","","",""
"dual-task","null","null","null","","arctic","swim","579.9000000059605","","d","null","88","88","1","arctic-dual-task","","d","lowercase","480000","0","1","0684bb03aa210f5d69def74f9019fd5f9b3609417c7051be1acbb15bbef96fe9","480004.09999999404","579.9000000059605","88","1","arctic","","","","",""
"dual-task","null","null","null","","arctic","swim","713.5999999940395","","G","null","77","77","1","arctic-dual-task","","G","uppercase","486000","0","1","0684bb03aa210f5d69def74f9019fd5f9b3609417c7051be1acbb15bbef96fe9","486014.5","713.5999999940395","77","1","arctic","","","","",""
"dual-task","null","null","null","","arctic","swim","618","","d","null","88","88","1","arctic-dual-task","","d","lowercase","496000","0","1","0684bb03aa210f5d69def74f9019fd5f9b3609417c7051be1acbb15bbef96fe9","496014.5","618","88","1","arctic","","","","",""
"dual-task","null","null","null","","arctic","swim","533.5","","b","null","88","88","1","arctic-dual-task","","b","lowercase","508000","0","1","0684bb03aa210f5d69def74f9019fd5f9b3609417c7051be1acbb15bbef96fe9","508001.59999999404","533.5","88","1","arctic","","","","",""
"dual-task","null","null","null","","arctic","swim","587.2999999970198","","h","null","88","88","1","arctic-dual-task","","h","lowercase","514000","0","1","0684bb03aa210f5d69def74f9019fd5f9b3609417c7051be1acbb15bbef96fe9","514004.200000003","587.2999999970198","88","1","arctic","","","","",""
"dual-task","null","null","null","","arctic","swim","556.1000000089407","","t","null","88","88","1","arctic-dual-task","","t","lowercase","520000","0","1","0684bb03aa210f5d69def74f9019fd5f9b3609417c7051be1acbb15bbef96fe9","520003.799999997","556.1000000089407","88","1","arctic","","","","",""
"dual-task","null","null","null","","arctic","swim","598","","h","null","88","88","1","arctic-dual-task","","h","lowercase","530000","0","1","0684bb03aa210f5d69def74f9019fd5f9b3609417c7051be1acbb15bbef96fe9","530002.3999999911","598","88","1","arctic","","","","",""
"dual-task","null","null","null","","arctic","swim","790.2999999970198","","f","null","88","88","1","arctic-dual-task","","f","lowercase","542000","0","1","0684bb03aa210f5d69def74f9019fd5f9b3609417c7051be1acbb15bbef96fe9","542001.8999999911","790.2999999970198","88","1","arctic","","","","",""
"dual-task","null","null","null","","arctic","swim","514.6999999880791","","r","null","88","88","1","arctic-dual-task","","r","lowercase","554000","0","1","0684bb03aa210f5d69def74f9019fd5f9b3609417c7051be1acbb15bbef96fe9","554013.5","514.6999999880791","88","1","arctic","","","","",""
"dual-task","null","null","null","","arctic","swim","592.0999999940395","","F","null","77","77","1","arctic-dual-task","","F","uppercase","562000","0","1","0684bb03aa210f5d69def74f9019fd5f9b3609417c7051be1acbb15bbef96fe9","562002.5","592.0999999940395","77","1","arctic","","","","",""
"dual-task","null","null","null","","arctic","swim","618.0999999940395","","N","null","77","77","1","arctic-dual-task","","N","uppercase","570000","0","1","0684bb03aa210f5d69def74f9019fd5f9b3609417c7051be1acbb15bbef96fe9","570005.8999999911","618.0999999940395","77","1","arctic","","","","",""
"dual-task","null","null","null","","arctic","swim","526","","N","null","77","77","1","arctic-dual-task","","N","uppercase","578000","0","1","0684bb03aa210f5d69def74f9019fd5f9b3609417c7051be1acbb15bbef96fe9","578001.3999999911","526","77","1","arctic","","","","",""
"dual-task","null","null","null","","arctic","swim","614.6999999880791","","r","null","88","88","1","arctic-dual-task","","r","lowercase","586000","0","1","0684bb03aa210f5d69def74f9019fd5f9b3609417c7051be1acbb15bbef96fe9","586008.8999999911","614.6999999880791","88","1","arctic","","","","",""
"dual-task","null","null","null","","arctic","swim","511.09999999403954","","n","null","88","88","1","arctic-dual-task","","n","lowercase","594000","0","1","0684bb03aa210f5d69def74f9019fd5f9b3609417c7051be1acbb15bbef96fe9","594009","511.09999999403954","88","1","arctic","","","","",""
"dual-task","null","null","null","","arctic","swim","682.2999999970198","","G","null","77","77","1","arctic-dual-task","","G","uppercase","608000","0","1","0684bb03aa210f5d69def74f9019fd5f9b3609417c7051be1acbb15bbef96fe9","608005.299999997","682.2999999970198","77","1","arctic","","","","",""
"dual-task","null","null","null","","arctic","swim","573.2000000029802","","e","null","88","88","1","arctic-dual-task","","e","lowercase","618000","0","1","0684bb03aa210f5d69def74f9019fd5f9b3609417c7051be1acbb15bbef96fe9","618011.599999994","573.2000000029802","88","1","arctic","","","","",""
"dual-task","null","null","null","","arctic","swim","507.5","","B","null","77","77","1","arctic-dual-task","","B","uppercase","626000","0","1","0684bb03aa210f5d69def74f9019fd5f9b3609417c7051be1acbb15bbef96fe9","626012.200000003","507.5","77","1","arctic","","","","",""
"dual-task","null","null","null","","arctic","swim","630.6000000089407","","D","null","77","77","1","arctic-dual-task","","D","uppercase","638000","0","1","0684bb03aa210f5d69def74f9019fd5f9b3609417c7051be1acbb15bbef96fe9","638009.099999994","630.6000000089407","77","1","arctic","","","","",""
"dual-task","null","null","null","","arctic","swim","577.7000000029802","","A","null","88","77","0","arctic-dual-task","","A","uppercase","646000","0","1","0684bb03aa210f5d69def74f9019fd5f9b3609417c7051be1acbb15bbef96fe9","646005.599999994","577.7000000029802","88","0","arctic","","","","",""
"dual-task","null","null","null","","arctic","swim","555.1000000089407","","f","null","88","88","1","arctic-dual-task","","f","lowercase","658000","0","1","0684bb03aa210f5d69def74f9019fd5f9b3609417c7051be1acbb15bbef96fe9","658012.599999994","555.1000000089407","88","1","arctic","","","","",""
"dual-task","null","null","null","","arctic","swim","587.7000000029802","","g","null","88","88","1","arctic-dual-task","","g","lowercase","670000","0","1","0684bb03aa210f5d69def74f9019fd5f9b3609417c7051be1acbb15bbef96fe9","670004.200000003","587.7000000029802","88","1","arctic","","","","",""
"dual-task","null","null","null","","arctic","swim","569.0999999940395","","e","null","88","88","1","arctic-dual-task","","e","lowercase","680000","0","1","0684bb03aa210f5d69def74f9019fd5f9b3609417c7051be1acbb15bbef96fe9","680014.3999999911","569.0999999940395","88","1","arctic","","","","",""
"dual-task","null","null","null","","arctic","swim","485.90000000596046","","a","null","88","88","1","arctic-dual-task","","a","lowercase","688000","0","1","0684bb03aa210f5d69def74f9019fd5f9b3609417c7051be1acbb15bbef96fe9","688002.599999994","485.90000000596046","88","1","arctic","","","","",""
"dual-task","null","null","null","","arctic","swim","513.6999999880791","","H","null","77","77","1","arctic-dual-task","","H","uppercase","702000","0","1","0684bb03aa210f5d69def74f9019fd5f9b3609417c7051be1acbb15bbef96fe9","702006.3999999911","513.6999999880791","77","1","arctic","","","","",""
"dual-task","null","null","null","","arctic","swim","634.2999999970198","","h","null","88","88","1","arctic-dual-task","","h","lowercase","716000","0","1","0684bb03aa210f5d69def74f9019fd5f9b3609417c7051be1acbb15bbef96fe9","716013.700000003","634.2999999970198","88","1","arctic","","","","",""
"dual-task","null","null","null","","arctic","swim","534.9000000059605","","T","null","77","77","1","arctic-dual-task","","T","uppercase","724000","0","1","0684bb03aa210f5d69def74f9019fd5f9b3609417c7051be1acbb15bbef96fe9","724009","534.9000000059605","77","1","arctic","","","","",""
"dual-task","null","null","null","","arctic","swim","542","","E","null","77","77","1","arctic-dual-task","","E","uppercase","734000","0","1","0684bb03aa210f5d69def74f9019fd5f9b3609417c7051be1acbb15bbef96fe9","734002.099999994","542","77","1","arctic","","","","",""
"dual-task","null","null","null","","arctic","swim","604.2000000029802","","A","null","77","77","1","arctic-dual-task","","A","uppercase","744000","0","1","0684bb03aa210f5d69def74f9019fd5f9b3609417c7051be1acbb15bbef96fe9","744011.599999994","604.2000000029802","77","1","arctic","","","","",""
"dual-task","null","null","null","","arctic","swim","628","","d","null","88","88","1","arctic-dual-task","","d","lowercase","754000","0","1","0684bb03aa210f5d69def74f9019fd5f9b3609417c7051be1acbb15bbef96fe9","754003.700000003","628","88","1","arctic","","","","",""
"dual-task","null","null","null","","arctic","swim","531.5","","T","null","77","77","1","arctic-dual-task","","T","uppercase","766000","0","1","0684bb03aa210f5d69def74f9019fd5f9b3609417c7051be1acbb15bbef96fe9","766004.3999999911","531.5","77","1","arctic","","","","",""
"dual-task","null","null","null","","arctic","swim","548.2999999970198","","F","null","77","77","1","arctic-dual-task","","F","uppercase","778000","0","1","0684bb03aa210f5d69def74f9019fd5f9b3609417c7051be1acbb15bbef96fe9","778003.3999999911","548.2999999970198","77","1","arctic","","","","",""
"dual-task","null","null","null","","arctic","swim","510.5","","B","null","77","77","1","arctic-dual-task","","B","uppercase","788000","0","1","0684bb03aa210f5d69def74f9019fd5f9b3609417c7051be1acbb15bbef96fe9","788008.8999999911","510.5","77","1","arctic","","","","",""
"audio-keyboard-response","29","901452","0.0-6.0-0.0-1.0","0684bb03aa210f5d69def74f9019fd5f9b3609417c7051be1acbb15bbef96fe9","arctic","swim","null","","audio/story_arctic.mp3","","null","","","","","","","","","","","","","","","","","","","",""
"html-button-response","30","904913","0.0-6.0-0.0-2.0","0684bb03aa210f5d69def74f9019fd5f9b3609417c7051be1acbb15bbef96fe9","arctic","swim","3459","","<p>This concludes the story. Thank you for listening.</p><p>You will now answer some questions about the content of the story.</p>","0","","","","","","","","","","","","","","","","","","","","",""
"survey-multi-choice","31","911450","0.0-6.0-0.0-3.0-0.0","0684bb03aa210f5d69def74f9019fd5f9b3609417c7051be1acbb15bbef96fe9","arctic","swim","6530","","<b>How did the narrator&#39;s encounter with the polar bears end?</b>","","","","1","arctic-comprehension","","","","","","","","","","","","","{""Q0"":""The bears walked back to their den.""}","","","",""
"survey-multi-choice","32","924464","0.0-6.0-0.0-3.0-0.1","0684bb03aa210f5d69def74f9019fd5f9b3609417c7051be1acbb15bbef96fe9","arctic","swim","12752","","<b>How did the narrator prepare for her expedition?</b>","","","","1","arctic-comprehension","","","","","","","","","","","","","{""Q0"":""Trained in Alaska learning how to dogsled""}","","","",""
"survey-multi-choice","33","933844","0.0-6.0-0.0-3.0-0.2","0684bb03aa210f5d69def74f9019fd5f9b3609417c7051be1acbb15bbef96fe9","arctic","swim","9107","","<b>How did the dogs respond when they saw the bears?</b>","","","","1","arctic-comprehension","","","","","","","","","","","","","{""Q0"":""Approached them""}","","","",""
"survey-multi-choice","34","937713","0.0-6.0-0.0-3.0-0.3","0684bb03aa210f5d69def74f9019fd5f9b3609417c7051be1acbb15bbef96fe9","arctic","swim","3613","","<b>What is the name of the narrator&#39;s neighbour?</b>","","","","1","arctic-comprehension","","","","","","","","","","","","","{""Q0"":""Dave""}","","","",""
"survey-multi-choice","35","941616","0.0-6.0-0.0-3.0-0.4","0684bb03aa210f5d69def74f9019fd5f9b3609417c7051be1acbb15bbef96fe9","arctic","swim","3649","","<b>What did the narrator do for leisure while in her tent?</b>","","","","1","arctic-comprehension","","","","","","","","","","","","","{""Q0"":""Read""}","","","",""
"survey-multi-choice","36","947342","0.0-6.0-0.0-3.0-0.5","0684bb03aa210f5d69def74f9019fd5f9b3609417c7051be1acbb15bbef96fe9","arctic","swim","5471","","<b>How many sponsorships did the narrator receive to support her expedition?</b>","","","","1","arctic-comprehension","","","","","","","","","","","","","{""Q0"":""None""}","","","",""
"survey-multi-choice","37","954666","0.0-6.0-0.0-3.0-0.6","0684bb03aa210f5d69def74f9019fd5f9b3609417c7051be1acbb15bbef96fe9","arctic","swim","7066","","<b>Which dog on the narrator&#39;s dog team never followed instructions?</b>","","","","1","arctic-comprehension","","","","","","","","","","","","","{""Q0"":""Robert""}","","","",""
"survey-multi-choice","38","970422","0.0-6.0-0.0-3.0-0.7","0684bb03aa210f5d69def74f9019fd5f9b3609417c7051be1acbb15bbef96fe9","arctic","swim","15499","","<b>How did the narrator&#39;s neighbour respond when she told him about her expedition?</b>","","","","1","arctic-comprehension","","","","","","","","","","","","","{""Q0"":""He said she was going to fail.""}","","","",""
"survey-multi-choice","39","978416","0.0-6.0-0.0-3.0-0.8","0684bb03aa210f5d69def74f9019fd5f9b3609417c7051be1acbb15bbef96fe9","arctic","swim","7737","","<b>What was the objective of the narrator&#39;s expedition?</b>","","","","1","arctic-comprehension","","","","","","","","","","","","","{""Q0"":""Dogsled across Arctic America""}","","","",""
"survey-multi-choice","40","986059","0.0-6.0-0.0-3.0-0.9","0684bb03aa210f5d69def74f9019fd5f9b3609417c7051be1acbb15bbef96fe9","arctic","swim","7387","","<b>What were the weather conditions in the Arctic like the winter of the narrator&#39;s expedition?</b>","","","","1","arctic-comprehension","","","","","","","","","","","","","{""Q0"":""There were more storms than any other winter in recorded history.""}","","","",""
"html-button-response","41","988608","0.0-6.0-0.0-4.0","0684bb03aa210f5d69def74f9019fd5f9b3609417c7051be1acbb15bbef96fe9","arctic","swim","2296","","<p>Thank you for your responses.</p><p>You will now answer some questions about your impressions of the story.</p>","0","","","","","","","","","","","","","","","","","","","","",""
"html-button-response","42","993359","0.0-6.0-0.0-5.0-0.0","0684bb03aa210f5d69def74f9019fd5f9b3609417c7051be1acbb15bbef96fe9","arctic","swim","4748","","EE1","6","","","","arctic-engagement","","","","","","","","","","","","","","7","emo-engage","",""
"html-button-response","43","996081","0.0-6.0-0.0-5.0-0.1","0684bb03aa210f5d69def74f9019fd5f9b3609417c7051be1acbb15bbef96fe9","arctic","swim","2470","","EE2","6","","","","arctic-engagement","","","","","","","","","","","","","","7","emo-engage","",""
"html-button-response","44","998069","0.0-6.0-0.0-5.0-0.2","0684bb03aa210f5d69def74f9019fd5f9b3609417c7051be1acbb15bbef96fe9","arctic","swim","1735","","E6","6","","","","arctic-engagement","","","","","","","","","","","","","","7","enjoyment","",""
"html-button-response","45","1002187","0.0-6.0-0.0-5.0-0.3","0684bb03aa210f5d69def74f9019fd5f9b3609417c7051be1acbb15bbef96fe9","arctic","swim","3865","","MS1","6","","","","arctic-engagement","","","","","","","","","","","","","","7","mental-sim","",""
"html-button-response","46","1005336","0.0-6.0-0.0-5.0-0.4","0684bb03aa210f5d69def74f9019fd5f9b3609417c7051be1acbb15bbef96fe9","arctic","swim","2896","","EE5","6","","","","arctic-engagement","","","","","","","","","","","","","","7","emo-engage","",""
"html-button-response","47","1007516","0.0-6.0-0.0-5.0-0.5","0684bb03aa210f5d69def74f9019fd5f9b3609417c7051be1acbb15bbef96fe9","arctic","swim","1926","","EE3","6","","","","arctic-engagement","","","","","","","","","","","","","","7","emo-engage","",""
"html-button-response","48","1009849","0.0-6.0-0.0-5.0-0.6","0684bb03aa210f5d69def74f9019fd5f9b3609417c7051be1acbb15bbef96fe9","arctic","swim","2079","","EE4","6","","","","arctic-engagement","","","","","","","","","","","","","","7","emo-engage","",""
"html-button-response","49","1011419","0.0-6.0-0.0-5.0-0.7","0684bb03aa210f5d69def74f9019fd5f9b3609417c7051be1acbb15bbef96fe9","arctic","swim","1317","","E1","6","","","","arctic-engagement","","","","","","","","","","","","","","7","enjoyment","",""
"html-button-response","50","1013014","0.0-6.0-0.0-5.0-0.8","0684bb03aa210f5d69def74f9019fd5f9b3609417c7051be1acbb15bbef96fe9","arctic","swim","1343","","E10","6","","","","arctic-engagement","","","","","","","","","","","","","","7","enjoyment","",""
"html-button-response","51","1017815","0.0-6.0-0.0-5.0-0.9","0684bb03aa210f5d69def74f9019fd5f9b3609417c7051be1acbb15bbef96fe9","arctic","swim","4548","","A5","6","","","","arctic-engagement","","","","","","","","","","","","","","7","absorption","",""
"html-button-response","52","1021733","0.0-6.0-0.0-5.0-0.10","0684bb03aa210f5d69def74f9019fd5f9b3609417c7051be1acbb15bbef96fe9","arctic","swim","3665","","MS2","6","","","","arctic-engagement","","","","","","","","","","","","","","7","mental-sim","",""
"html-button-response","53","1024925","0.0-6.0-0.0-5.0-0.11","0684bb03aa210f5d69def74f9019fd5f9b3609417c7051be1acbb15bbef96fe9","arctic","swim","2929","","MS3","6","","","","arctic-engagement","","","","","","","","","","","","","","7","mental-sim","",""
"html-button-response","54","1026560","0.0-6.0-0.0-5.0-0.12","0684bb03aa210f5d69def74f9019fd5f9b3609417c7051be1acbb15bbef96fe9","arctic","swim","1380","","E8","6","","","","arctic-engagement","","","","","","","","","","","","","","7","enjoyment","",""
"html-button-response","55","1030849","0.0-6.0-0.0-5.0-0.13","0684bb03aa210f5d69def74f9019fd5f9b3609417c7051be1acbb15bbef96fe9","arctic","swim","4035","","A1","6","","","","arctic-engagement","","","","","","","","","","","","","","7","absorption","",""
"html-button-response","56","1032290","0.0-6.0-0.0-5.0-0.14","0684bb03aa210f5d69def74f9019fd5f9b3609417c7051be1acbb15bbef96fe9","arctic","swim","1190","","A3","6","","","","arctic-engagement","","","","","","","","","","","","","","7","absorption","",""
"html-button-response","57","1034207","0.0-6.0-0.0-5.0-0.15","0684bb03aa210f5d69def74f9019fd5f9b3609417c7051be1acbb15bbef96fe9","arctic","swim","1664","","E7","6","","","","arctic-engagement","","","","","","","","","","","","","","7","enjoyment","",""
"html-button-response","58","1038242","0.0-6.0-0.0-5.0-0.16","0684bb03aa210f5d69def74f9019fd5f9b3609417c7051be1acbb15bbef96fe9","arctic","swim","3782","","A4","6","","","","arctic-engagement","","","","","","","","","","","","","","7","absorption","",""
"html-button-response","59","1040389","0.0-6.0-0.0-5.0-0.17","0684bb03aa210f5d69def74f9019fd5f9b3609417c7051be1acbb15bbef96fe9","arctic","swim","1896","","A2","6","","","","arctic-engagement","","","","","","","","","","","","","","7","absorption","",""
"html-keyboard-response","60","1052798","0.0-6.0-1.0","0684bb03aa210f5d69def74f9019fd5f9b3609417c7051be1acbb15bbef96fe9","arctic","swim","12156","","<p>Thank you for your responses. You will now listen to the second story.</p><p>Remember, as you listen to the story you will see letters appear on the screen.</br>As quickly as possible, press <b>&lt;x&gt;</b> if the letter is lowercase and <b>&lt;m&gt;</b> if the letter is uppercase.</p><p>Press <b>&lt;x&gt;</b> or <b>&lt;m&gt;</b> to begin listening!</p>","","88","","","","","","","","","","","","","","","","","","","",""
"html-keyboard-response","61","1053301","0.0-6.0-2.0-0.0","0684bb03aa210f5d69def74f9019fd5f9b3609417c7051be1acbb15bbef96fe9","arctic","swim","null","","<div style=""font-size:60px;"" tabindex=""0"">+</div>","","null","","","","","","","","","","","","","","","","","","","",""
"dual-task","null","null","null","","arctic","swim","601.1999999880791","","E","null","77","77","1","swim-dual-task","","E","uppercase","10000","0","1","0684bb03aa210f5d69def74f9019fd5f9b3609417c7051be1acbb15bbef96fe9","10007","601.1999999880791","77","1","swim","","","","",""
"dual-task","null","null","null","","arctic","swim","517.5","","G","null","77","77","1","swim-dual-task","","G","uppercase","18000","0","1","0684bb03aa210f5d69def74f9019fd5f9b3609417c7051be1acbb15bbef96fe9","18010.20000000298","517.5","77","1","swim","","","","",""
"dual-task","null","null","null","","arctic","swim","763.5","","a","null","88","88","1","swim-dual-task","","a","lowercase","28000","0","1","0684bb03aa210f5d69def74f9019fd5f9b3609417c7051be1acbb15bbef96fe9","28004.29999999702","763.5","88","1","swim","","","","",""
"dual-task","null","null","null","","arctic","swim","577.4000000059605","","E","null","77","77","1","swim-dual-task","","E","uppercase","40000","0","1","0684bb03aa210f5d69def74f9019fd5f9b3609417c7051be1acbb15bbef96fe9","40014.5","577.4000000059605","77","1","swim","","","","",""
"dual-task","null","null","null","","arctic","swim","546","","n","null","88","88","1","swim-dual-task","","n","lowercase","54000","0","1","0684bb03aa210f5d69def74f9019fd5f9b3609417c7051be1acbb15bbef96fe9","54012.79999999702","546","88","1","swim","","","","",""
"dual-task","null","null","null","","arctic","swim","553.7000000029802","","H","null","77","77","1","swim-dual-task","","H","uppercase","62000","0","1","0684bb03aa210f5d69def74f9019fd5f9b3609417c7051be1acbb15bbef96fe9","62013.70000000298","553.7000000029802","77","1","swim","","","","",""
"dual-task","null","null","null","","arctic","swim","579.4000000059605","","Q","null","77","77","1","swim-dual-task","","Q","uppercase","72000","0","1","0684bb03aa210f5d69def74f9019fd5f9b3609417c7051be1acbb15bbef96fe9","72004.70000000298","579.4000000059605","77","1","swim","","","","",""
"dual-task","null","null","null","","arctic","swim","621.5","","R","null","77","77","1","swim-dual-task","","R","uppercase","82000","0","1","0684bb03aa210f5d69def74f9019fd5f9b3609417c7051be1acbb15bbef96fe9","82001","621.5","77","1","swim","","","","",""
"dual-task","null","null","null","","arctic","swim","638.2999999970198","","r","null","88","88","1","swim-dual-task","","r","lowercase","94000","0","1","0684bb03aa210f5d69def74f9019fd5f9b3609417c7051be1acbb15bbef96fe9","94001.5","638.2999999970198","88","1","swim","","","","",""
"dual-task","null","null","null","","arctic","swim","666.2999999970198","","g","null","88","88","1","swim-dual-task","","g","lowercase","108000","0","1","0684bb03aa210f5d69def74f9019fd5f9b3609417c7051be1acbb15bbef96fe9","108013.5","666.2999999970198","88","1","swim","","","","",""
"dual-task","null","null","null","","arctic","swim","679.8000000119209","","G","null","77","77","1","swim-dual-task","","G","uppercase","116000","0","1","0684bb03aa210f5d69def74f9019fd5f9b3609417c7051be1acbb15bbef96fe9","116000.29999999702","679.8000000119209","77","1","swim","","","","",""
"dual-task","null","null","null","","arctic","swim","594.6000000089407","","B","null","77","77","1","swim-dual-task","","B","uppercase","124000","0","1","0684bb03aa210f5d69def74f9019fd5f9b3609417c7051be1acbb15bbef96fe9","124005.5","594.6000000089407","77","1","swim","","","","",""
"dual-task","null","null","null","","arctic","swim","604.9000000059605","","h","null","88","88","1","swim-dual-task","","h","lowercase","136000","0","1","0684bb03aa210f5d69def74f9019fd5f9b3609417c7051be1acbb15bbef96fe9","136002.89999999106","604.9000000059605","88","1","swim","","","","",""
"dual-task","null","null","null","","arctic","swim","608.8000000119209","","T","null","77","77","1","swim-dual-task","","T","uppercase","150000","0","1","0684bb03aa210f5d69def74f9019fd5f9b3609417c7051be1acbb15bbef96fe9","150014.89999999106","608.8000000119209","77","1","swim","","","","",""
"dual-task","null","null","null","","arctic","swim","624.5999999940395","","E","null","77","77","1","swim-dual-task","","E","uppercase","162000","0","1","0684bb03aa210f5d69def74f9019fd5f9b3609417c7051be1acbb15bbef96fe9","162012.20000000298","624.5999999940395","77","1","swim","","","","",""
"dual-task","null","null","null","","arctic","swim","650","","q","null","88","88","1","swim-dual-task","","q","lowercase","174000","0","1","0684bb03aa210f5d69def74f9019fd5f9b3609417c7051be1acbb15bbef96fe9","174007.89999999106","650","88","1","swim","","","","",""
"dual-task","null","null","null","","arctic","swim","588.5","","B","null","77","77","1","swim-dual-task","","B","uppercase","184000","0","1","0684bb03aa210f5d69def74f9019fd5f9b3609417c7051be1acbb15bbef96fe9","184009.79999999702","588.5","77","1","swim","","","","",""
"dual-task","null","null","null","","arctic","swim","585","","H","null","77","77","1","swim-dual-task","","H","uppercase","196000","0","1","0684bb03aa210f5d69def74f9019fd5f9b3609417c7051be1acbb15bbef96fe9","196014.79999999702","585","77","1","swim","","","","",""
"dual-task","null","null","null","","arctic","swim","601.4000000059605","","n","null","88","88","1","swim-dual-task","","n","lowercase","210000","0","1","0684bb03aa210f5d69def74f9019fd5f9b3609417c7051be1acbb15bbef96fe9","210006.89999999106","601.4000000059605","88","1","swim","","","","",""
"dual-task","null","null","null","","arctic","swim","668.2999999970198","","g","null","88","88","1","swim-dual-task","","g","lowercase","220000","0","1","0684bb03aa210f5d69def74f9019fd5f9b3609417c7051be1acbb15bbef96fe9","220003.79999999702","668.2999999970198","88","1","swim","","","","",""
"dual-task","null","null","null","","arctic","swim","535.2999999970198","","B","null","77","77","1","swim-dual-task","","B","uppercase","230000","0","1","0684bb03aa210f5d69def74f9019fd5f9b3609417c7051be1acbb15bbef96fe9","230007.79999999702","535.2999999970198","77","1","swim","","","","",""
"dual-task","null","null","null","","arctic","swim","546.1999999880791","","N","null","77","77","1","swim-dual-task","","N","uppercase","238000","0","1","0684bb03aa210f5d69def74f9019fd5f9b3609417c7051be1acbb15bbef96fe9","238005.70000000298","546.1999999880791","77","1","swim","","","","",""
"dual-task","null","null","null","","arctic","swim","629","","g","null","88","88","1","swim-dual-task","","g","lowercase","246000","0","1","0684bb03aa210f5d69def74f9019fd5f9b3609417c7051be1acbb15bbef96fe9","246011.09999999404","629","88","1","swim","","","","",""
"dual-task","null","null","null","","arctic","swim","661.7000000029802","","t","null","88","88","1","swim-dual-task","","t","lowercase","258000","0","1","0684bb03aa210f5d69def74f9019fd5f9b3609417c7051be1acbb15bbef96fe9","258002.5","661.7000000029802","88","1","swim","","","","",""
"dual-task","null","null","null","","arctic","swim","646.2999999970198","","F","null","77","77","1","swim-dual-task","","F","uppercase","268000","0","1","0684bb03aa210f5d69def74f9019fd5f9b3609417c7051be1acbb15bbef96fe9","268001.700000003","646.2999999970198","77","1","swim","","","","",""
"dual-task","null","null","null","","arctic","swim","598.7000000029802","","G","null","77","77","1","swim-dual-task","","G","uppercase","282000","0","1","0684bb03aa210f5d69def74f9019fd5f9b3609417c7051be1acbb15bbef96fe9","282001.59999999404","598.7000000029802","77","1","swim","","","","",""
"dual-task","null","null","null","","arctic","swim","600.5999999940395","","H","null","77","77","1","swim-dual-task","","H","uppercase","288000","0","1","0684bb03aa210f5d69def74f9019fd5f9b3609417c7051be1acbb15bbef96fe9","288007.09999999404","600.5999999940395","77","1","swim","","","","",""
"dual-task","null","null","null","","arctic","swim","591","","d","null","88","88","1","swim-dual-task","","d","lowercase","302000","0","1","0684bb03aa210f5d69def74f9019fd5f9b3609417c7051be1acbb15bbef96fe9","302007.700000003","591","88","1","swim","","","","",""
"dual-task","null","null","null","","arctic","swim","632.1999999880791","","q","null","88","88","1","swim-dual-task","","q","lowercase","312000","0","1","0684bb03aa210f5d69def74f9019fd5f9b3609417c7051be1acbb15bbef96fe9","312000.200000003","632.1999999880791","88","1","swim","","","","",""
"dual-task","null","null","null","","arctic","swim","542.2999999970198","","n","null","88","88","1","swim-dual-task","","n","lowercase","322000","0","1","0684bb03aa210f5d69def74f9019fd5f9b3609417c7051be1acbb15bbef96fe9","322001.39999999106","542.2999999970198","88","1","swim","","","","",""
"dual-task","null","null","null","","arctic","swim","573.9000000059605","","T","null","77","77","1","swim-dual-task","","T","uppercase","330000","0","1","0684bb03aa210f5d69def74f9019fd5f9b3609417c7051be1acbb15bbef96fe9","330001.59999999404","573.9000000059605","77","1","swim","","","","",""
"dual-task","null","null","null","","arctic","swim","705.6000000089407","","F","null","77","77","1","swim-dual-task","","F","uppercase","340000","0","1","0684bb03aa210f5d69def74f9019fd5f9b3609417c7051be1acbb15bbef96fe9","340014.5","705.6000000089407","77","1","swim","","","","",""
"dual-task","null","null","null","","arctic","swim","748.3999999910593","","R","null","77","77","1","swim-dual-task","","R","uppercase","350000","0","1","0684bb03aa210f5d69def74f9019fd5f9b3609417c7051be1acbb15bbef96fe9","350004","748.3999999910593","77","1","swim","","","","",""
"dual-task","null","null","null","","arctic","swim","508.70000000298023","","Q","null","77","77","1","swim-dual-task","","Q","uppercase","362000","0","1","0684bb03aa210f5d69def74f9019fd5f9b3609417c7051be1acbb15bbef96fe9","362003.5","508.70000000298023","77","1","swim","","","","",""
"dual-task","null","null","null","","arctic","swim","611","","a","null","88","88","1","swim-dual-task","","a","lowercase","372000","0","1","0684bb03aa210f5d69def74f9019fd5f9b3609417c7051be1acbb15bbef96fe9","372012.39999999106","611","88","1","swim","","","","",""
"dual-task","null","null","null","","arctic","swim","601.8999999910593","","F","null","77","77","1","swim-dual-task","","F","uppercase","380000","0","1","0684bb03aa210f5d69def74f9019fd5f9b3609417c7051be1acbb15bbef96fe9","380014","601.8999999910593","77","1","swim","","","","",""
"dual-task","null","null","null","","arctic","swim","562","","b","null","88","88","1","swim-dual-task","","b","lowercase","390000","0","1","0684bb03aa210f5d69def74f9019fd5f9b3609417c7051be1acbb15bbef96fe9","390009.700000003","562","88","1","swim","","","","",""
"dual-task","null","null","null","","arctic","swim","542.0999999940395","","t","null","88","88","1","swim-dual-task","","t","lowercase","396000","0","1","0684bb03aa210f5d69def74f9019fd5f9b3609417c7051be1acbb15bbef96fe9","396009.799999997","542.0999999940395","88","1","swim","","","","",""
"dual-task","null","null","null","","arctic","swim","670.4000000059605","","T","null","77","77","1","swim-dual-task","","T","uppercase","406000","0","1","0684bb03aa210f5d69def74f9019fd5f9b3609417c7051be1acbb15bbef96fe9","406001.09999999404","670.4000000059605","77","1","swim","","","","",""
"dual-task","null","null","null","","arctic","swim","575.5","","e","null","88","88","1","swim-dual-task","","e","lowercase","416000","0","1","0684bb03aa210f5d69def74f9019fd5f9b3609417c7051be1acbb15bbef96fe9","416000.299999997","575.5","88","1","swim","","","","",""
"dual-task","null","null","null","","arctic","swim","572.2999999970198","","G","null","77","77","1","swim-dual-task","","G","uppercase","422000","0","1","0684bb03aa210f5d69def74f9019fd5f9b3609417c7051be1acbb15bbef96fe9","422011.200000003","572.2999999970198","77","1","swim","","","","",""
"dual-task","null","null","null","","arctic","swim","598","","f","null","88","88","1","swim-dual-task","","f","lowercase","428000","0","1","0684bb03aa210f5d69def74f9019fd5f9b3609417c7051be1acbb15bbef96fe9","428009.799999997","598","88","1","swim","","","","",""
"dual-task","null","null","null","","arctic","swim","581","","Q","null","77","77","1","swim-dual-task","","Q","uppercase","438000","0","1","0684bb03aa210f5d69def74f9019fd5f9b3609417c7051be1acbb15bbef96fe9","438010.59999999404","581","77","1","swim","","","","",""
"dual-task","null","null","null","","arctic","swim","696","","D","null","77","77","1","swim-dual-task","","D","uppercase","444000","0","1","0684bb03aa210f5d69def74f9019fd5f9b3609417c7051be1acbb15bbef96fe9","444006.59999999404","696","77","1","swim","","","","",""
"dual-task","null","null","null","","arctic","swim","594.2999999970198","","h","null","88","88","1","swim-dual-task","","h","lowercase","452000","0","1","0684bb03aa210f5d69def74f9019fd5f9b3609417c7051be1acbb15bbef96fe9","452009.299999997","594.2999999970198","88","1","swim","","","","",""
"dual-task","null","null","null","","arctic","swim","729","","A","null","77","77","1","swim-dual-task","","A","uppercase","460000","0","1","0684bb03aa210f5d69def74f9019fd5f9b3609417c7051be1acbb15bbef96fe9","460007.39999999106","729","77","1","swim","","","","",""
"dual-task","null","null","null","","arctic","swim","586.9000000059605","","n","null","88","88","1","swim-dual-task","","n","lowercase","474000","0","1","0684bb03aa210f5d69def74f9019fd5f9b3609417c7051be1acbb15bbef96fe9","474005.59999999404","586.9000000059605","88","1","swim","","","","",""
"dual-task","null","null","null","","arctic","swim","1046.2000000029802","","d","null","88","88","1","swim-dual-task","","d","lowercase","486000","0","1","0684bb03aa210f5d69def74f9019fd5f9b3609417c7051be1acbb15bbef96fe9","486001.5","1046.2000000029802","88","1","swim","","","","",""
"dual-task","null","null","null","","arctic","swim","684.5","","q","null","88","88","1","swim-dual-task","","q","lowercase","494000","0","1","0684bb03aa210f5d69def74f9019fd5f9b3609417c7051be1acbb15bbef96fe9","494003","684.5","88","1","swim","","","","",""
"dual-task","null","null","null","","arctic","swim","549.2999999970198","","a","null","88","88","1","swim-dual-task","","a","lowercase","508000","0","1","0684bb03aa210f5d69def74f9019fd5f9b3609417c7051be1acbb15bbef96fe9","508002.59999999404","549.2999999970198","88","1","swim","","","","",""
"dual-task","null","null","null","","arctic","swim","581.2999999970198","","r","null","88","88","1","swim-dual-task","","r","lowercase","522000","0","1","0684bb03aa210f5d69def74f9019fd5f9b3609417c7051be1acbb15bbef96fe9","522011","581.2999999970198","88","1","swim","","","","",""
"dual-task","null","null","null","","arctic","swim","676.4000000059605","","N","null","77","77","1","swim-dual-task","","N","uppercase","532000","0","1","0684bb03aa210f5d69def74f9019fd5f9b3609417c7051be1acbb15bbef96fe9","532002.599999994","676.4000000059605","77","1","swim","","","","",""
"dual-task","null","null","null","","arctic","swim","588.9000000059605","","Q","null","77","77","1","swim-dual-task","","Q","uppercase","544000","0","1","0684bb03aa210f5d69def74f9019fd5f9b3609417c7051be1acbb15bbef96fe9","544015.799999997","588.9000000059605","77","1","swim","","","","",""
"dual-task","null","null","null","","arctic","swim","704.1999999880791","","r","null","88","88","1","swim-dual-task","","r","lowercase","558000","0","1","0684bb03aa210f5d69def74f9019fd5f9b3609417c7051be1acbb15bbef96fe9","558007.700000003","704.1999999880791","88","1","swim","","","","",""
"dual-task","null","null","null","","arctic","swim","652.7000000029802","","t","null","88","88","1","swim-dual-task","","t","lowercase","564000","0","1","0684bb03aa210f5d69def74f9019fd5f9b3609417c7051be1acbb15bbef96fe9","564011.099999994","652.7000000029802","88","1","swim","","","","",""
"dual-task","null","null","null","","arctic","swim","603.9000000059605","","F","null","77","77","1","swim-dual-task","","F","uppercase","574000","0","1","0684bb03aa210f5d69def74f9019fd5f9b3609417c7051be1acbb15bbef96fe9","574004.299999997","603.9000000059605","77","1","swim","","","","",""
"dual-task","null","null","null","","arctic","swim","623.4000000059605","","B","null","77","77","1","swim-dual-task","","B","uppercase","582000","0","1","0684bb03aa210f5d69def74f9019fd5f9b3609417c7051be1acbb15bbef96fe9","582008.099999994","623.4000000059605","77","1","swim","","","","",""
"dual-task","null","null","null","","arctic","swim","527.8999999910593","","D","null","77","77","1","swim-dual-task","","D","uppercase","592000","0","1","0684bb03aa210f5d69def74f9019fd5f9b3609417c7051be1acbb15bbef96fe9","592007.8999999911","527.8999999910593","77","1","swim","","","","",""
"dual-task","null","null","null","","arctic","swim","556.6000000089407","","d","null","88","88","1","swim-dual-task","","d","lowercase","606000","0","1","0684bb03aa210f5d69def74f9019fd5f9b3609417c7051be1acbb15bbef96fe9","606002.3999999911","556.6000000089407","88","1","swim","","","","",""
"dual-task","null","null","null","","arctic","swim","548.3000000119209","","D","null","77","77","1","swim-dual-task","","D","uppercase","612000","0","1","0684bb03aa210f5d69def74f9019fd5f9b3609417c7051be1acbb15bbef96fe9","612003.8999999911","548.3000000119209","77","1","swim","","","","",""
"dual-task","null","null","null","","arctic","swim","583.0999999940395","","A","null","77","77","1","swim-dual-task","","A","uppercase","620000","0","1","0684bb03aa210f5d69def74f9019fd5f9b3609417c7051be1acbb15bbef96fe9","620008.599999994","583.0999999940395","77","1","swim","","","","",""
"dual-task","null","null","null","","arctic","swim","620.7000000029802","","e","null","88","88","1","swim-dual-task","","e","lowercase","628000","0","1","0684bb03aa210f5d69def74f9019fd5f9b3609417c7051be1acbb15bbef96fe9","628011.099999994","620.7000000029802","88","1","swim","","","","",""
"dual-task","null","null","null","","arctic","swim","595.9000000059605","","t","null","88","88","1","swim-dual-task","","t","lowercase","636000","0","1","0684bb03aa210f5d69def74f9019fd5f9b3609417c7051be1acbb15bbef96fe9","636004.3999999911","595.9000000059605","88","1","swim","","","","",""
"dual-task","null","null","null","","arctic","swim","566","","b","null","88","88","1","swim-dual-task","","b","lowercase","646000","0","1","0684bb03aa210f5d69def74f9019fd5f9b3609417c7051be1acbb15bbef96fe9","646002.099999994","566","88","1","swim","","","","",""
"dual-task","null","null","null","","arctic","swim","668.9000000059605","","r","null","88","88","1","swim-dual-task","","r","lowercase","656000","0","1","0684bb03aa210f5d69def74f9019fd5f9b3609417c7051be1acbb15bbef96fe9","656003.3999999911","668.9000000059605","88","1","swim","","","","",""
"dual-task","null","null","null","","arctic","swim","575.2000000029802","","d","null","88","88","1","swim-dual-task","","d","lowercase","664000","0","1","0684bb03aa210f5d69def74f9019fd5f9b3609417c7051be1acbb15bbef96fe9","664007.299999997","575.2000000029802","88","1","swim","","","","",""
"dual-task","null","null","null","","arctic","swim","574.2000000029802","","e","null","88","88","1","swim-dual-task","","e","lowercase","676000","0","1","0684bb03aa210f5d69def74f9019fd5f9b3609417c7051be1acbb15bbef96fe9","676001.099999994","574.2000000029802","88","1","swim","","","","",""
"dual-task","null","null","null","","arctic","swim","651","","E","null","77","77","1","swim-dual-task","","E","uppercase","688000","0","1","0684bb03aa210f5d69def74f9019fd5f9b3609417c7051be1acbb15bbef96fe9","688012.5","651","77","1","swim","","","","",""
"dual-task","null","null","null","","arctic","swim","641.2000000029802","","R","null","77","77","1","swim-dual-task","","R","uppercase","694000","0","1","0684bb03aa210f5d69def74f9019fd5f9b3609417c7051be1acbb15bbef96fe9","694014.5","641.2000000029802","77","1","swim","","","","",""
"dual-task","null","null","null","","arctic","swim","586.8000000119209","","e","null","88","88","1","swim-dual-task","","e","lowercase","704000","0","1","0684bb03aa210f5d69def74f9019fd5f9b3609417c7051be1acbb15bbef96fe9","704004.099999994","586.8000000119209","88","1","swim","","","","",""
"dual-task","null","null","null","","arctic","swim","603.5","","f","null","88","88","1","swim-dual-task","","f","lowercase","712000","0","1","0684bb03aa210f5d69def74f9019fd5f9b3609417c7051be1acbb15bbef96fe9","712020.3999999911","603.5","88","1","swim","","","","",""
"dual-task","null","null","null","","arctic","swim","718.2000000029802","","f","null","88","88","1","swim-dual-task","","f","lowercase","722000","0","1","0684bb03aa210f5d69def74f9019fd5f9b3609417c7051be1acbb15bbef96fe9","722001.5","718.2000000029802","88","1","swim","","","","",""
"dual-task","null","null","null","","arctic","swim","545.2000000029802","","a","null","88","88","1","swim-dual-task","","a","lowercase","734000","0","1","0684bb03aa210f5d69def74f9019fd5f9b3609417c7051be1acbb15bbef96fe9","734014.5","545.2000000029802","88","1","swim","","","","",""
"dual-task","null","null","null","","arctic","swim","667.4000000059605","","N","null","77","77","1","swim-dual-task","","N","uppercase","746000","0","1","0684bb03aa210f5d69def74f9019fd5f9b3609417c7051be1acbb15bbef96fe9","746003.700000003","667.4000000059605","77","1","swim","","","","",""
"dual-task","null","null","null","","arctic","swim","687.3999999910593","","b","null","88","88","1","swim-dual-task","","b","lowercase","760000","0","1","0684bb03aa210f5d69def74f9019fd5f9b3609417c7051be1acbb15bbef96fe9","760007.599999994","687.3999999910593","88","1","swim","","","","",""
"dual-task","null","null","null","","arctic","swim","599.2000000029802","","H","null","77","77","1","swim-dual-task","","H","uppercase","766000","0","1","0684bb03aa210f5d69def74f9019fd5f9b3609417c7051be1acbb15bbef96fe9","766007.799999997","599.2000000029802","77","1","swim","","","","",""
"dual-task","null","null","null","","arctic","swim","717.5999999940395","","N","null","77","77","1","swim-dual-task","","N","uppercase","778000","0","1","0684bb03aa210f5d69def74f9019fd5f9b3609417c7051be1acbb15bbef96fe9","778001.5","717.5999999940395","77","1","swim","","","","",""
"dual-task","null","null","null","","arctic","swim","613.5","","b","null","88","88","1","swim-dual-task","","b","lowercase","788000","0","1","0684bb03aa210f5d69def74f9019fd5f9b3609417c7051be1acbb15bbef96fe9","788010.299999997","613.5","88","1","swim","","","","",""
"dual-task","null","null","null","","arctic","swim","558.3000000119209","","T","null","77","77","1","swim-dual-task","","T","uppercase","794000","0","1","0684bb03aa210f5d69def74f9019fd5f9b3609417c7051be1acbb15bbef96fe9","794001.799999997","558.3000000119209","77","1","swim","","","","",""
"audio-keyboard-response","62","1863387","0.0-6.0-2.0-1.0","0684bb03aa210f5d69def74f9019fd5f9b3609417c7051be1acbb15bbef96fe9","arctic","swim","null","","audio/story_swim_scrambled.mp3","","null","","","","","","","","","","","","","","","","","","","",""
"html-button-response","63","1867607","0.0-6.0-2.0-2.0","0684bb03aa210f5d69def74f9019fd5f9b3609417c7051be1acbb15bbef96fe9","arctic","swim","4218","","<p>This concludes the story. Thank you for listening.</p><p>You will now answer some questions about the content of the story.</p>","0","","","","","","","","","","","","","","","","","","","","",""
"survey-multi-choice","64","1876658","0.0-6.0-2.0-3.0-0.0","0684bb03aa210f5d69def74f9019fd5f9b3609417c7051be1acbb15bbef96fe9","arctic","swim","9046","","<b>What were the astronaut candidates trained to do at the naval air station?</b>","","","","1","swim-comprehension","","","","","","","","","","","","","{""Q0"":""Eject out of aircraft and survive in water long enough to be rescued""}","","","",""
"survey-multi-choice","65","1886949","0.0-6.0-2.0-3.0-0.1","0684bb03aa210f5d69def74f9019fd5f9b3609417c7051be1acbb15bbef96fe9","arctic","swim","10030","","<b>What gave the narrator his greatest feeling of accomplishment?</b>","","","","1","swim-comprehension","","","","","","","","","","","","","{""Q0"":""Passing the water survival course""}","","","",""
"survey-multi-choice","66","1890785","0.0-6.0-2.0-3.0-0.2","0684bb03aa210f5d69def74f9019fd5f9b3609417c7051be1acbb15bbef96fe9","arctic","swim","3572","","<b>What is the narrator afraid of, aside from the water?</b>","","","","1","swim-comprehension","","","","","","","","","","","","","{""Q0"":""Heights""}","","","",""
"survey-multi-choice","67","1901200","0.0-6.0-2.0-3.0-0.3","0684bb03aa210f5d69def74f9019fd5f9b3609417c7051be1acbb15bbef96fe9","arctic","swim","10157","","<b>How often does the narrator swim, now that he is a good swimmer?</b>","","","","0","swim-comprehension","","","","","","","","","","","","","{""Q0"":""Every weekend with his kids""}","","","",""
"survey-multi-choice","68","1906327","0.0-6.0-2.0-3.0-0.4","0684bb03aa210f5d69def74f9019fd5f9b3609417c7051be1acbb15bbef96fe9","arctic","swim","4870","","<b>How many times did the astronaut candidates have to complete the final exercise to pass?</b>","","","","1","swim-comprehension","","","","","","","","","","","","","{""Q0"":""Two""}","","","",""
"survey-multi-choice","69","1914980","0.0-6.0-2.0-3.0-0.5","0684bb03aa210f5d69def74f9019fd5f9b3609417c7051be1acbb15bbef96fe9","arctic","swim","8396","","<b>How did the narrator train for his swim test?</b>","","","","1","swim-comprehension","","","","","","","","","","","","","{""Q0"":""Took his kids to the pool every day""}","","","",""
"survey-multi-choice","70","1920333","0.0-6.0-2.0-3.0-0.6","0684bb03aa210f5d69def74f9019fd5f9b3609417c7051be1acbb15bbef96fe9","arctic","swim","5093","","<b>How many astronaut candidates reported for duty at the Johnson Space Center?</b>","","","","1","swim-comprehension","","","","","","","","","","","","","{""Q0"":""Forty-four""}","","","",""
"survey-multi-choice","71","1924026","0.0-6.0-2.0-3.0-0.7","0684bb03aa210f5d69def74f9019fd5f9b3609417c7051be1acbb15bbef96fe9","arctic","swim","3434","","<b>How many astronaut candidates passed the first swim test?</b>","","","","1","swim-comprehension","","","","","","","","","","","","","{""Q0"":""All of them""}","","","",""
"survey-multi-choice","72","1930130","0.0-6.0-2.0-3.0-0.8","0684bb03aa210f5d69def74f9019fd5f9b3609417c7051be1acbb15bbef96fe9","arctic","swim","5846","","<b>Where is the home of naval aviation?</b>","","","","1","swim-comprehension","","","","","","","","","","","","","{""Q0"":""Pensacola""}","","","",""
"survey-multi-choice","73","1944279","0.0-6.0-2.0-3.0-0.9","0684bb03aa210f5d69def74f9019fd5f9b3609417c7051be1acbb15bbef96fe9","arctic","swim","13894","","<b>What was the final step of the first swim test in the pool?</b>","","","","1","swim-comprehension","","","","","","","","","","","","","{""Q0"":""Tread water with hands above the water""}","","","",""
"html-button-response","74","1946082","0.0-6.0-2.0-4.0","0684bb03aa210f5d69def74f9019fd5f9b3609417c7051be1acbb15bbef96fe9","arctic","swim","1551","","<p>Thank you for your responses.</p><p>You will now answer some questions about your impressions of the story.</p>","0","","","","","","","","","","","","","","","","","","","","",""
"html-button-response","75","1948766","0.0-6.0-2.0-5.0-0.0","0684bb03aa210f5d69def74f9019fd5f9b3609417c7051be1acbb15bbef96fe9","arctic","swim","2682","","MS3","0","","","","swim-engagement","","","","","","","","","","","","","","1","mental-sim","",""
"html-button-response","76","1950048","0.0-6.0-2.0-5.0-0.1","0684bb03aa210f5d69def74f9019fd5f9b3609417c7051be1acbb15bbef96fe9","arctic","swim","1030","","EE3","0","","","","swim-engagement","","","","","","","","","","","","","","1","emo-engage","",""
"html-button-response","77","1953384","0.0-6.0-2.0-5.0-0.2","0684bb03aa210f5d69def74f9019fd5f9b3609417c7051be1acbb15bbef96fe9","arctic","swim","3083","","EE4","2","","","","swim-engagement","","","","","","","","","","","","","","3","emo-engage","",""
"html-button-response","78","1956667","0.0-6.0-2.0-5.0-0.3","0684bb03aa210f5d69def74f9019fd5f9b3609417c7051be1acbb15bbef96fe9","arctic","swim","3030","","EE2","0","","","","swim-engagement","","","","","","","","","","","","","","1","emo-engage","",""
"html-button-response","79","1958669","0.0-6.0-2.0-5.0-0.4","0684bb03aa210f5d69def74f9019fd5f9b3609417c7051be1acbb15bbef96fe9","arctic","swim","1751","","A4","0","","","","swim-engagement","","","","","","","","","","","","","","1","absorption","",""
"html-button-response","80","1962036","0.0-6.0-2.0-5.0-0.5","0684bb03aa210f5d69def74f9019fd5f9b3609417c7051be1acbb15bbef96fe9","arctic","swim","3114","","E10","0","","","","swim-engagement","","","","","","","","","","","","","","1","enjoyment","",""
"html-button-response","81","1963936","0.0-6.0-2.0-5.0-0.6","0684bb03aa210f5d69def74f9019fd5f9b3609417c7051be1acbb15bbef96fe9","arctic","swim","1648","","E1","0","","","","swim-engagement","","","","","","","","","","","","","","1","enjoyment","",""
"html-button-response","82","1966647","0.0-6.0-2.0-5.0-0.7","0684bb03aa210f5d69def74f9019fd5f9b3609417c7051be1acbb15bbef96fe9","arctic","swim","2458","","A5","0","","","","swim-engagement","","","","","","","","","","","","","","1","absorption","",""
"html-button-response","83","1968409","0.0-6.0-2.0-5.0-0.8","0684bb03aa210f5d69def74f9019fd5f9b3609417c7051be1acbb15bbef96fe9","arctic","swim","1509","","A3","0","","","","swim-engagement","","","","","","","","","","","","","","1","absorption","",""
"html-button-response","84","1972558","0.0-6.0-2.0-5.0-0.9","0684bb03aa210f5d69def74f9019fd5f9b3609417c7051be1acbb15bbef96fe9","arctic","swim","3896","","EE1","3","","","","swim-engagement","","","","","","","","","","","","","","4","emo-engage","",""
"html-button-response","85","1975546","0.0-6.0-2.0-5.0-0.10","0684bb03aa210f5d69def74f9019fd5f9b3609417c7051be1acbb15bbef96fe9","arctic","swim","2735","","EE5","2","","","","swim-engagement","","","","","","","","","","","","","","3","emo-engage","",""
"html-button-response","86","1979159","0.0-6.0-2.0-5.0-0.11","0684bb03aa210f5d69def74f9019fd5f9b3609417c7051be1acbb15bbef96fe9","arctic","swim","3361","","MS1","5","","","","swim-engagement","","","","","","","","","","","","","","6","mental-sim","",""
"html-button-response","87","1982677","0.0-6.0-2.0-5.0-0.12","0684bb03aa210f5d69def74f9019fd5f9b3609417c7051be1acbb15bbef96fe9","arctic","swim","3265","","A1","0","","","","swim-engagement","","","","","","","","","","","","","","1","absorption","",""
"html-button-response","88","1985271","0.0-6.0-2.0-5.0-0.13","0684bb03aa210f5d69def74f9019fd5f9b3609417c7051be1acbb15bbef96fe9","arctic","swim","2342","","E6","1","","","","swim-engagement","","","","","","","","","","","","","","2","enjoyment","",""
"html-button-response","89","1988422","0.0-6.0-2.0-5.0-0.14","0684bb03aa210f5d69def74f9019fd5f9b3609417c7051be1acbb15bbef96fe9","arctic","swim","2885","","E7","2","","","","swim-engagement","","","","","","","","","","","","","","3","enjoyment","",""
"html-button-response","90","1992594","0.0-6.0-2.0-5.0-0.15","0684bb03aa210f5d69def74f9019fd5f9b3609417c7051be1acbb15bbef96fe9","arctic","swim","3919","","MS2","3","","","","swim-engagement","","","","","","","","","","","","","","4","mental-sim","",""
"html-button-response","91","1997195","0.0-6.0-2.0-5.0-0.16","0684bb03aa210f5d69def74f9019fd5f9b3609417c7051be1acbb15bbef96fe9","arctic","swim","4348","","A2","5","","","","swim-engagement","","","","","","","","","","","","","","6","absorption","",""
"html-button-response","92","1999567","0.0-6.0-2.0-5.0-0.17","0684bb03aa210f5d69def74f9019fd5f9b3609417c7051be1acbb15bbef96fe9","arctic","swim","2119","","E8","0","","","","swim-engagement","","","","","","","","","","","","","","1","enjoyment","",""
"html-button-response","93","2001289","0.0-8.0","0684bb03aa210f5d69def74f9019fd5f9b3609417c7051be1acbb15bbef96fe9","arctic","swim","1470","","<p>Thank you for your responses.</p><p>You will now answer some demographic, hearing, and general health questions.</p>","0","","","","","","","","","","","","","","","","","","","","",""
"survey-multi-choice","94","2006672","0.0-9.0-0.0","0684bb03aa210f5d69def74f9019fd5f9b3609417c7051be1acbb15bbef96fe9","arctic","swim","5375","","","","","","","survey","","","","","","","","","","","","","{""Q0"":""Chrome""}","","","browser",""
"survey-text","95","2009333","0.0-9.0-1.0","0684bb03aa210f5d69def74f9019fd5f9b3609417c7051be1acbb15bbef96fe9","arctic","swim","2405.7999999970198","","","","","","","survey","","","","","","","","","","","","","{""AGE"":""35""}","","","age","35"
"survey-multi-choice","96","2011351","0.0-9.0-2.0","0684bb03aa210f5d69def74f9019fd5f9b3609417c7051be1acbb15bbef96fe9","arctic","swim","1762","","","","","","","survey","","","","","","","","","","","","","{""Q0"":""Male""}","","","gender","Male"
"survey-multi-choice","97","2014211","0.0-9.0-4.0","0684bb03aa210f5d69def74f9019fd5f9b3609417c7051be1acbb15bbef96fe9","arctic","swim","2605","","","","","","","survey","","","","","","","","","","","","","{""Q0"":""Right""}","","","handedness","Right"
"survey-multi-choice","98","2017831","0.0-9.0-5.0","0684bb03aa210f5d69def74f9019fd5f9b3609417c7051be1acbb15bbef96fe9","arctic","swim","3356","","","","","","","survey","","","","","","","","","","","","","{""Q0"":""Some university undergraduate schooling""}","","","education","Some university undergraduate schooling"
"survey-text","99","2022514","0.0-10.0-0.0","0684bb03aa210f5d69def74f9019fd5f9b3609417c7051be1acbb15bbef96fe9","arctic","swim","4428.79999999702","","","","","","","survey","","","","","","","","","","","","","{""L1"":""English""}","","","first-language","English"
"survey-text","100","2029139","0.0-10.0-1.0","0684bb03aa210f5d69def74f9019fd5f9b3609417c7051be1acbb15bbef96fe9","arctic","swim","6367.5","","","","","","","survey","","","","","","","","","","","","","{""L2name"":"""",""L2fluency"":"""",""L3name"":"""",""L3fluency"":"""",""L4name"":"""",""L4fluency"":""""}","","","additional-languages","{""L2name"":"""",""L2fluency"":"""",""L3name"":"""",""L3fluency"":"""",""L4name"":"""",""L4fluency"":""""}"
"survey-multi-choice","101","2031661","0.0-10.0-2.0","0684bb03aa210f5d69def74f9019fd5f9b3609417c7051be1acbb15bbef96fe9","arctic","swim","2267","","","","","","","survey","","","","","","","","","","","","","{""Q0"":""No""}","","","hearing-aid","No"
"survey-multi-choice","102","2034939","0.0-10.0-3.0","0684bb03aa210f5d69def74f9019fd5f9b3609417c7051be1acbb15bbef96fe9","arctic","swim","3025","","","","","","","survey","","","","","","","","","","","","","{""Q0"":""Never""}","","","ringing-ears","Never"
"survey-multi-choice","103","2037590","0.0-10.0-5.0","0684bb03aa210f5d69def74f9019fd5f9b3609417c7051be1acbb15bbef96fe9","arctic","swim","2397","","","","","","","survey","","","","","","","","","","","","","{""Q0"":""No""}","","","neuro-disease","No"
"survey-multi-choice","104","2040010","0.0-10.0-7.0","0684bb03aa210f5d69def74f9019fd5f9b3609417c7051be1acbb15bbef96fe9","arctic","swim","2167","","","","","","","survey","","","","","","","","","","","","","{""Q0"":""No""}","","","take-meds","No"
"survey-text","105","2043159","0.0-10.0-9.0","0684bb03aa210f5d69def74f9019fd5f9b3609417c7051be1acbb15bbef96fe9","arctic","swim","2893.2000000029802","","","","","","","survey","","","","","","","","","","","","","{""HC"":""""}","","","health-concerns",""
"html-button-response","106","2047476","0.0-11.0-0.0","0684bb03aa210f5d69def74f9019fd5f9b3609417c7051be1acbb15bbef96fe9","arctic","swim","4064","","<p>How would you describe your musical skills/experiences?</p>","0","","","","survey","","","","","","","","","","","","","","","","music-skill","1"
"survey-multi-choice","107","2050007","0.0-11.0-1.0","0684bb03aa210f5d69def74f9019fd5f9b3609417c7051be1acbb15bbef96fe9","arctic","swim","2277","","","","","","","survey","","","","","","","","","","","","","{""Q0"":""No""}","","","music-instrument","No"
"html-button-response","108","2052892","0.0-12.0-0.0","0684bb03aa210f5d69def74f9019fd5f9b3609417c7051be1acbb15bbef96fe9","arctic","swim","2632","","<p>How would you describe your general hearing abilities?</p>","5","","","","survey","","","","","","","","","","","","","","","","ssq-01","6"
"html-button-response","109","2059413","0.0-12.0-1.0","0684bb03aa210f5d69def74f9019fd5f9b3609417c7051be1acbb15bbef96fe9","arctic","swim","6268","","<p>When you talk with someone at a place that strongly reverberates/echoes (e.g., in a church or train station),</br>can you understand what the person says?</p>","10","","","","survey","","","","","","","","","","","","","","","","ssq-02","10"
"html-button-response","110","2063273","0.0-12.0-2.0","0684bb03aa210f5d69def74f9019fd5f9b3609417c7051be1acbb15bbef96fe9","arctic","swim","3606","","<p>When you are with a group (~5 people) in a lively restaurant, can you follow the group's conversation?</p>","10","","","","survey","","","","","","","","","","","","","","","","ssq-03","10"
"html-button-response","111","2067368","0.0-12.0-3.0","0684bb03aa210f5d69def74f9019fd5f9b3609417c7051be1acbb15bbef96fe9","arctic","swim","3841","","<p>Based on the sound of a bus or truck, can you tell whether it is moving towards or away from you?</p>","10","","","","survey","","","","","","","","","","","","","","","","ssq-04","10"
"html-button-response","112","2071644","0.0-12.0-4.0","0684bb03aa210f5d69def74f9019fd5f9b3609417c7051be1acbb15bbef96fe9","arctic","swim","4023","","<p>When you are in an unknown environment, can you tell from which direction a brief sound originates?</p>","10","","","","survey","","","","","","","","","","","","","","","","ssq-05","10"
"html-button-response","113","2075755","0.0-12.0-5.0","0684bb03aa210f5d69def74f9019fd5f9b3609417c7051be1acbb15bbef96fe9","arctic","swim","3858","","<p>Are you able to ignore distracting sounds when you concentrate on a specific aspect of your acoustic surrounding?</p>","10","","","","survey","","","","","","","","","","","","","","","","ssq-06","10"
"fullscreen","114","2077007","0.0-13.0","0684bb03aa210f5d69def74f9019fd5f9b3609417c7051be1acbb15bbef96fe9","arctic","swim","","","","","","","","","true","","","","","","","","","","","","","","","",""
