"trial_type","trial_index","time_elapsed","internal_node_id","ParticipantID","firstStory","scramStory","rt","url","stimulus","button_pressed","key_press","correctRESP","correct","designation","success","letterStim","letterType","ONSET","TIMEOUT","CONDITION","Participant","ONSET_ACTUAL","RT","RESP","ACC","STORY","responses","response","type","surveyQuestion","QRESP"
"pavlovia","0","4","0.0-0.0","9f8dedc06b2d3a481db817ae7b44203784eeb933ffbb245a3f8df521661e9c8e","swim","swim","","","","","","","","","","","","","","","","","","","","","","","","",""
"external-html","1","8005","0.0-1.0","9f8dedc06b2d3a481db817ae7b44203784eeb933ffbb245a3f8df521661e9c8e","swim","swim","7887","consent/consent_updated.html","","","","","","","","","","","","","","","","","","","","","","",""
"html-button-response","2","70447","0.0-2.0-0.0","9f8dedc06b2d3a481db817ae7b44203784eeb933ffbb245a3f8df521661e9c8e","swim","swim","62440","","<p>Before we begin the main task, you will complete a short volume calibration and headphone check.</p><p>Please make sure you are in a quiet listening environment, that you are wearing headphones, and that your computer's volume is turned on.<p></p>","0","","","","","","","","","","","","","","","","","","","","",""
"html-button-response","3","76487","0.0-2.0-1.0","9f8dedc06b2d3a481db817ae7b44203784eeb933ffbb245a3f8df521661e9c8e","swim","swim","5789","","<p>The volume calibration will be first.</p><p>You will hear a thirty-second noise. Please adjust your computer's volume so that this noise is being presented at a comfortable level.<p></p>","0","","","","","","","","","","","","","","","","","","","","",""
"audio-button-response","4","82982","0.0-2.0-2.0","9f8dedc06b2d3a481db817ae7b44203784eeb933ffbb245a3f8df521661e9c8e","swim","swim","6244","","audio/volumetest.mp3","0","","","","","","","","","","","","","","","","","","","","",""
"html-keyboard-response","5","95242","0.0-3.0-0.0","9f8dedc06b2d3a481db817ae7b44203784eeb933ffbb245a3f8df521661e9c8e","swim","swim","12260","","<p>You will now complete a short headphone check.</p><p>On each trial, you will hear three tones. One of these tones will be quieter than the others. Your task is to identify whether the quiet tone occurred first, second, or third.</p><p>There are six trials in total.<p></p><p></p>(Press SPACEBAR to begin)","","32","","","","","","","","","","","","","","","","","","","",""
"html-keyboard-response","6","95993","0.0-3.0-1.0-0.0","9f8dedc06b2d3a481db817ae7b44203784eeb933ffbb245a3f8df521661e9c8e","swim","swim","null","","<div style=""font-size:60px;"">+</div>","","null","","","","","","","","","","","","","","","","","","","",""
"audio-button-response","7","100908","0.0-3.0-1.0-1.0","9f8dedc06b2d3a481db817ae7b44203784eeb933ffbb245a3f8df521661e9c8e","swim","swim","4914","","audio/t3_1.mp3","0","","2","0","headphone-test","","","","","","","","","","","","","","","","",""
"html-keyboard-response","8","101409","0.0-3.0-1.0-2.0","9f8dedc06b2d3a481db817ae7b44203784eeb933ffbb245a3f8df521661e9c8e","swim","swim","null","","<p>Incorrect</p>","","null","","","","","","","","","","","","","","","","","","","",""
"html-keyboard-response","9","101909","0.0-3.0-1.0-0.1","9f8dedc06b2d3a481db817ae7b44203784eeb933ffbb245a3f8df521661e9c8e","swim","swim","null","","<div style=""font-size:60px;"">+</div>","","null","","","","","","","","","","","","","","","","","","","",""
"audio-button-response","10","106681","0.0-3.0-1.0-1.1","9f8dedc06b2d3a481db817ae7b44203784eeb933ffbb245a3f8df521661e9c8e","swim","swim","4771","","audio/t2_2.mp3","0","","1","0","headphone-test","","","","","","","","","","","","","","","","",""
"html-keyboard-response","11","107183","0.0-3.0-1.0-2.1","9f8dedc06b2d3a481db817ae7b44203784eeb933ffbb245a3f8df521661e9c8e","swim","swim","null","","<p>Incorrect</p>","","null","","","","","","","","","","","","","","","","","","","",""
"html-keyboard-response","12","107683","0.0-3.0-1.0-0.2","9f8dedc06b2d3a481db817ae7b44203784eeb933ffbb245a3f8df521661e9c8e","swim","swim","null","","<div style=""font-size:60px;"">+</div>","","null","","","","","","","","","","","","","","","","","","","",""
"audio-button-response","13","112371","0.0-3.0-1.0-1.2","9f8dedc06b2d3a481db817ae7b44203784eeb933ffbb245a3f8df521661e9c8e","swim","swim","4688","","audio/t1_1.mp3","0","","0","1","headphone-test","","","","","","","","","","","","","","","","",""
"html-keyboard-response","14","112872","0.0-3.0-1.0-2.2","9f8dedc06b2d3a481db817ae7b44203784eeb933ffbb245a3f8df521661e9c8e","swim","swim","null","","<p>Correct</p>","","null","","","","","","","","","","","","","","","","","","","",""
"html-keyboard-response","15","113372","0.0-3.0-1.0-0.3","9f8dedc06b2d3a481db817ae7b44203784eeb933ffbb245a3f8df521661e9c8e","swim","swim","null","","<div style=""font-size:60px;"">+</div>","","null","","","","","","","","","","","","","","","","","","","",""
"audio-button-response","16","117839","0.0-3.0-1.0-1.3","9f8dedc06b2d3a481db817ae7b44203784eeb933ffbb245a3f8df521661e9c8e","swim","swim","4467","","audio/t2_1.mp3","1","","1","1","headphone-test","","","","","","","","","","","","","","","","",""
"html-keyboard-response","17","118340","0.0-3.0-1.0-2.3","9f8dedc06b2d3a481db817ae7b44203784eeb933ffbb245a3f8df521661e9c8e","swim","swim","null","","<p>Correct</p>","","null","","","","","","","","","","","","","","","","","","","",""
"html-keyboard-response","18","118840","0.0-3.0-1.0-0.4","9f8dedc06b2d3a481db817ae7b44203784eeb933ffbb245a3f8df521661e9c8e","swim","swim","null","","<div style=""font-size:60px;"">+</div>","","null","","","","","","","","","","","","","","","","","","","",""
"audio-button-response","19","123703","0.0-3.0-1.0-1.4","9f8dedc06b2d3a481db817ae7b44203784eeb933ffbb245a3f8df521661e9c8e","swim","swim","4861","","audio/t1_2.mp3","0","","0","1","headphone-test","","","","","","","","","","","","","","","","",""
"html-keyboard-response","20","124204","0.0-3.0-1.0-2.4","9f8dedc06b2d3a481db817ae7b44203784eeb933ffbb245a3f8df521661e9c8e","swim","swim","null","","<p>Correct</p>","","null","","","","","","","","","","","","","","","","","","","",""
"html-keyboard-response","21","124705","0.0-3.0-1.0-0.5","9f8dedc06b2d3a481db817ae7b44203784eeb933ffbb245a3f8df521661e9c8e","swim","swim","null","","<div style=""font-size:60px;"">+</div>","","null","","","","","","","","","","","","","","","","","","","",""
"audio-button-response","22","129537","0.0-3.0-1.0-1.5","9f8dedc06b2d3a481db817ae7b44203784eeb933ffbb245a3f8df521661e9c8e","swim","swim","4831","","audio/t3_2.mp3","2","","2","1","headphone-test","","","","","","","","","","","","","","","","",""
"html-keyboard-response","23","130038","0.0-3.0-1.0-2.5","9f8dedc06b2d3a481db817ae7b44203784eeb933ffbb245a3f8df521661e9c8e","swim","swim","null","","<p>Correct</p>","","null","","","","","","","","","","","","","","","","","","","",""
"fullscreen","24","140120","0.0-4.0","9f8dedc06b2d3a481db817ae7b44203784eeb933ffbb245a3f8df521661e9c8e","swim","swim","","","","","","","","","true","","","","","","","","","","","","","","","",""
"html-button-response","25","169601","0.0-5.0-0.0","9f8dedc06b2d3a481db817ae7b44203784eeb933ffbb245a3f8df521661e9c8e","swim","swim","29480","","<p>There are two blocks to this experiment.</p><p>In each block, you will hear a ~13.5 minute story. One of the stories will be scrambled. Please listen carefully to both stories and understand them as best you can.</p><p>After each story, you will be asked some questions to assess your comprehension.</p>","0","","","","","","","","","","","","","","","","","","","","",""
"html-button-response","26","200698","0.0-5.0-1.0","9f8dedc06b2d3a481db817ae7b44203784eeb933ffbb245a3f8df521661e9c8e","swim","swim","31097","","<p>During each story, there will be an additional task.</p><p>A letter will occasionally appear on the screen.</br>Your job is to - as quickly as you can - decide whether the letter is lowercase or uppercase and press one of two keys on the keyboard:</p><p>If the letter is <b>lowercase</b>, press key &lt;<b>x</b>&gt;.</p><p>If the letter is <b>uppercase</b>, press key &lt;<b>m</b>&gt;.</p>","0","","","","","","","","","","","","","","","","","","","","",""
"html-keyboard-response","27","210831","0.0-5.0-2.0","9f8dedc06b2d3a481db817ae7b44203784eeb933ffbb245a3f8df521661e9c8e","swim","swim","10132","","<p>Because we want your responses to be as quick as possible, please keep your index fingers over the keys while listening.</p><p>Each block lasts about 20 minutes.</p><p><b>Press &lt;x&gt; or &lt;m&gt; to start the first block!</b></p>","","77","","","","","","","","","","","","","","","","","","","",""
"html-keyboard-response","28","211332","0.0-7.0-0.0-0.0","9f8dedc06b2d3a481db817ae7b44203784eeb933ffbb245a3f8df521661e9c8e","swim","swim","null","","<div style=""font-size:60px;"" tabindex=""0"">+</div>","","null","","","","","","","","","","","","","","","","","","","",""
"dual-task","null","null","null","","swim","swim","1739","","q","null","88","88","1","swim-dual-task","","q","lowercase","12000","0","2","9f8dedc06b2d3a481db817ae7b44203784eeb933ffbb245a3f8df521661e9c8e","12001","1739","88","1","swim","","","","",""
"dual-task","null","null","null","","swim","swim","1386","","f","null","88","88","1","swim-dual-task","","f","lowercase","24000","0","2","9f8dedc06b2d3a481db817ae7b44203784eeb933ffbb245a3f8df521661e9c8e","24000","1386","88","1","swim","","","","",""
"dual-task","null","null","null","","swim","swim","650","","D","null","88","77","0","swim-dual-task","","D","uppercase","34000","0","2","9f8dedc06b2d3a481db817ae7b44203784eeb933ffbb245a3f8df521661e9c8e","34000","650","88","0","swim","","","","",""
"dual-task","null","null","null","","swim","swim","624","","B","null","77","77","1","swim-dual-task","","B","uppercase","42000","0","2","9f8dedc06b2d3a481db817ae7b44203784eeb933ffbb245a3f8df521661e9c8e","42000","624","77","1","swim","","","","",""
"dual-task","null","null","null","","swim","swim","593","","n","null","88","88","1","swim-dual-task","","n","lowercase","50000","0","2","9f8dedc06b2d3a481db817ae7b44203784eeb933ffbb245a3f8df521661e9c8e","50000","593","88","1","swim","","","","",""
"dual-task","null","null","null","","swim","swim","693","","T","null","77","77","1","swim-dual-task","","T","uppercase","58000","0","2","9f8dedc06b2d3a481db817ae7b44203784eeb933ffbb245a3f8df521661e9c8e","58001","693","77","1","swim","","","","",""
"dual-task","null","null","null","","swim","swim","579","","h","null","88","88","1","swim-dual-task","","h","lowercase","68000","0","2","9f8dedc06b2d3a481db817ae7b44203784eeb933ffbb245a3f8df521661e9c8e","68001","579","88","1","swim","","","","",""
"dual-task","null","null","null","","swim","swim","763","","Q","null","77","77","1","swim-dual-task","","Q","uppercase","78000","0","2","9f8dedc06b2d3a481db817ae7b44203784eeb933ffbb245a3f8df521661e9c8e","78000","763","77","1","swim","","","","",""
"dual-task","null","null","null","","swim","swim","581","","G","null","77","77","1","swim-dual-task","","G","uppercase","86000","0","2","9f8dedc06b2d3a481db817ae7b44203784eeb933ffbb245a3f8df521661e9c8e","86000","581","77","1","swim","","","","",""
"dual-task","null","null","null","","swim","swim","606","","N","null","77","77","1","swim-dual-task","","N","uppercase","98000","0","2","9f8dedc06b2d3a481db817ae7b44203784eeb933ffbb245a3f8df521661e9c8e","98000","606","77","1","swim","","","","",""
"dual-task","null","null","null","","swim","swim","906","","g","null","88","88","1","swim-dual-task","","g","lowercase","110000","0","2","9f8dedc06b2d3a481db817ae7b44203784eeb933ffbb245a3f8df521661e9c8e","110001","906","88","1","swim","","","","",""
"dual-task","null","null","null","","swim","swim","725","","a","null","88","88","1","swim-dual-task","","a","lowercase","118000","0","2","9f8dedc06b2d3a481db817ae7b44203784eeb933ffbb245a3f8df521661e9c8e","118000","725","88","1","swim","","","","",""
"dual-task","null","null","null","","swim","swim","842","","f","null","88","88","1","swim-dual-task","","f","lowercase","132000","0","2","9f8dedc06b2d3a481db817ae7b44203784eeb933ffbb245a3f8df521661e9c8e","132001","842","88","1","swim","","","","",""
"dual-task","null","null","null","","swim","swim","733","","d","null","88","88","1","swim-dual-task","","d","lowercase","146000","0","2","9f8dedc06b2d3a481db817ae7b44203784eeb933ffbb245a3f8df521661e9c8e","146000","733","88","1","swim","","","","",""
"dual-task","null","null","null","","swim","swim","675","","a","null","88","88","1","swim-dual-task","","a","lowercase","154000","0","2","9f8dedc06b2d3a481db817ae7b44203784eeb933ffbb245a3f8df521661e9c8e","154000","675","88","1","swim","","","","",""
"dual-task","null","null","null","","swim","swim","773","","R","null","88","77","0","swim-dual-task","","R","uppercase","160000","0","2","9f8dedc06b2d3a481db817ae7b44203784eeb933ffbb245a3f8df521661e9c8e","160000","773","88","0","swim","","","","",""
"dual-task","null","null","null","","swim","swim","725","","g","null","88","88","1","swim-dual-task","","g","lowercase","170000","0","2","9f8dedc06b2d3a481db817ae7b44203784eeb933ffbb245a3f8df521661e9c8e","170000","725","88","1","swim","","","","",""
"dual-task","null","null","null","","swim","swim","672","","a","null","88","88","1","swim-dual-task","","a","lowercase","182000","0","2","9f8dedc06b2d3a481db817ae7b44203784eeb933ffbb245a3f8df521661e9c8e","182001","672","88","1","swim","","","","",""
"dual-task","null","null","null","","swim","swim","786","","F","null","77","77","1","swim-dual-task","","F","uppercase","190000","0","2","9f8dedc06b2d3a481db817ae7b44203784eeb933ffbb245a3f8df521661e9c8e","190000","786","77","1","swim","","","","",""
"dual-task","null","null","null","","swim","swim","675","","H","null","77","77","1","swim-dual-task","","H","uppercase","202000","0","2","9f8dedc06b2d3a481db817ae7b44203784eeb933ffbb245a3f8df521661e9c8e","202002","675","77","1","swim","","","","",""
"dual-task","null","null","null","","swim","swim","774","","B","null","77","77","1","swim-dual-task","","B","uppercase","214000","0","2","9f8dedc06b2d3a481db817ae7b44203784eeb933ffbb245a3f8df521661e9c8e","214000","774","77","1","swim","","","","",""
"dual-task","null","null","null","","swim","swim","621","","f","null","88","88","1","swim-dual-task","","f","lowercase","226000","0","2","9f8dedc06b2d3a481db817ae7b44203784eeb933ffbb245a3f8df521661e9c8e","226000","621","88","1","swim","","","","",""
"dual-task","null","null","null","","swim","swim","584","","T","null","77","77","1","swim-dual-task","","T","uppercase","234000","0","2","9f8dedc06b2d3a481db817ae7b44203784eeb933ffbb245a3f8df521661e9c8e","234000","584","77","1","swim","","","","",""
"dual-task","null","null","null","","swim","swim","611","","G","null","77","77","1","swim-dual-task","","G","uppercase","242000","0","2","9f8dedc06b2d3a481db817ae7b44203784eeb933ffbb245a3f8df521661e9c8e","242000","611","77","1","swim","","","","",""
"dual-task","null","null","null","","swim","swim","635","","e","null","88","88","1","swim-dual-task","","e","lowercase","248000","0","2","9f8dedc06b2d3a481db817ae7b44203784eeb933ffbb245a3f8df521661e9c8e","248001","635","88","1","swim","","","","",""
"dual-task","null","null","null","","swim","swim","1014","","b","null","88","88","1","swim-dual-task","","b","lowercase","256000","0","2","9f8dedc06b2d3a481db817ae7b44203784eeb933ffbb245a3f8df521661e9c8e","256000","1014","88","1","swim","","","","",""
"dual-task","null","null","null","","swim","swim","692","","N","null","77","77","1","swim-dual-task","","N","uppercase","264000","0","2","9f8dedc06b2d3a481db817ae7b44203784eeb933ffbb245a3f8df521661e9c8e","264000","692","77","1","swim","","","","",""
"dual-task","null","null","null","","swim","swim","721","","g","null","88","88","1","swim-dual-task","","g","lowercase","270000","0","2","9f8dedc06b2d3a481db817ae7b44203784eeb933ffbb245a3f8df521661e9c8e","270001","721","88","1","swim","","","","",""
"dual-task","null","null","null","","swim","swim","678","","E","null","77","77","1","swim-dual-task","","E","uppercase","280000","0","2","9f8dedc06b2d3a481db817ae7b44203784eeb933ffbb245a3f8df521661e9c8e","280000","678","77","1","swim","","","","",""
"dual-task","null","null","null","","swim","swim","1022","","G","null","77","77","1","swim-dual-task","","G","uppercase","286000","0","2","9f8dedc06b2d3a481db817ae7b44203784eeb933ffbb245a3f8df521661e9c8e","286001","1022","77","1","swim","","","","",""
"dual-task","null","null","null","","swim","swim","601","","N","null","77","77","1","swim-dual-task","","N","uppercase","294000","0","2","9f8dedc06b2d3a481db817ae7b44203784eeb933ffbb245a3f8df521661e9c8e","294001","601","77","1","swim","","","","",""
"dual-task","null","null","null","","swim","swim","752","","r","null","88","88","1","swim-dual-task","","r","lowercase","306000","0","2","9f8dedc06b2d3a481db817ae7b44203784eeb933ffbb245a3f8df521661e9c8e","306000","752","88","1","swim","","","","",""
"dual-task","null","null","null","","swim","swim","667","","H","null","77","77","1","swim-dual-task","","H","uppercase","314000","0","2","9f8dedc06b2d3a481db817ae7b44203784eeb933ffbb245a3f8df521661e9c8e","314001","667","77","1","swim","","","","",""
"dual-task","null","null","null","","swim","swim","745","","n","null","88","88","1","swim-dual-task","","n","lowercase","326000","0","2","9f8dedc06b2d3a481db817ae7b44203784eeb933ffbb245a3f8df521661e9c8e","326000","745","88","1","swim","","","","",""
"dual-task","null","null","null","","swim","swim","701","","a","null","88","88","1","swim-dual-task","","a","lowercase","338000","0","2","9f8dedc06b2d3a481db817ae7b44203784eeb933ffbb245a3f8df521661e9c8e","338000","701","88","1","swim","","","","",""
"dual-task","null","null","null","","swim","swim","987","","D","null","77","77","1","swim-dual-task","","D","uppercase","348000","0","2","9f8dedc06b2d3a481db817ae7b44203784eeb933ffbb245a3f8df521661e9c8e","348000","987","77","1","swim","","","","",""
"dual-task","null","null","null","","swim","swim","578","","G","null","77","77","1","swim-dual-task","","G","uppercase","356000","0","2","9f8dedc06b2d3a481db817ae7b44203784eeb933ffbb245a3f8df521661e9c8e","356001","578","77","1","swim","","","","",""
"dual-task","null","null","null","","swim","swim","750","","E","null","77","77","1","swim-dual-task","","E","uppercase","364000","0","2","9f8dedc06b2d3a481db817ae7b44203784eeb933ffbb245a3f8df521661e9c8e","364001","750","77","1","swim","","","","",""
"dual-task","null","null","null","","swim","swim","540","","R","null","77","77","1","swim-dual-task","","R","uppercase","376000","0","2","9f8dedc06b2d3a481db817ae7b44203784eeb933ffbb245a3f8df521661e9c8e","376001","540","77","1","swim","","","","",""
"dual-task","null","null","null","","swim","swim","700","","D","null","77","77","1","swim-dual-task","","D","uppercase","384000","0","2","9f8dedc06b2d3a481db817ae7b44203784eeb933ffbb245a3f8df521661e9c8e","384001","700","77","1","swim","","","","",""
"dual-task","null","null","null","","swim","swim","750","","d","null","88","88","1","swim-dual-task","","d","lowercase","394000","0","2","9f8dedc06b2d3a481db817ae7b44203784eeb933ffbb245a3f8df521661e9c8e","394001","750","88","1","swim","","","","",""
"dual-task","null","null","null","","swim","swim","608","","h","null","88","88","1","swim-dual-task","","h","lowercase","404000","0","2","9f8dedc06b2d3a481db817ae7b44203784eeb933ffbb245a3f8df521661e9c8e","404001","608","88","1","swim","","","","",""
"dual-task","null","null","null","","swim","swim","640","","F","null","77","77","1","swim-dual-task","","F","uppercase","410000","0","2","9f8dedc06b2d3a481db817ae7b44203784eeb933ffbb245a3f8df521661e9c8e","410001","640","77","1","swim","","","","",""
"dual-task","null","null","null","","swim","swim","599","","D","null","77","77","1","swim-dual-task","","D","uppercase","420000","0","2","9f8dedc06b2d3a481db817ae7b44203784eeb933ffbb245a3f8df521661e9c8e","420000","599","77","1","swim","","","","",""
"dual-task","null","null","null","","swim","swim","635","","N","null","77","77","1","swim-dual-task","","N","uppercase","430000","0","2","9f8dedc06b2d3a481db817ae7b44203784eeb933ffbb245a3f8df521661e9c8e","430001","635","77","1","swim","","","","",""
"dual-task","null","null","null","","swim","swim","604","","R","null","77","77","1","swim-dual-task","","R","uppercase","436000","0","2","9f8dedc06b2d3a481db817ae7b44203784eeb933ffbb245a3f8df521661e9c8e","436000","604","77","1","swim","","","","",""
"dual-task","null","null","null","","swim","swim","748","","r","null","88","88","1","swim-dual-task","","r","lowercase","442000","0","2","9f8dedc06b2d3a481db817ae7b44203784eeb933ffbb245a3f8df521661e9c8e","442001","748","88","1","swim","","","","",""
"dual-task","null","null","null","","swim","swim","647","","t","null","88","88","1","swim-dual-task","","t","lowercase","454000","0","2","9f8dedc06b2d3a481db817ae7b44203784eeb933ffbb245a3f8df521661e9c8e","454000","647","88","1","swim","","","","",""
"dual-task","null","null","null","","swim","swim","841","","A","null","77","77","1","swim-dual-task","","A","uppercase","462000","0","2","9f8dedc06b2d3a481db817ae7b44203784eeb933ffbb245a3f8df521661e9c8e","462001","841","77","1","swim","","","","",""
"dual-task","null","null","null","","swim","swim","553","","R","null","77","77","1","swim-dual-task","","R","uppercase","476000","0","2","9f8dedc06b2d3a481db817ae7b44203784eeb933ffbb245a3f8df521661e9c8e","476000","553","77","1","swim","","","","",""
"dual-task","null","null","null","","swim","swim","625","","T","null","77","77","1","swim-dual-task","","T","uppercase","490000","0","2","9f8dedc06b2d3a481db817ae7b44203784eeb933ffbb245a3f8df521661e9c8e","490000","625","77","1","swim","","","","",""
"dual-task","null","null","null","","swim","swim","1463","","b","null","88","88","1","swim-dual-task","","b","lowercase","496000","0","2","9f8dedc06b2d3a481db817ae7b44203784eeb933ffbb245a3f8df521661e9c8e","496001","1463","88","1","swim","","","","",""
"dual-task","null","null","null","","swim","swim","643","","T","null","77","77","1","swim-dual-task","","T","uppercase","510000","0","2","9f8dedc06b2d3a481db817ae7b44203784eeb933ffbb245a3f8df521661e9c8e","510000","643","77","1","swim","","","","",""
"dual-task","null","null","null","","swim","swim","736","","A","null","77","77","1","swim-dual-task","","A","uppercase","520000","0","2","9f8dedc06b2d3a481db817ae7b44203784eeb933ffbb245a3f8df521661e9c8e","520000","736","77","1","swim","","","","",""
"dual-task","null","null","null","","swim","swim","605","","B","null","77","77","1","swim-dual-task","","B","uppercase","528000","0","2","9f8dedc06b2d3a481db817ae7b44203784eeb933ffbb245a3f8df521661e9c8e","528001","605","77","1","swim","","","","",""
"dual-task","null","null","null","","swim","swim","654","","t","null","88","88","1","swim-dual-task","","t","lowercase","540000","0","2","9f8dedc06b2d3a481db817ae7b44203784eeb933ffbb245a3f8df521661e9c8e","540000","654","88","1","swim","","","","",""
"dual-task","null","null","null","","swim","swim","1039","","t","null","88","88","1","swim-dual-task","","t","lowercase","546000","0","2","9f8dedc06b2d3a481db817ae7b44203784eeb933ffbb245a3f8df521661e9c8e","546001","1039","88","1","swim","","","","",""
"dual-task","null","null","null","","swim","swim","683","","F","null","77","77","1","swim-dual-task","","F","uppercase","554000","0","2","9f8dedc06b2d3a481db817ae7b44203784eeb933ffbb245a3f8df521661e9c8e","554000","683","77","1","swim","","","","",""
"dual-task","null","null","null","","swim","swim","683","","t","null","88","88","1","swim-dual-task","","t","lowercase","566000","0","2","9f8dedc06b2d3a481db817ae7b44203784eeb933ffbb245a3f8df521661e9c8e","566001","683","88","1","swim","","","","",""
"dual-task","null","null","null","","swim","swim","704","","e","null","88","88","1","swim-dual-task","","e","lowercase","578000","0","2","9f8dedc06b2d3a481db817ae7b44203784eeb933ffbb245a3f8df521661e9c8e","578001","704","88","1","swim","","","","",""
"dual-task","null","null","null","","swim","swim","514","","n","null","88","88","1","swim-dual-task","","n","lowercase","588000","0","2","9f8dedc06b2d3a481db817ae7b44203784eeb933ffbb245a3f8df521661e9c8e","588000","514","88","1","swim","","","","",""
"dual-task","null","null","null","","swim","swim","659","","r","null","88","88","1","swim-dual-task","","r","lowercase","600000","0","2","9f8dedc06b2d3a481db817ae7b44203784eeb933ffbb245a3f8df521661e9c8e","600001","659","88","1","swim","","","","",""
"dual-task","null","null","null","","swim","swim","667","","e","null","88","88","1","swim-dual-task","","e","lowercase","610000","0","2","9f8dedc06b2d3a481db817ae7b44203784eeb933ffbb245a3f8df521661e9c8e","610001","667","88","1","swim","","","","",""
"dual-task","null","null","null","","swim","swim","654","","H","null","77","77","1","swim-dual-task","","H","uppercase","622000","0","2","9f8dedc06b2d3a481db817ae7b44203784eeb933ffbb245a3f8df521661e9c8e","622001","654","77","1","swim","","","","",""
"dual-task","null","null","null","","swim","swim","644","","b","null","88","88","1","swim-dual-task","","b","lowercase","634000","0","2","9f8dedc06b2d3a481db817ae7b44203784eeb933ffbb245a3f8df521661e9c8e","634000","644","88","1","swim","","","","",""
"dual-task","null","null","null","","swim","swim","758","","n","null","88","88","1","swim-dual-task","","n","lowercase","640000","0","2","9f8dedc06b2d3a481db817ae7b44203784eeb933ffbb245a3f8df521661e9c8e","640001","758","88","1","swim","","","","",""
"dual-task","null","null","null","","swim","swim","842","","d","null","88","88","1","swim-dual-task","","d","lowercase","652000","0","2","9f8dedc06b2d3a481db817ae7b44203784eeb933ffbb245a3f8df521661e9c8e","652001","842","88","1","swim","","","","",""
"dual-task","null","null","null","","swim","swim","601","","Q","null","77","77","1","swim-dual-task","","Q","uppercase","662000","0","2","9f8dedc06b2d3a481db817ae7b44203784eeb933ffbb245a3f8df521661e9c8e","662001","601","77","1","swim","","","","",""
"dual-task","null","null","null","","swim","swim","572","","E","null","77","77","1","swim-dual-task","","E","uppercase","672000","0","2","9f8dedc06b2d3a481db817ae7b44203784eeb933ffbb245a3f8df521661e9c8e","672001","572","77","1","swim","","","","",""
"dual-task","null","null","null","","swim","swim","889","","e","null","88","88","1","swim-dual-task","","e","lowercase","682000","0","2","9f8dedc06b2d3a481db817ae7b44203784eeb933ffbb245a3f8df521661e9c8e","682000","889","88","1","swim","","","","",""
"dual-task","null","null","null","","swim","swim","668","","H","null","77","77","1","swim-dual-task","","H","uppercase","690000","0","2","9f8dedc06b2d3a481db817ae7b44203784eeb933ffbb245a3f8df521661e9c8e","690001","668","77","1","swim","","","","",""
"dual-task","null","null","null","","swim","swim","583","","g","null","88","88","1","swim-dual-task","","g","lowercase","700000","0","2","9f8dedc06b2d3a481db817ae7b44203784eeb933ffbb245a3f8df521661e9c8e","700001","583","88","1","swim","","","","",""
"dual-task","null","null","null","","swim","swim","627","","A","null","77","77","1","swim-dual-task","","A","uppercase","708000","0","2","9f8dedc06b2d3a481db817ae7b44203784eeb933ffbb245a3f8df521661e9c8e","708000","627","77","1","swim","","","","",""
"dual-task","null","null","null","","swim","swim","1116","","Q","null","77","77","1","swim-dual-task","","Q","uppercase","716000","0","2","9f8dedc06b2d3a481db817ae7b44203784eeb933ffbb245a3f8df521661e9c8e","716001","1116","77","1","swim","","","","",""
"dual-task","null","null","null","","swim","swim","776","","q","null","88","88","1","swim-dual-task","","q","lowercase","724000","0","2","9f8dedc06b2d3a481db817ae7b44203784eeb933ffbb245a3f8df521661e9c8e","724001","776","88","1","swim","","","","",""
"dual-task","null","null","null","","swim","swim","693","","q","null","88","88","1","swim-dual-task","","q","lowercase","736000","0","2","9f8dedc06b2d3a481db817ae7b44203784eeb933ffbb245a3f8df521661e9c8e","736000","693","88","1","swim","","","","",""
"dual-task","null","null","null","","swim","swim","825","","E","null","77","77","1","swim-dual-task","","E","uppercase","744000","0","2","9f8dedc06b2d3a481db817ae7b44203784eeb933ffbb245a3f8df521661e9c8e","744001","825","77","1","swim","","","","",""
"dual-task","null","null","null","","swim","swim","596","","b","null","88","88","1","swim-dual-task","","b","lowercase","756000","0","2","9f8dedc06b2d3a481db817ae7b44203784eeb933ffbb245a3f8df521661e9c8e","756001","596","88","1","swim","","","","",""
"dual-task","null","null","null","","swim","swim","670","","B","null","77","77","1","swim-dual-task","","B","uppercase","768000","0","2","9f8dedc06b2d3a481db817ae7b44203784eeb933ffbb245a3f8df521661e9c8e","768000","670","77","1","swim","","","","",""
"dual-task","null","null","null","","swim","swim","695","","f","null","88","88","1","swim-dual-task","","f","lowercase","782000","0","2","9f8dedc06b2d3a481db817ae7b44203784eeb933ffbb245a3f8df521661e9c8e","782001","695","88","1","swim","","","","",""
"dual-task","null","null","null","","swim","swim","1172","","r","null","88","88","1","swim-dual-task","","r","lowercase","790000","0","2","9f8dedc06b2d3a481db817ae7b44203784eeb933ffbb245a3f8df521661e9c8e","790001","1172","88","1","swim","","","","",""
"audio-keyboard-response","29","1021318","0.0-7.0-0.0-1.0","9f8dedc06b2d3a481db817ae7b44203784eeb933ffbb245a3f8df521661e9c8e","swim","swim","null","","audio/story_swim_scrambled.mp3","","null","","","","","","","","","","","","","","","","","","","",""
"html-button-response","30","1024829","0.0-7.0-0.0-2.0","9f8dedc06b2d3a481db817ae7b44203784eeb933ffbb245a3f8df521661e9c8e","swim","swim","3511","","<p>This concludes the story. Thank you for listening.</p><p>You will now answer some questions about the content of the story.</p>","0","","","","","","","","","","","","","","","","","","","","",""
"survey-multi-choice","31","1038691","0.0-7.0-0.0-3.0-0.0","9f8dedc06b2d3a481db817ae7b44203784eeb933ffbb245a3f8df521661e9c8e","swim","swim","13860","","<b>How many times did the astronaut candidates have to complete the final exercise to pass?</b>","","","","0","swim-comprehension","","","","","","","","","","","","","{""Q0"":""Five""}","","","",""
"survey-multi-choice","32","1047127","0.0-7.0-0.0-3.0-0.1","9f8dedc06b2d3a481db817ae7b44203784eeb933ffbb245a3f8df521661e9c8e","swim","swim","8184","","<b>What were the astronaut candidates trained to do at the naval air station?</b>","","","","1","swim-comprehension","","","","","","","","","","","","","{""Q0"":""Eject out of aircraft and survive in water long enough to be rescued""}","","","",""
"survey-multi-choice","33","1057365","0.0-7.0-0.0-3.0-0.2","9f8dedc06b2d3a481db817ae7b44203784eeb933ffbb245a3f8df521661e9c8e","swim","swim","9987","","<b>Where is the home of naval aviation?</b>","","","","1","swim-comprehension","","","","","","","","","","","","","{""Q0"":""Pensacola""}","","","",""
"survey-multi-choice","34","1067849","0.0-7.0-0.0-3.0-0.3","9f8dedc06b2d3a481db817ae7b44203784eeb933ffbb245a3f8df521661e9c8e","swim","swim","10232","","<b>How many astronaut candidates passed the first swim test?</b>","","","","1","swim-comprehension","","","","","","","","","","","","","{""Q0"":""All of them""}","","","",""
"survey-multi-choice","35","1078855","0.0-7.0-0.0-3.0-0.4","9f8dedc06b2d3a481db817ae7b44203784eeb933ffbb245a3f8df521661e9c8e","swim","swim","10754","","<b>How many astronaut candidates reported for duty at the Johnson Space Center?</b>","","","","0","swim-comprehension","","","","","","","","","","","","","{""Q0"":""One hundred""}","","","",""
"survey-multi-choice","36","1086507","0.0-7.0-0.0-3.0-0.5","9f8dedc06b2d3a481db817ae7b44203784eeb933ffbb245a3f8df521661e9c8e","swim","swim","7400","","<b>What is the narrator afraid of, aside from the water?</b>","","","","1","swim-comprehension","","","","","","","","","","","","","{""Q0"":""Heights""}","","","",""
"survey-multi-choice","37","1097695","0.0-7.0-0.0-3.0-0.6","9f8dedc06b2d3a481db817ae7b44203784eeb933ffbb245a3f8df521661e9c8e","swim","swim","10937","","<b>How often does the narrator swim, now that he is a good swimmer?</b>","","","","0","swim-comprehension","","","","","","","","","","","","","{""Q0"":""Every day at the local pool""}","","","",""
"survey-multi-choice","38","1108278","0.0-7.0-0.0-3.0-0.7","9f8dedc06b2d3a481db817ae7b44203784eeb933ffbb245a3f8df521661e9c8e","swim","swim","10332","","<b>How did the narrator train for his swim test?</b>","","","","0","swim-comprehension","","","","","","","","","","","","","{""Q0"":""Signed up for a swim class""}","","","",""
"survey-multi-choice","39","1123923","0.0-7.0-0.0-3.0-0.8","9f8dedc06b2d3a481db817ae7b44203784eeb933ffbb245a3f8df521661e9c8e","swim","swim","15393","","<b>What was the final step of the first swim test in the pool?</b>","","","","1","swim-comprehension","","","","","","","","","","","","","{""Q0"":""Tread water with hands above the water""}","","","",""
"survey-multi-choice","40","1133400","0.0-7.0-0.0-3.0-0.9","9f8dedc06b2d3a481db817ae7b44203784eeb933ffbb245a3f8df521661e9c8e","swim","swim","9225","","<b>What gave the narrator his greatest feeling of accomplishment?</b>","","","","1","swim-comprehension","","","","","","","","","","","","","{""Q0"":""Passing the water survival course""}","","","",""
"html-button-response","41","1135738","0.0-7.0-0.0-4.0","9f8dedc06b2d3a481db817ae7b44203784eeb933ffbb245a3f8df521661e9c8e","swim","swim","2085","","<p>Thank you for your responses.</p><p>You will now answer some questions about your impressions of the story.</p>","0","","","","","","","","","","","","","","","","","","","","",""
"html-button-response","42","1146402","0.0-7.0-0.0-5.0-0.0","9f8dedc06b2d3a481db817ae7b44203784eeb933ffbb245a3f8df521661e9c8e","swim","swim","10664","","MS3","0","","","","swim-engagement","","","","","","","","","","","","","","1","mental-sim","",""
"html-button-response","43","1150579","0.0-7.0-0.0-5.0-0.1","9f8dedc06b2d3a481db817ae7b44203784eeb933ffbb245a3f8df521661e9c8e","swim","swim","3926","","A5","6","","","","swim-engagement","","","","","","","","","","","","","","7","absorption","",""
"html-button-response","44","1157356","0.0-7.0-0.0-5.0-0.2","9f8dedc06b2d3a481db817ae7b44203784eeb933ffbb245a3f8df521661e9c8e","swim","swim","6527","","A1","4","","","","swim-engagement","","","","","","","","","","","","","","5","absorption","",""
"html-button-response","45","1159895","0.0-7.0-0.0-5.0-0.3","9f8dedc06b2d3a481db817ae7b44203784eeb933ffbb245a3f8df521661e9c8e","swim","swim","2288","","EE3","0","","","","swim-engagement","","","","","","","","","","","","","","1","emo-engage","",""
"html-button-response","46","1163260","0.0-7.0-0.0-5.0-0.4","9f8dedc06b2d3a481db817ae7b44203784eeb933ffbb245a3f8df521661e9c8e","swim","swim","3114","","A3","1","","","","swim-engagement","","","","","","","","","","","","","","2","absorption","",""
"html-button-response","47","1167502","0.0-7.0-0.0-5.0-0.5","9f8dedc06b2d3a481db817ae7b44203784eeb933ffbb245a3f8df521661e9c8e","swim","swim","3992","","EE1","0","","","","swim-engagement","","","","","","","","","","","","","","1","emo-engage","",""
"html-button-response","48","1169226","0.0-7.0-0.0-5.0-0.6","9f8dedc06b2d3a481db817ae7b44203784eeb933ffbb245a3f8df521661e9c8e","swim","swim","1473","","EE2","0","","","","swim-engagement","","","","","","","","","","","","","","1","emo-engage","",""
"html-button-response","49","1170780","0.0-7.0-0.0-5.0-0.7","9f8dedc06b2d3a481db817ae7b44203784eeb933ffbb245a3f8df521661e9c8e","swim","swim","1304","","E6","0","","","","swim-engagement","","","","","","","","","","","","","","1","enjoyment","",""
"html-button-response","50","1173680","0.0-7.0-0.0-5.0-0.8","9f8dedc06b2d3a481db817ae7b44203784eeb933ffbb245a3f8df521661e9c8e","swim","swim","2649","","A4","0","","","","swim-engagement","","","","","","","","","","","","","","1","absorption","",""
"html-button-response","51","1178103","0.0-7.0-0.0-5.0-0.9","9f8dedc06b2d3a481db817ae7b44203784eeb933ffbb245a3f8df521661e9c8e","swim","swim","4173","","A2","6","","","","swim-engagement","","","","","","","","","","","","","","7","absorption","",""
"html-button-response","52","1180588","0.0-7.0-0.0-5.0-0.10","9f8dedc06b2d3a481db817ae7b44203784eeb933ffbb245a3f8df521661e9c8e","swim","swim","2233","","E10","0","","","","swim-engagement","","","","","","","","","","","","","","1","enjoyment","",""
"html-button-response","53","1182204","0.0-7.0-0.0-5.0-0.11","9f8dedc06b2d3a481db817ae7b44203784eeb933ffbb245a3f8df521661e9c8e","swim","swim","1366","","E8","0","","","","swim-engagement","","","","","","","","","","","","","","1","enjoyment","",""
"html-button-response","54","1186915","0.0-7.0-0.0-5.0-0.12","9f8dedc06b2d3a481db817ae7b44203784eeb933ffbb245a3f8df521661e9c8e","swim","swim","4461","","MS2","2","","","","swim-engagement","","","","","","","","","","","","","","3","mental-sim","",""
"html-button-response","55","1189551","0.0-7.0-0.0-5.0-0.13","9f8dedc06b2d3a481db817ae7b44203784eeb933ffbb245a3f8df521661e9c8e","swim","swim","2385","","E1","1","","","","swim-engagement","","","","","","","","","","","","","","2","enjoyment","",""
"html-button-response","56","1192805","0.0-7.0-0.0-5.0-0.14","9f8dedc06b2d3a481db817ae7b44203784eeb933ffbb245a3f8df521661e9c8e","swim","swim","3002","","E7","3","","","","swim-engagement","","","","","","","","","","","","","","4","enjoyment","",""
"html-button-response","57","1196223","0.0-7.0-0.0-5.0-0.15","9f8dedc06b2d3a481db817ae7b44203784eeb933ffbb245a3f8df521661e9c8e","swim","swim","3168","","EE5","1","","","","swim-engagement","","","","","","","","","","","","","","2","emo-engage","",""
"html-button-response","58","1198787","0.0-7.0-0.0-5.0-0.16","9f8dedc06b2d3a481db817ae7b44203784eeb933ffbb245a3f8df521661e9c8e","swim","swim","2313","","EE4","1","","","","swim-engagement","","","","","","","","","","","","","","2","emo-engage","",""
"html-button-response","59","1204018","0.0-7.0-0.0-5.0-0.17","9f8dedc06b2d3a481db817ae7b44203784eeb933ffbb245a3f8df521661e9c8e","swim","swim","4980","","MS1","3","","","","swim-engagement","","","","","","","","","","","","","","4","mental-sim","",""
"html-keyboard-response","60","2242752","0.0-7.0-1.0","9f8dedc06b2d3a481db817ae7b44203784eeb933ffbb245a3f8df521661e9c8e","swim","swim","1038484","","<p>Thank you for your responses. You will now listen to the second story.</p><p>Remember, as you listen to the story you will see letters appear on the screen.</br>As quickly as possible, press <b>&lt;x&gt;</b> if the letter is lowercase and <b>&lt;m&gt;</b> if the letter is uppercase.</p><p>Press <b>&lt;x&gt;</b> or <b>&lt;m&gt;</b> to begin listening!</p>","","77","","","","","","","","","","","","","","","","","","","",""
"html-keyboard-response","61","2243253","0.0-7.0-2.0-0.0","9f8dedc06b2d3a481db817ae7b44203784eeb933ffbb245a3f8df521661e9c8e","swim","swim","null","","<div style=""font-size:60px;"" tabindex=""0"">+</div>","","null","","","","","","","","","","","","","","","","","","","",""
"dual-task","null","null","null","","swim","swim","564","","n","null","88","88","1","arctic-dual-task","","n","lowercase","12000","0","2","9f8dedc06b2d3a481db817ae7b44203784eeb933ffbb245a3f8df521661e9c8e","12000","564","88","1","arctic","","","","",""
"dual-task","null","null","null","","swim","swim","643","","t","null","88","88","1","arctic-dual-task","","t","lowercase","20000","0","2","9f8dedc06b2d3a481db817ae7b44203784eeb933ffbb245a3f8df521661e9c8e","20000","643","88","1","arctic","","","","",""
"dual-task","null","null","null","","swim","swim","709","","A","null","77","77","1","arctic-dual-task","","A","uppercase","26000","0","2","9f8dedc06b2d3a481db817ae7b44203784eeb933ffbb245a3f8df521661e9c8e","26000","709","77","1","arctic","","","","",""
"dual-task","null","null","null","","swim","swim","559","","b","null","88","88","1","arctic-dual-task","","b","lowercase","36000","0","2","9f8dedc06b2d3a481db817ae7b44203784eeb933ffbb245a3f8df521661e9c8e","36000","559","88","1","arctic","","","","",""
"dual-task","null","null","null","","swim","swim","519","","A","null","88","77","0","arctic-dual-task","","A","uppercase","48000","0","2","9f8dedc06b2d3a481db817ae7b44203784eeb933ffbb245a3f8df521661e9c8e","48000","519","88","0","arctic","","","","",""
"dual-task","null","null","null","","swim","swim","677","","e","null","77","88","0","arctic-dual-task","","e","lowercase","54000","0","2","9f8dedc06b2d3a481db817ae7b44203784eeb933ffbb245a3f8df521661e9c8e","54000","677","77","0","arctic","","","","",""
"dual-task","null","null","null","","swim","swim","723","","E","null","77","77","1","arctic-dual-task","","E","uppercase","62000","0","2","9f8dedc06b2d3a481db817ae7b44203784eeb933ffbb245a3f8df521661e9c8e","62000","723","77","1","arctic","","","","",""
"dual-task","null","null","null","","swim","swim","593","","T","null","77","77","1","arctic-dual-task","","T","uppercase","72000","0","2","9f8dedc06b2d3a481db817ae7b44203784eeb933ffbb245a3f8df521661e9c8e","72000","593","77","1","arctic","","","","",""
"dual-task","null","null","null","","swim","swim","687","","d","null","88","88","1","arctic-dual-task","","d","lowercase","78000","0","2","9f8dedc06b2d3a481db817ae7b44203784eeb933ffbb245a3f8df521661e9c8e","78000","687","88","1","arctic","","","","",""
"dual-task","null","null","null","","swim","swim","630","","h","null","88","88","1","arctic-dual-task","","h","lowercase","90000","0","2","9f8dedc06b2d3a481db817ae7b44203784eeb933ffbb245a3f8df521661e9c8e","90000","630","88","1","arctic","","","","",""
"dual-task","null","null","null","","swim","swim","768","","A","null","77","77","1","arctic-dual-task","","A","uppercase","96000","0","2","9f8dedc06b2d3a481db817ae7b44203784eeb933ffbb245a3f8df521661e9c8e","96000","768","77","1","arctic","","","","",""
"dual-task","null","null","null","","swim","swim","606","","n","null","88","88","1","arctic-dual-task","","n","lowercase","102000","0","2","9f8dedc06b2d3a481db817ae7b44203784eeb933ffbb245a3f8df521661e9c8e","102000","606","88","1","arctic","","","","",""
"dual-task","null","null","null","","swim","swim","596","","g","null","88","88","1","arctic-dual-task","","g","lowercase","114000","0","2","9f8dedc06b2d3a481db817ae7b44203784eeb933ffbb245a3f8df521661e9c8e","114000","596","88","1","arctic","","","","",""
"dual-task","null","null","null","","swim","swim","560","","B","null","77","77","1","arctic-dual-task","","B","uppercase","126000","0","2","9f8dedc06b2d3a481db817ae7b44203784eeb933ffbb245a3f8df521661e9c8e","126000","560","77","1","arctic","","","","",""
"dual-task","null","null","null","","swim","swim","611","","q","null","88","88","1","arctic-dual-task","","q","lowercase","138000","0","2","9f8dedc06b2d3a481db817ae7b44203784eeb933ffbb245a3f8df521661e9c8e","138000","611","88","1","arctic","","","","",""
"dual-task","null","null","null","","swim","swim","596","","f","null","88","88","1","arctic-dual-task","","f","lowercase","148000","0","2","9f8dedc06b2d3a481db817ae7b44203784eeb933ffbb245a3f8df521661e9c8e","148000","596","88","1","arctic","","","","",""
"dual-task","null","null","null","","swim","swim","607","","q","null","88","88","1","arctic-dual-task","","q","lowercase","158000","0","2","9f8dedc06b2d3a481db817ae7b44203784eeb933ffbb245a3f8df521661e9c8e","158000","607","88","1","arctic","","","","",""
"dual-task","null","null","null","","swim","swim","807","","b","null","88","88","1","arctic-dual-task","","b","lowercase","166000","0","2","9f8dedc06b2d3a481db817ae7b44203784eeb933ffbb245a3f8df521661e9c8e","166001","807","88","1","arctic","","","","",""
"dual-task","null","null","null","","swim","swim","800","","A","null","77","77","1","arctic-dual-task","","A","uppercase","174000","0","2","9f8dedc06b2d3a481db817ae7b44203784eeb933ffbb245a3f8df521661e9c8e","174000","800","77","1","arctic","","","","",""
"dual-task","null","null","null","","swim","swim","887","","t","null","88","88","1","arctic-dual-task","","t","lowercase","182000","0","2","9f8dedc06b2d3a481db817ae7b44203784eeb933ffbb245a3f8df521661e9c8e","182000","887","88","1","arctic","","","","",""
"dual-task","null","null","null","","swim","swim","686","","b","null","88","88","1","arctic-dual-task","","b","lowercase","190000","0","2","9f8dedc06b2d3a481db817ae7b44203784eeb933ffbb245a3f8df521661e9c8e","190001","686","88","1","arctic","","","","",""
"dual-task","null","null","null","","swim","swim","591","","d","null","88","88","1","arctic-dual-task","","d","lowercase","198000","0","2","9f8dedc06b2d3a481db817ae7b44203784eeb933ffbb245a3f8df521661e9c8e","198000","591","88","1","arctic","","","","",""
"dual-task","null","null","null","","swim","swim","601","","r","null","88","88","1","arctic-dual-task","","r","lowercase","210000","0","2","9f8dedc06b2d3a481db817ae7b44203784eeb933ffbb245a3f8df521661e9c8e","210000","601","88","1","arctic","","","","",""
"dual-task","null","null","null","","swim","swim","578","","q","null","88","88","1","arctic-dual-task","","q","lowercase","222000","0","2","9f8dedc06b2d3a481db817ae7b44203784eeb933ffbb245a3f8df521661e9c8e","222001","578","88","1","arctic","","","","",""
"dual-task","null","null","null","","swim","swim","662","","R","null","77","77","1","arctic-dual-task","","R","uppercase","236000","0","2","9f8dedc06b2d3a481db817ae7b44203784eeb933ffbb245a3f8df521661e9c8e","236001","662","77","1","arctic","","","","",""
"dual-task","null","null","null","","swim","swim","675","","B","null","77","77","1","arctic-dual-task","","B","uppercase","250000","0","2","9f8dedc06b2d3a481db817ae7b44203784eeb933ffbb245a3f8df521661e9c8e","250000","675","77","1","arctic","","","","",""
"dual-task","null","null","null","","swim","swim","944","","Q","null","77","77","1","arctic-dual-task","","Q","uppercase","258000","0","2","9f8dedc06b2d3a481db817ae7b44203784eeb933ffbb245a3f8df521661e9c8e","258001","944","77","1","arctic","","","","",""
"dual-task","null","null","null","","swim","swim","751","","g","null","88","88","1","arctic-dual-task","","g","lowercase","268000","0","2","9f8dedc06b2d3a481db817ae7b44203784eeb933ffbb245a3f8df521661e9c8e","268000","751","88","1","arctic","","","","",""
"dual-task","null","null","null","","swim","swim","816","","H","null","77","77","1","arctic-dual-task","","H","uppercase","278000","0","2","9f8dedc06b2d3a481db817ae7b44203784eeb933ffbb245a3f8df521661e9c8e","278001","816","77","1","arctic","","","","",""
"dual-task","null","null","null","","swim","swim","576","","T","null","77","77","1","arctic-dual-task","","T","uppercase","284000","0","2","9f8dedc06b2d3a481db817ae7b44203784eeb933ffbb245a3f8df521661e9c8e","284000","576","77","1","arctic","","","","",""
"dual-task","null","null","null","","swim","swim","520","","Q","null","77","77","1","arctic-dual-task","","Q","uppercase","292000","0","2","9f8dedc06b2d3a481db817ae7b44203784eeb933ffbb245a3f8df521661e9c8e","292000","520","77","1","arctic","","","","",""
"dual-task","null","null","null","","swim","swim","683","","N","null","77","77","1","arctic-dual-task","","N","uppercase","304000","0","2","9f8dedc06b2d3a481db817ae7b44203784eeb933ffbb245a3f8df521661e9c8e","304000","683","77","1","arctic","","","","",""
"dual-task","null","null","null","","swim","swim","604","","a","null","88","88","1","arctic-dual-task","","a","lowercase","310000","0","2","9f8dedc06b2d3a481db817ae7b44203784eeb933ffbb245a3f8df521661e9c8e","310000","604","88","1","arctic","","","","",""
"dual-task","null","null","null","","swim","swim","612","","D","null","77","77","1","arctic-dual-task","","D","uppercase","322000","0","2","9f8dedc06b2d3a481db817ae7b44203784eeb933ffbb245a3f8df521661e9c8e","322000","612","77","1","arctic","","","","",""
"dual-task","null","null","null","","swim","swim","594","","b","null","88","88","1","arctic-dual-task","","b","lowercase","336000","0","2","9f8dedc06b2d3a481db817ae7b44203784eeb933ffbb245a3f8df521661e9c8e","336000","594","88","1","arctic","","","","",""
"dual-task","null","null","null","","swim","swim","590","","D","null","77","77","1","arctic-dual-task","","D","uppercase","344000","0","2","9f8dedc06b2d3a481db817ae7b44203784eeb933ffbb245a3f8df521661e9c8e","344000","590","77","1","arctic","","","","",""
"dual-task","null","null","null","","swim","swim","675","","F","null","77","77","1","arctic-dual-task","","F","uppercase","358000","0","2","9f8dedc06b2d3a481db817ae7b44203784eeb933ffbb245a3f8df521661e9c8e","358000","675","77","1","arctic","","","","",""
"dual-task","null","null","null","","swim","swim","731","","a","null","88","88","1","arctic-dual-task","","a","lowercase","370000","0","2","9f8dedc06b2d3a481db817ae7b44203784eeb933ffbb245a3f8df521661e9c8e","370001","731","88","1","arctic","","","","",""
"dual-task","null","null","null","","swim","swim","635","","T","null","77","77","1","arctic-dual-task","","T","uppercase","380000","0","2","9f8dedc06b2d3a481db817ae7b44203784eeb933ffbb245a3f8df521661e9c8e","380000","635","77","1","arctic","","","","",""
"dual-task","null","null","null","","swim","swim","564","","e","null","88","88","1","arctic-dual-task","","e","lowercase","392000","0","2","9f8dedc06b2d3a481db817ae7b44203784eeb933ffbb245a3f8df521661e9c8e","392000","564","88","1","arctic","","","","",""
"dual-task","null","null","null","","swim","swim","655","","E","null","77","77","1","arctic-dual-task","","E","uppercase","400000","0","2","9f8dedc06b2d3a481db817ae7b44203784eeb933ffbb245a3f8df521661e9c8e","400000","655","77","1","arctic","","","","",""
"dual-task","null","null","null","","swim","swim","558","","g","null","88","88","1","arctic-dual-task","","g","lowercase","408000","0","2","9f8dedc06b2d3a481db817ae7b44203784eeb933ffbb245a3f8df521661e9c8e","408000","558","88","1","arctic","","","","",""
"dual-task","null","null","null","","swim","swim","672","","T","null","77","77","1","arctic-dual-task","","T","uppercase","420000","0","2","9f8dedc06b2d3a481db817ae7b44203784eeb933ffbb245a3f8df521661e9c8e","420001","672","77","1","arctic","","","","",""
"dual-task","null","null","null","","swim","swim","578","","E","null","77","77","1","arctic-dual-task","","E","uppercase","430000","0","2","9f8dedc06b2d3a481db817ae7b44203784eeb933ffbb245a3f8df521661e9c8e","430000","578","77","1","arctic","","","","",""
"dual-task","null","null","null","","swim","swim","599","","F","null","77","77","1","arctic-dual-task","","F","uppercase","442000","0","2","9f8dedc06b2d3a481db817ae7b44203784eeb933ffbb245a3f8df521661e9c8e","442000","599","77","1","arctic","","","","",""
"dual-task","null","null","null","","swim","swim","555","","B","null","77","77","1","arctic-dual-task","","B","uppercase","456000","0","2","9f8dedc06b2d3a481db817ae7b44203784eeb933ffbb245a3f8df521661e9c8e","456001","555","77","1","arctic","","","","",""
"dual-task","null","null","null","","swim","swim","546","","R","null","77","77","1","arctic-dual-task","","R","uppercase","464000","0","2","9f8dedc06b2d3a481db817ae7b44203784eeb933ffbb245a3f8df521661e9c8e","464000","546","77","1","arctic","","","","",""
"dual-task","null","null","null","","swim","swim","557","","q","null","88","88","1","arctic-dual-task","","q","lowercase","470000","0","2","9f8dedc06b2d3a481db817ae7b44203784eeb933ffbb245a3f8df521661e9c8e","470000","557","88","1","arctic","","","","",""
"dual-task","null","null","null","","swim","swim","579","","H","null","77","77","1","arctic-dual-task","","H","uppercase","476000","0","2","9f8dedc06b2d3a481db817ae7b44203784eeb933ffbb245a3f8df521661e9c8e","476000","579","77","1","arctic","","","","",""
"dual-task","null","null","null","","swim","swim","582","","a","null","88","88","1","arctic-dual-task","","a","lowercase","490000","0","2","9f8dedc06b2d3a481db817ae7b44203784eeb933ffbb245a3f8df521661e9c8e","490001","582","88","1","arctic","","","","",""
"dual-task","null","null","null","","swim","swim","567","","R","null","77","77","1","arctic-dual-task","","R","uppercase","502000","0","2","9f8dedc06b2d3a481db817ae7b44203784eeb933ffbb245a3f8df521661e9c8e","502000","567","77","1","arctic","","","","",""
"dual-task","null","null","null","","swim","swim","828","","r","null","88","88","1","arctic-dual-task","","r","lowercase","510000","0","2","9f8dedc06b2d3a481db817ae7b44203784eeb933ffbb245a3f8df521661e9c8e","510001","828","88","1","arctic","","","","",""
"dual-task","null","null","null","","swim","swim","805","","r","null","88","88","1","arctic-dual-task","","r","lowercase","516000","0","2","9f8dedc06b2d3a481db817ae7b44203784eeb933ffbb245a3f8df521661e9c8e","516001","805","88","1","arctic","","","","",""
"dual-task","null","null","null","","swim","swim","652","","f","null","88","88","1","arctic-dual-task","","f","lowercase","526000","0","2","9f8dedc06b2d3a481db817ae7b44203784eeb933ffbb245a3f8df521661e9c8e","526001","652","88","1","arctic","","","","",""
"dual-task","null","null","null","","swim","swim","602","","e","null","88","88","1","arctic-dual-task","","e","lowercase","538000","0","2","9f8dedc06b2d3a481db817ae7b44203784eeb933ffbb245a3f8df521661e9c8e","538000","602","88","1","arctic","","","","",""
"dual-task","null","null","null","","swim","swim","561","","r","null","88","88","1","arctic-dual-task","","r","lowercase","552000","0","2","9f8dedc06b2d3a481db817ae7b44203784eeb933ffbb245a3f8df521661e9c8e","552000","561","88","1","arctic","","","","",""
"dual-task","null","null","null","","swim","swim","503","","E","null","88","77","0","arctic-dual-task","","E","uppercase","564000","0","2","9f8dedc06b2d3a481db817ae7b44203784eeb933ffbb245a3f8df521661e9c8e","564000","503","88","0","arctic","","","","",""
"dual-task","null","null","null","","swim","swim","625","","R","null","77","77","1","arctic-dual-task","","R","uppercase","572000","0","2","9f8dedc06b2d3a481db817ae7b44203784eeb933ffbb245a3f8df521661e9c8e","572000","625","77","1","arctic","","","","",""
"dual-task","null","null","null","","swim","swim","683","","t","null","88","88","1","arctic-dual-task","","t","lowercase","582000","0","2","9f8dedc06b2d3a481db817ae7b44203784eeb933ffbb245a3f8df521661e9c8e","582001","683","88","1","arctic","","","","",""
"dual-task","null","null","null","","swim","swim","592","","d","null","88","88","1","arctic-dual-task","","d","lowercase","590000","0","2","9f8dedc06b2d3a481db817ae7b44203784eeb933ffbb245a3f8df521661e9c8e","590000","592","88","1","arctic","","","","",""
"dual-task","null","null","null","","swim","swim","631","","n","null","88","88","1","arctic-dual-task","","n","lowercase","596000","0","2","9f8dedc06b2d3a481db817ae7b44203784eeb933ffbb245a3f8df521661e9c8e","596001","631","88","1","arctic","","","","",""
"dual-task","null","null","null","","swim","swim","809","","D","null","77","77","1","arctic-dual-task","","D","uppercase","604000","0","2","9f8dedc06b2d3a481db817ae7b44203784eeb933ffbb245a3f8df521661e9c8e","604000","809","77","1","arctic","","","","",""
"dual-task","null","null","null","","swim","swim","688","","t","null","88","88","1","arctic-dual-task","","t","lowercase","612000","0","2","9f8dedc06b2d3a481db817ae7b44203784eeb933ffbb245a3f8df521661e9c8e","612000","688","88","1","arctic","","","","",""
"dual-task","null","null","null","","swim","swim","719","","d","null","88","88","1","arctic-dual-task","","d","lowercase","624000","0","2","9f8dedc06b2d3a481db817ae7b44203784eeb933ffbb245a3f8df521661e9c8e","624001","719","88","1","arctic","","","","",""
"dual-task","null","null","null","","swim","swim","535","","h","null","88","88","1","arctic-dual-task","","h","lowercase","632000","0","2","9f8dedc06b2d3a481db817ae7b44203784eeb933ffbb245a3f8df521661e9c8e","632001","535","88","1","arctic","","","","",""
"dual-task","null","null","null","","swim","swim","742","","N","null","77","77","1","arctic-dual-task","","N","uppercase","644000","0","2","9f8dedc06b2d3a481db817ae7b44203784eeb933ffbb245a3f8df521661e9c8e","644000","742","77","1","arctic","","","","",""
"dual-task","null","null","null","","swim","swim","564","","N","null","77","77","1","arctic-dual-task","","N","uppercase","654000","0","2","9f8dedc06b2d3a481db817ae7b44203784eeb933ffbb245a3f8df521661e9c8e","654000","564","77","1","arctic","","","","",""
"dual-task","null","null","null","","swim","swim","541","","h","null","88","88","1","arctic-dual-task","","h","lowercase","664000","0","2","9f8dedc06b2d3a481db817ae7b44203784eeb933ffbb245a3f8df521661e9c8e","664000","541","88","1","arctic","","","","",""
"dual-task","null","null","null","","swim","swim","750","","F","null","77","77","1","arctic-dual-task","","F","uppercase","672000","0","2","9f8dedc06b2d3a481db817ae7b44203784eeb933ffbb245a3f8df521661e9c8e","672001","750","77","1","arctic","","","","",""
"dual-task","null","null","null","","swim","swim","594","","F","null","77","77","1","arctic-dual-task","","F","uppercase","678000","0","2","9f8dedc06b2d3a481db817ae7b44203784eeb933ffbb245a3f8df521661e9c8e","678000","594","77","1","arctic","","","","",""
"dual-task","null","null","null","","swim","swim","554","","G","null","77","77","1","arctic-dual-task","","G","uppercase","686000","0","2","9f8dedc06b2d3a481db817ae7b44203784eeb933ffbb245a3f8df521661e9c8e","686001","554","77","1","arctic","","","","",""
"dual-task","null","null","null","","swim","swim","622","","f","null","88","88","1","arctic-dual-task","","f","lowercase","698000","0","2","9f8dedc06b2d3a481db817ae7b44203784eeb933ffbb245a3f8df521661e9c8e","698001","622","88","1","arctic","","","","",""
"dual-task","null","null","null","","swim","swim","543","","a","null","88","88","1","arctic-dual-task","","a","lowercase","712000","0","2","9f8dedc06b2d3a481db817ae7b44203784eeb933ffbb245a3f8df521661e9c8e","712001","543","88","1","arctic","","","","",""
"dual-task","null","null","null","","swim","swim","774","","n","null","88","88","1","arctic-dual-task","","n","lowercase","718000","0","2","9f8dedc06b2d3a481db817ae7b44203784eeb933ffbb245a3f8df521661e9c8e","718001","774","88","1","arctic","","","","",""
"dual-task","null","null","null","","swim","swim","616","","e","null","88","88","1","arctic-dual-task","","e","lowercase","732000","0","2","9f8dedc06b2d3a481db817ae7b44203784eeb933ffbb245a3f8df521661e9c8e","732001","616","88","1","arctic","","","","",""
"dual-task","null","null","null","","swim","swim","765","","Q","null","77","77","1","arctic-dual-task","","Q","uppercase","738000","0","2","9f8dedc06b2d3a481db817ae7b44203784eeb933ffbb245a3f8df521661e9c8e","738000","765","77","1","arctic","","","","",""
"dual-task","null","null","null","","swim","swim","663","","h","null","88","88","1","arctic-dual-task","","h","lowercase","752000","0","2","9f8dedc06b2d3a481db817ae7b44203784eeb933ffbb245a3f8df521661e9c8e","752001","663","88","1","arctic","","","","",""
"dual-task","null","null","null","","swim","swim","637","","H","null","77","77","1","arctic-dual-task","","H","uppercase","760000","0","2","9f8dedc06b2d3a481db817ae7b44203784eeb933ffbb245a3f8df521661e9c8e","760000","637","77","1","arctic","","","","",""
"dual-task","null","null","null","","swim","swim","1083","","H","null","77","77","1","arctic-dual-task","","H","uppercase","768000","0","2","9f8dedc06b2d3a481db817ae7b44203784eeb933ffbb245a3f8df521661e9c8e","768001","1083","77","1","arctic","","","","",""
"dual-task","null","null","null","","swim","swim","620","","G","null","77","77","1","arctic-dual-task","","G","uppercase","780000","0","2","9f8dedc06b2d3a481db817ae7b44203784eeb933ffbb245a3f8df521661e9c8e","780001","620","77","1","arctic","","","","",""
"audio-keyboard-response","62","3041298","0.0-7.0-2.0-1.0","9f8dedc06b2d3a481db817ae7b44203784eeb933ffbb245a3f8df521661e9c8e","swim","swim","null","","audio/story_arctic.mp3","","null","","","","","","","","","","","","","","","","","","","",""
"html-button-response","63","3044529","0.0-7.0-2.0-2.0","9f8dedc06b2d3a481db817ae7b44203784eeb933ffbb245a3f8df521661e9c8e","swim","swim","3231","","<p>This concludes the story. Thank you for listening.</p><p>You will now answer some questions about the content of the story.</p>","0","","","","","","","","","","","","","","","","","","","","",""
"survey-multi-choice","64","3049711","0.0-7.0-2.0-3.0-0.0","9f8dedc06b2d3a481db817ae7b44203784eeb933ffbb245a3f8df521661e9c8e","swim","swim","5179","","<b>What did the narrator do for leisure while in her tent?</b>","","","","1","arctic-comprehension","","","","","","","","","","","","","{""Q0"":""Read""}","","","",""
"survey-multi-choice","65","3056781","0.0-7.0-2.0-3.0-0.1","9f8dedc06b2d3a481db817ae7b44203784eeb933ffbb245a3f8df521661e9c8e","swim","swim","6817","","<b>How many sponsorships did the narrator receive to support her expedition?</b>","","","","1","arctic-comprehension","","","","","","","","","","","","","{""Q0"":""None""}","","","",""
"survey-multi-choice","66","3064874","0.0-7.0-2.0-3.0-0.2","9f8dedc06b2d3a481db817ae7b44203784eeb933ffbb245a3f8df521661e9c8e","swim","swim","7840","","<b>What were the weather conditions in the Arctic like the winter of the narrator&#39;s expedition?</b>","","","","1","arctic-comprehension","","","","","","","","","","","","","{""Q0"":""There were more storms than any other winter in recorded history.""}","","","",""
"survey-multi-choice","67","3078115","0.0-7.0-2.0-3.0-0.3","9f8dedc06b2d3a481db817ae7b44203784eeb933ffbb245a3f8df521661e9c8e","swim","swim","12989","","<b>How did the narrator prepare for her expedition?</b>","","","","1","arctic-comprehension","","","","","","","","","","","","","{""Q0"":""Trained in Alaska learning how to dogsled""}","","","",""
"survey-multi-choice","68","3085687","0.0-7.0-2.0-3.0-0.4","9f8dedc06b2d3a481db817ae7b44203784eeb933ffbb245a3f8df521661e9c8e","swim","swim","7320","","<b>How did the dogs respond when they saw the bears?</b>","","","","0","arctic-comprehension","","","","","","","","","","","","","{""Q0"":""Barked aggressively""}","","","",""
"survey-multi-choice","69","3096671","0.0-7.0-2.0-3.0-0.5","9f8dedc06b2d3a481db817ae7b44203784eeb933ffbb245a3f8df521661e9c8e","swim","swim","10731","","<b>How did the narrator&#39;s neighbour respond when she told him about her expedition?</b>","","","","1","arctic-comprehension","","","","","","","","","","","","","{""Q0"":""He said she was going to fail.""}","","","",""
"survey-multi-choice","70","3102433","0.0-7.0-2.0-3.0-0.6","9f8dedc06b2d3a481db817ae7b44203784eeb933ffbb245a3f8df521661e9c8e","swim","swim","5509","","<b>Which dog on the narrator&#39;s dog team never followed instructions?</b>","","","","1","arctic-comprehension","","","","","","","","","","","","","{""Q0"":""Robert""}","","","",""
"survey-multi-choice","71","3109520","0.0-7.0-2.0-3.0-0.7","9f8dedc06b2d3a481db817ae7b44203784eeb933ffbb245a3f8df521661e9c8e","swim","swim","6834","","<b>What was the objective of the narrator&#39;s expedition?</b>","","","","1","arctic-comprehension","","","","","","","","","","","","","{""Q0"":""Dogsled across Arctic America""}","","","",""
"survey-multi-choice","72","3116631","0.0-7.0-2.0-3.0-0.8","9f8dedc06b2d3a481db817ae7b44203784eeb933ffbb245a3f8df521661e9c8e","swim","swim","6860","","<b>How did the narrator&#39;s encounter with the polar bears end?</b>","","","","1","arctic-comprehension","","","","","","","","","","","","","{""Q0"":""The bears walked back to their den.""}","","","",""
"survey-multi-choice","73","3120017","0.0-7.0-2.0-3.0-0.9","9f8dedc06b2d3a481db817ae7b44203784eeb933ffbb245a3f8df521661e9c8e","swim","swim","3135","","<b>What is the name of the narrator&#39;s neighbour?</b>","","","","1","arctic-comprehension","","","","","","","","","","","","","{""Q0"":""Dave""}","","","",""
"html-button-response","74","3121845","0.0-7.0-2.0-4.0","9f8dedc06b2d3a481db817ae7b44203784eeb933ffbb245a3f8df521661e9c8e","swim","swim","1577","","<p>Thank you for your responses.</p><p>You will now answer some questions about your impressions of the story.</p>","0","","","","","","","","","","","","","","","","","","","","",""
"html-button-response","75","3125850","0.0-7.0-2.0-5.0-0.0","9f8dedc06b2d3a481db817ae7b44203784eeb933ffbb245a3f8df521661e9c8e","swim","swim","4005","","EE1","5","","","","arctic-engagement","","","","","","","","","","","","","","6","emo-engage","",""
"html-button-response","76","3127958","0.0-7.0-2.0-5.0-0.1","9f8dedc06b2d3a481db817ae7b44203784eeb933ffbb245a3f8df521661e9c8e","swim","swim","1856","","E7","6","","","","arctic-engagement","","","","","","","","","","","","","","7","enjoyment","",""
"html-button-response","77","3129495","0.0-7.0-2.0-5.0-0.2","9f8dedc06b2d3a481db817ae7b44203784eeb933ffbb245a3f8df521661e9c8e","swim","swim","1284","","A3","6","","","","arctic-engagement","","","","","","","","","","","","","","7","absorption","",""
"html-button-response","78","3131142","0.0-7.0-2.0-5.0-0.3","9f8dedc06b2d3a481db817ae7b44203784eeb933ffbb245a3f8df521661e9c8e","swim","swim","1397","","EE5","6","","","","arctic-engagement","","","","","","","","","","","","","","7","emo-engage","",""
"html-button-response","79","3134677","0.0-7.0-2.0-5.0-0.4","9f8dedc06b2d3a481db817ae7b44203784eeb933ffbb245a3f8df521661e9c8e","swim","swim","3283","","A1","6","","","","arctic-engagement","","","","","","","","","","","","","","7","absorption","",""
"html-button-response","80","3137665","0.0-7.0-2.0-5.0-0.5","9f8dedc06b2d3a481db817ae7b44203784eeb933ffbb245a3f8df521661e9c8e","swim","swim","2738","","MS1","6","","","","arctic-engagement","","","","","","","","","","","","","","7","mental-sim","",""
"html-button-response","81","3139726","0.0-7.0-2.0-5.0-0.6","9f8dedc06b2d3a481db817ae7b44203784eeb933ffbb245a3f8df521661e9c8e","swim","swim","1810","","E6","6","","","","arctic-engagement","","","","","","","","","","","","","","7","enjoyment","",""
"html-button-response","82","3144014","0.0-7.0-2.0-5.0-0.7","9f8dedc06b2d3a481db817ae7b44203784eeb933ffbb245a3f8df521661e9c8e","swim","swim","4037","","A5","5","","","","arctic-engagement","","","","","","","","","","","","","","6","absorption","",""
"html-button-response","83","3146954","0.0-7.0-2.0-5.0-0.8","9f8dedc06b2d3a481db817ae7b44203784eeb933ffbb245a3f8df521661e9c8e","swim","swim","2689","","E10","6","","","","arctic-engagement","","","","","","","","","","","","","","7","enjoyment","",""
"html-button-response","84","3148836","0.0-7.0-2.0-5.0-0.9","9f8dedc06b2d3a481db817ae7b44203784eeb933ffbb245a3f8df521661e9c8e","swim","swim","1631","","EE4","6","","","","arctic-engagement","","","","","","","","","","","","","","7","emo-engage","",""
"html-button-response","85","3151518","0.0-7.0-2.0-5.0-0.10","9f8dedc06b2d3a481db817ae7b44203784eeb933ffbb245a3f8df521661e9c8e","swim","swim","2431","","A2","6","","","","arctic-engagement","","","","","","","","","","","","","","7","absorption","",""
"html-button-response","86","3153446","0.0-7.0-2.0-5.0-0.11","9f8dedc06b2d3a481db817ae7b44203784eeb933ffbb245a3f8df521661e9c8e","swim","swim","1677","","EE3","6","","","","arctic-engagement","","","","","","","","","","","","","","7","emo-engage","",""
"html-button-response","87","3156896","0.0-7.0-2.0-5.0-0.12","9f8dedc06b2d3a481db817ae7b44203784eeb933ffbb245a3f8df521661e9c8e","swim","swim","3199","","MS2","6","","","","arctic-engagement","","","","","","","","","","","","","","7","mental-sim","",""
"html-button-response","88","3161090","0.0-7.0-2.0-5.0-0.13","9f8dedc06b2d3a481db817ae7b44203784eeb933ffbb245a3f8df521661e9c8e","swim","swim","3943","","MS3","6","","","","arctic-engagement","","","","","","","","","","","","","","7","mental-sim","",""
"html-button-response","89","3166453","0.0-7.0-2.0-5.0-0.14","9f8dedc06b2d3a481db817ae7b44203784eeb933ffbb245a3f8df521661e9c8e","swim","swim","5113","","A4","5","","","","arctic-engagement","","","","","","","","","","","","","","6","absorption","",""
"html-button-response","90","3168986","0.0-7.0-2.0-5.0-0.15","9f8dedc06b2d3a481db817ae7b44203784eeb933ffbb245a3f8df521661e9c8e","swim","swim","2281","","E1","5","","","","arctic-engagement","","","","","","","","","","","","","","6","enjoyment","",""
"html-button-response","91","3170712","0.0-7.0-2.0-5.0-0.16","9f8dedc06b2d3a481db817ae7b44203784eeb933ffbb245a3f8df521661e9c8e","swim","swim","1476","","EE2","6","","","","arctic-engagement","","","","","","","","","","","","","","7","emo-engage","",""
"html-button-response","92","3173198","0.0-7.0-2.0-5.0-0.17","9f8dedc06b2d3a481db817ae7b44203784eeb933ffbb245a3f8df521661e9c8e","swim","swim","2236","","E8","6","","","","arctic-engagement","","","","","","","","","","","","","","7","enjoyment","",""
"html-button-response","93","3175996","0.0-8.0","9f8dedc06b2d3a481db817ae7b44203784eeb933ffbb245a3f8df521661e9c8e","swim","swim","2548","","<p>Thank you for your responses.</p><p>You will now answer some demographic, hearing, and general health questions.</p>","0","","","","","","","","","","","","","","","","","","","","",""
"survey-multi-choice","94","3180394","0.0-9.0-0.0","9f8dedc06b2d3a481db817ae7b44203784eeb933ffbb245a3f8df521661e9c8e","swim","swim","4396","","","","","","","survey","","","","","","","","","","","","","{""Q0"":""Firefox""}","","","browser",""
"survey-text","95","3183938","0.0-9.0-1.0","9f8dedc06b2d3a481db817ae7b44203784eeb933ffbb245a3f8df521661e9c8e","swim","swim","3290","","","","","","","survey","","","","","","","","","","","","","{""AGE"":""35""}","","","age","35"
"survey-multi-choice","96","3186387","0.0-9.0-2.0","9f8dedc06b2d3a481db817ae7b44203784eeb933ffbb245a3f8df521661e9c8e","swim","swim","2197","","","","","","","survey","","","","","","","","","","","","","{""Q0"":""Male""}","","","gender","Male"
"survey-multi-choice","97","3189421","0.0-9.0-4.0","9f8dedc06b2d3a481db817ae7b44203784eeb933ffbb245a3f8df521661e9c8e","swim","swim","2782","","","","","","","survey","","","","","","","","","","","","","{""Q0"":""Right""}","","","handedness","Right"
"survey-multi-choice","98","3193945","0.0-9.0-5.0","9f8dedc06b2d3a481db817ae7b44203784eeb933ffbb245a3f8df521661e9c8e","swim","swim","4271","","","","","","","survey","","","","","","","","","","","","","{""Q0"":""Some university undergraduate schooling""}","","","education","Some university undergraduate schooling"
"survey-text","99","3198520","0.0-10.0-0.0","9f8dedc06b2d3a481db817ae7b44203784eeb933ffbb245a3f8df521661e9c8e","swim","swim","4323","","","","","","","survey","","","","","","","","","","","","","{""L1"":""English""}","","","first-language","English"
"survey-text","100","3219369","0.0-10.0-1.0","9f8dedc06b2d3a481db817ae7b44203784eeb933ffbb245a3f8df521661e9c8e","swim","swim","20596","","","","","","","survey","","","","","","","","","","","","","{""L2name"":""Spanish"",""L2fluency"":""6"",""L3name"":"""",""L3fluency"":"""",""L4name"":"""",""L4fluency"":""""}","","","additional-languages","{""L2name"":""Spanish"",""L2fluency"":""6"",""L3name"":"""",""L3fluency"":"""",""L4name"":"""",""L4fluency"":""""}"
"survey-multi-choice","101","3222622","0.0-10.0-2.0","9f8dedc06b2d3a481db817ae7b44203784eeb933ffbb245a3f8df521661e9c8e","swim","swim","3002","","","","","","","survey","","","","","","","","","","","","","{""Q0"":""No""}","","","hearing-aid","No"
"survey-multi-choice","102","3229428","0.0-10.0-3.0","9f8dedc06b2d3a481db817ae7b44203784eeb933ffbb245a3f8df521661e9c8e","swim","swim","6555","","","","","","","survey","","","","","","","","","","","","","{""Q0"":""Sometimes""}","","","ringing-ears","Sometimes"
"survey-multi-choice","103","3232344","0.0-10.0-4.0-0.0","9f8dedc06b2d3a481db817ae7b44203784eeb933ffbb245a3f8df521661e9c8e","swim","swim","2664","","","","","","","survey","","","","","","","","","","","","","{""Q0"":""Both Ears""}","","","ringing-ear-loc","Both Ears"
"survey-multi-choice","104","3237818","0.0-10.0-5.0","9f8dedc06b2d3a481db817ae7b44203784eeb933ffbb245a3f8df521661e9c8e","swim","swim","5223","","","","","","","survey","","","","","","","","","","","","","{""Q0"":""No""}","","","neuro-disease","No"
"survey-multi-choice","105","3241440","0.0-10.0-7.0","9f8dedc06b2d3a481db817ae7b44203784eeb933ffbb245a3f8df521661e9c8e","swim","swim","3370","","","","","","","survey","","","","","","","","","","","","","{""Q0"":""No""}","","","take-meds","No"
"survey-text","106","3246190","0.0-10.0-9.0","9f8dedc06b2d3a481db817ae7b44203784eeb933ffbb245a3f8df521661e9c8e","swim","swim","4496","","","","","","","survey","","","","","","","","","","","","","{""HC"":""""}","","","health-concerns",""
"html-button-response","107","3253435","0.0-11.0-0.0","9f8dedc06b2d3a481db817ae7b44203784eeb933ffbb245a3f8df521661e9c8e","swim","swim","6994","","<p>How would you describe your musical skills/experiences?</p>","0","","","","survey","","","","","","","","","","","","","","","","music-skill","1"
"survey-multi-choice","108","3256698","0.0-11.0-1.0","9f8dedc06b2d3a481db817ae7b44203784eeb933ffbb245a3f8df521661e9c8e","swim","swim","3010","","","","","","","survey","","","","","","","","","","","","","{""Q0"":""Yes""}","","","music-instrument","Yes"
"survey-text","109","3262436","0.0-11.0-2.0-0.0","9f8dedc06b2d3a481db817ae7b44203784eeb933ffbb245a3f8df521661e9c8e","swim","swim","5486","","","","","","","survey","","","","","","","","","","","","","{""MEXP"":""0.5""}","","","music-training-yrs","0.5"
"html-button-response","110","3267727","0.0-12.0-0.0","9f8dedc06b2d3a481db817ae7b44203784eeb933ffbb245a3f8df521661e9c8e","swim","swim","5041","","<p>How would you describe your general hearing abilities?</p>","2","","","","survey","","","","","","","","","","","","","","","","ssq-01","3"
"html-button-response","111","3277315","0.0-12.0-1.0","9f8dedc06b2d3a481db817ae7b44203784eeb933ffbb245a3f8df521661e9c8e","swim","swim","9337","","<p>When you talk with someone at a place that strongly reverberates/echoes (e.g., in a church or train station),</br>can you understand what the person says?</p>","4","","","","survey","","","","","","","","","","","","","","","","ssq-02","4"
"html-button-response","112","3283117","0.0-12.0-2.0","9f8dedc06b2d3a481db817ae7b44203784eeb933ffbb245a3f8df521661e9c8e","swim","swim","5552","","<p>When you are with a group (~5 people) in a lively restaurant, can you follow the group's conversation?</p>","2","","","","survey","","","","","","","","","","","","","","","","ssq-03","2"
"html-button-response","113","3296601","0.0-12.0-3.0","9f8dedc06b2d3a481db817ae7b44203784eeb933ffbb245a3f8df521661e9c8e","swim","swim","13233","","<p>Based on the sound of a bus or truck, can you tell whether it is moving towards or away from you?</p>","5","","","","survey","","","","","","","","","","","","","","","","ssq-04","5"
"html-button-response","114","3301832","0.0-12.0-4.0","9f8dedc06b2d3a481db817ae7b44203784eeb933ffbb245a3f8df521661e9c8e","swim","swim","4981","","<p>When you are in an unknown environment, can you tell from which direction a brief sound originates?</p>","2","","","","survey","","","","","","","","","","","","","","","","ssq-05","2"
"html-button-response","115","3308417","0.0-12.0-5.0","9f8dedc06b2d3a481db817ae7b44203784eeb933ffbb245a3f8df521661e9c8e","swim","swim","6335","","<p>Are you able to ignore distracting sounds when you concentrate on a specific aspect of your acoustic surrounding?</p>","5","","","","survey","","","","","","","","","","","","","","","","ssq-06","5"
"fullscreen","116","3309668","0.0-13.0","9f8dedc06b2d3a481db817ae7b44203784eeb933ffbb245a3f8df521661e9c8e","swim","swim","","","","","","","","","true","","","","","","","","","","","","","","","",""
