"trial_type","trial_index","time_elapsed","internal_node_id","ParticipantID","firstStory","scramStory","rt","url","stimulus","button_pressed","key_press","correctRESP","correct","designation","success","letterStim","letterType","ONSET","TIMEOUT","CONDITION","Participant","ONSET_ACTUAL","RT","RESP","ACC","STORY","responses","response","type","surveyQuestion","QRESP"
"pavlovia","0","2","0.0-0.0","01d92d17ed0ea9d99d2bac6381808c7ee69318be66dd3daf29c6bf4568786f8d","swim","swim","","","","","","","","","","","","","","","","","","","","","","","","",""
"external-html","1","2641","0.0-1.0","01d92d17ed0ea9d99d2bac6381808c7ee69318be66dd3daf29c6bf4568786f8d","swim","swim","2629","consent/consent_updated.html","","","","","","","","","","","","","","","","","","","","","","",""
"html-button-response","2","3385","0.0-2.0-0.0","01d92d17ed0ea9d99d2bac6381808c7ee69318be66dd3daf29c6bf4568786f8d","swim","swim","743","","<p>Before we begin the main task, you will complete a short volume calibration and headphone check.</p><p>Please make sure you are in a quiet listening environment, that you are wearing headphones, and that your computer's volume is turned on.<p></p>","0","","","","","","","","","","","","","","","","","","","","",""
"html-button-response","3","4124","0.0-2.0-1.0","01d92d17ed0ea9d99d2bac6381808c7ee69318be66dd3daf29c6bf4568786f8d","swim","swim","488","","<p>The volume calibration will be first.</p><p>You will hear a thirty-second noise. Please adjust your computer's volume so that this noise is being presented at a comfortable level.<p></p>","0","","","","","","","","","","","","","","","","","","","","",""
"audio-button-response","4","5087","0.0-2.0-2.0","01d92d17ed0ea9d99d2bac6381808c7ee69318be66dd3daf29c6bf4568786f8d","swim","swim","712","","audio/volumetest.mp3","0","","","","","","","","","","","","","","","","","","","","",""
"html-keyboard-response","5","5910","0.0-3.0-0.0","01d92d17ed0ea9d99d2bac6381808c7ee69318be66dd3daf29c6bf4568786f8d","swim","swim","823","","<p>You will now complete a short headphone check.</p><p>On each trial, you will hear three tones. One of these tones will be quieter than the others. Your task is to identify whether the quiet tone occurred first, second, or third.</p><p>There are six trials in total.<p></p><p></p>(Press SPACEBAR to begin)","","32","","","","","","","","","","","","","","","","","","","",""
"html-keyboard-response","6","6660","0.0-3.0-1.0-0.0","01d92d17ed0ea9d99d2bac6381808c7ee69318be66dd3daf29c6bf4568786f8d","swim","swim","null","","<div style=""font-size:60px;"">+</div>","","null","","","","","","","","","","","","","","","","","","","",""
"audio-button-response","7","8785","0.0-3.0-1.0-1.0","01d92d17ed0ea9d99d2bac6381808c7ee69318be66dd3daf29c6bf4568786f8d","swim","swim","2123","","audio/t2_2.mp3","1","","1","1","headphone-test","","","","","","","","","","","","","","","","",""
"html-keyboard-response","8","9285","0.0-3.0-1.0-2.0","01d92d17ed0ea9d99d2bac6381808c7ee69318be66dd3daf29c6bf4568786f8d","swim","swim","null","","<p>Correct</p>","","null","","","","","","","","","","","","","","","","","","","",""
"html-keyboard-response","9","9786","0.0-3.0-1.0-0.1","01d92d17ed0ea9d99d2bac6381808c7ee69318be66dd3daf29c6bf4568786f8d","swim","swim","null","","<div style=""font-size:60px;"">+</div>","","null","","","","","","","","","","","","","","","","","","","",""
"audio-button-response","10","12061","0.0-3.0-1.0-1.1","01d92d17ed0ea9d99d2bac6381808c7ee69318be66dd3daf29c6bf4568786f8d","swim","swim","2274","","audio/t3_1.mp3","2","","2","1","headphone-test","","","","","","","","","","","","","","","","",""
"html-keyboard-response","11","12561","0.0-3.0-1.0-2.1","01d92d17ed0ea9d99d2bac6381808c7ee69318be66dd3daf29c6bf4568786f8d","swim","swim","null","","<p>Correct</p>","","null","","","","","","","","","","","","","","","","","","","",""
"html-keyboard-response","12","13061","0.0-3.0-1.0-0.2","01d92d17ed0ea9d99d2bac6381808c7ee69318be66dd3daf29c6bf4568786f8d","swim","swim","null","","<div style=""font-size:60px;"">+</div>","","null","","","","","","","","","","","","","","","","","","","",""
"audio-button-response","13","14087","0.0-3.0-1.0-1.2","01d92d17ed0ea9d99d2bac6381808c7ee69318be66dd3daf29c6bf4568786f8d","swim","swim","1025","","audio/t1_1.mp3","0","","0","1","headphone-test","","","","","","","","","","","","","","","","",""
"html-keyboard-response","14","14588","0.0-3.0-1.0-2.2","01d92d17ed0ea9d99d2bac6381808c7ee69318be66dd3daf29c6bf4568786f8d","swim","swim","null","","<p>Correct</p>","","null","","","","","","","","","","","","","","","","","","","",""
"html-keyboard-response","15","15088","0.0-3.0-1.0-0.3","01d92d17ed0ea9d99d2bac6381808c7ee69318be66dd3daf29c6bf4568786f8d","swim","swim","null","","<div style=""font-size:60px;"">+</div>","","null","","","","","","","","","","","","","","","","","","","",""
"audio-button-response","16","17641","0.0-3.0-1.0-1.3","01d92d17ed0ea9d99d2bac6381808c7ee69318be66dd3daf29c6bf4568786f8d","swim","swim","2552","","audio/t3_2.mp3","2","","2","1","headphone-test","","","","","","","","","","","","","","","","",""
"html-keyboard-response","17","18142","0.0-3.0-1.0-2.3","01d92d17ed0ea9d99d2bac6381808c7ee69318be66dd3daf29c6bf4568786f8d","swim","swim","null","","<p>Correct</p>","","null","","","","","","","","","","","","","","","","","","","",""
"html-keyboard-response","18","18642","0.0-3.0-1.0-0.4","01d92d17ed0ea9d99d2bac6381808c7ee69318be66dd3daf29c6bf4568786f8d","swim","swim","null","","<div style=""font-size:60px;"">+</div>","","null","","","","","","","","","","","","","","","","","","","",""
"audio-button-response","19","19652","0.0-3.0-1.0-1.4","01d92d17ed0ea9d99d2bac6381808c7ee69318be66dd3daf29c6bf4568786f8d","swim","swim","1009","","audio/t1_2.mp3","0","","0","1","headphone-test","","","","","","","","","","","","","","","","",""
"html-keyboard-response","20","20153","0.0-3.0-1.0-2.4","01d92d17ed0ea9d99d2bac6381808c7ee69318be66dd3daf29c6bf4568786f8d","swim","swim","null","","<p>Correct</p>","","null","","","","","","","","","","","","","","","","","","","",""
"html-keyboard-response","21","20653","0.0-3.0-1.0-0.5","01d92d17ed0ea9d99d2bac6381808c7ee69318be66dd3daf29c6bf4568786f8d","swim","swim","null","","<div style=""font-size:60px;"">+</div>","","null","","","","","","","","","","","","","","","","","","","",""
"audio-button-response","22","23007","0.0-3.0-1.0-1.5","01d92d17ed0ea9d99d2bac6381808c7ee69318be66dd3daf29c6bf4568786f8d","swim","swim","2353","","audio/t2_1.mp3","1","","1","1","headphone-test","","","","","","","","","","","","","","","","",""
"html-keyboard-response","23","23508","0.0-3.0-1.0-2.5","01d92d17ed0ea9d99d2bac6381808c7ee69318be66dd3daf29c6bf4568786f8d","swim","swim","null","","<p>Correct</p>","","null","","","","","","","","","","","","","","","","","","","",""
"fullscreen","24","25277","0.0-4.0","01d92d17ed0ea9d99d2bac6381808c7ee69318be66dd3daf29c6bf4568786f8d","swim","swim","","","","","","","","","true","","","","","","","","","","","","","","","",""
"html-button-response","25","32721","0.0-5.0-0.0","01d92d17ed0ea9d99d2bac6381808c7ee69318be66dd3daf29c6bf4568786f8d","swim","swim","7444","","<p>There are two blocks to this experiment.</p><p>In each block, you will hear a ~13.5 minute story. One of the stories will be scrambled. Please listen carefully to both stories and understand them as best you can.</p><p>After each story, you will be asked some questions to assess your comprehension.</p>","0","","","","","","","","","","","","","","","","","","","","",""
"html-button-response","26","47588","0.0-5.0-1.0","01d92d17ed0ea9d99d2bac6381808c7ee69318be66dd3daf29c6bf4568786f8d","swim","swim","14866","","<p>During each story, there will be an additional task.</p><p>A letter will occasionally appear on the screen.</br>Your job is to - as quickly as you can - decide whether the letter is lowercase or uppercase and press one of two keys on the keyboard:</p><p>If the letter is <b>lowercase</b>, press key &lt;<b>x</b>&gt;.</p><p>If the letter is <b>uppercase</b>, press key &lt;<b>m</b>&gt;.</p>","0","","","","","","","","","","","","","","","","","","","","",""
"html-keyboard-response","27","48094","0.0-5.0-2.0","01d92d17ed0ea9d99d2bac6381808c7ee69318be66dd3daf29c6bf4568786f8d","swim","swim","504","","<p>Because we want your responses to be as quick as possible, please keep your index fingers over the keys while listening.</p><p>Each block lasts about 20 minutes.</p><p><b>Press &lt;x&gt; or &lt;m&gt; to start the first block!</b></p>","","77","","","","","","","","","","","","","","","","","","","",""
"html-keyboard-response","28","48594","0.0-7.0-0.0-0.0","01d92d17ed0ea9d99d2bac6381808c7ee69318be66dd3daf29c6bf4568786f8d","swim","swim","null","","<div style=""font-size:60px;"" tabindex=""0"">+</div>","","null","","","","","","","","","","","","","","","","","","","",""
"dual-task","null","null","null","","swim","swim","874","","A","null","77","77","1","swim-dual-task","","A","uppercase","12000","0","2","01d92d17ed0ea9d99d2bac6381808c7ee69318be66dd3daf29c6bf4568786f8d","11999.89999999851","874","77","1","swim","","","","",""
"dual-task","null","null","null","","swim","swim","706.5","","g","null","88","88","1","swim-dual-task","","g","lowercase","24000","0","2","01d92d17ed0ea9d99d2bac6381808c7ee69318be66dd3daf29c6bf4568786f8d","23999.5","706.5","88","1","swim","","","","",""
"dual-task","null","null","null","","swim","swim","866.1999999992549","","G","null","77","77","1","swim-dual-task","","G","uppercase","34000","0","2","01d92d17ed0ea9d99d2bac6381808c7ee69318be66dd3daf29c6bf4568786f8d","33999.5","866.1999999992549","77","1","swim","","","","",""
"dual-task","null","null","null","","swim","swim","489.9000000022352","","n","null","88","88","1","swim-dual-task","","n","lowercase","42000","0","2","01d92d17ed0ea9d99d2bac6381808c7ee69318be66dd3daf29c6bf4568786f8d","41999.39999999851","489.9000000022352","88","1","swim","","","","",""
"dual-task","null","null","null","","swim","swim","602.1999999992549","","N","null","77","77","1","swim-dual-task","","N","uppercase","50000","0","2","01d92d17ed0ea9d99d2bac6381808c7ee69318be66dd3daf29c6bf4568786f8d","49999.39999999851","602.1999999992549","77","1","swim","","","","",""
"dual-task","null","null","null","","swim","swim","777.6999999992549","","A","null","88","77","0","swim-dual-task","","A","uppercase","58000","0","2","01d92d17ed0ea9d99d2bac6381808c7ee69318be66dd3daf29c6bf4568786f8d","57999.5","777.6999999992549","88","0","swim","","","","",""
"dual-task","null","null","null","","swim","swim","825.9000000022352","","F","null","77","77","1","swim-dual-task","","F","uppercase","68000","0","2","01d92d17ed0ea9d99d2bac6381808c7ee69318be66dd3daf29c6bf4568786f8d","67999.69999999925","825.9000000022352","77","1","swim","","","","",""
"dual-task","null","null","null","","swim","swim","777.8000000007451","","g","null","88","88","1","swim-dual-task","","g","lowercase","78000","0","2","01d92d17ed0ea9d99d2bac6381808c7ee69318be66dd3daf29c6bf4568786f8d","77999.59999999776","777.8000000007451","88","1","swim","","","","",""
"dual-task","null","null","null","","swim","swim","881.2000000029802","","e","null","88","88","1","swim-dual-task","","e","lowercase","86000","0","2","01d92d17ed0ea9d99d2bac6381808c7ee69318be66dd3daf29c6bf4568786f8d","85999.5","881.2000000029802","88","1","swim","","","","",""
"dual-task","null","null","null","","swim","swim","977.8000000007451","","T","null","77","77","1","swim-dual-task","","T","uppercase","98000","0","2","01d92d17ed0ea9d99d2bac6381808c7ee69318be66dd3daf29c6bf4568786f8d","97999.59999999776","977.8000000007451","77","1","swim","","","","",""
"dual-task","null","null","null","","swim","swim","689.8999999985099","","H","null","77","77","1","swim-dual-task","","H","uppercase","110000","0","2","01d92d17ed0ea9d99d2bac6381808c7ee69318be66dd3daf29c6bf4568786f8d","109999.59999999776","689.8999999985099","77","1","swim","","","","",""
"dual-task","null","null","null","","swim","swim","1385.3999999985099","","n","null","88","88","1","swim-dual-task","","n","lowercase","118000","0","2","01d92d17ed0ea9d99d2bac6381808c7ee69318be66dd3daf29c6bf4568786f8d","117999.59999999776","1385.3999999985099","88","1","swim","","","","",""
"dual-task","null","null","null","","swim","swim","825.8000000007451","","n","null","88","88","1","swim-dual-task","","n","lowercase","132000","0","2","01d92d17ed0ea9d99d2bac6381808c7ee69318be66dd3daf29c6bf4568786f8d","131999.59999999776","825.8000000007451","88","1","swim","","","","",""
"dual-task","null","null","null","","swim","swim","657.8000000007451","","h","null","88","88","1","swim-dual-task","","h","lowercase","146000","0","2","01d92d17ed0ea9d99d2bac6381808c7ee69318be66dd3daf29c6bf4568786f8d","145999.59999999776","657.8000000007451","88","1","swim","","","","",""
"dual-task","null","null","null","","swim","swim","729.2000000029802","","Q","null","77","77","1","swim-dual-task","","Q","uppercase","154000","0","2","01d92d17ed0ea9d99d2bac6381808c7ee69318be66dd3daf29c6bf4568786f8d","153999.69999999925","729.2000000029802","77","1","swim","","","","",""
"dual-task","null","null","null","","swim","swim","1041.4000000022352","","E","null","77","77","1","swim-dual-task","","E","uppercase","160000","0","2","01d92d17ed0ea9d99d2bac6381808c7ee69318be66dd3daf29c6bf4568786f8d","159999.69999999925","1041.4000000022352","77","1","swim","","","","",""
"dual-task","null","null","null","","swim","swim","1121.4000000022352","","F","null","77","77","1","swim-dual-task","","F","uppercase","170000","0","2","01d92d17ed0ea9d99d2bac6381808c7ee69318be66dd3daf29c6bf4568786f8d","169999.59999999776","1121.4000000022352","77","1","swim","","","","",""
"dual-task","null","null","null","","swim","swim","705.5","","q","null","88","88","1","swim-dual-task","","q","lowercase","182000","0","2","01d92d17ed0ea9d99d2bac6381808c7ee69318be66dd3daf29c6bf4568786f8d","181999.69999999925","705.5","88","1","swim","","","","",""
"dual-task","null","null","null","","swim","swim","617.0999999977648","","Q","null","77","77","1","swim-dual-task","","Q","uppercase","190000","0","2","01d92d17ed0ea9d99d2bac6381808c7ee69318be66dd3daf29c6bf4568786f8d","189999.59999999776","617.0999999977648","77","1","swim","","","","",""
"dual-task","null","null","null","","swim","swim","513.1999999992549","","f","null","88","88","1","swim-dual-task","","f","lowercase","202000","0","2","01d92d17ed0ea9d99d2bac6381808c7ee69318be66dd3daf29c6bf4568786f8d","201999.69999999925","513.1999999992549","88","1","swim","","","","",""
"dual-task","null","null","null","","swim","swim","529.4000000022352","","q","null","88","88","1","swim-dual-task","","q","lowercase","214000","0","2","01d92d17ed0ea9d99d2bac6381808c7ee69318be66dd3daf29c6bf4568786f8d","213999.69999999925","529.4000000022352","88","1","swim","","","","",""
"dual-task","null","null","null","","swim","swim","465","","D","null","77","77","1","swim-dual-task","","D","uppercase","226000","0","2","01d92d17ed0ea9d99d2bac6381808c7ee69318be66dd3daf29c6bf4568786f8d","225999.79999999702","465","77","1","swim","","","","",""
"dual-task","null","null","null","","swim","swim","648.8000000007451","","e","null","88","88","1","swim-dual-task","","e","lowercase","234000","0","2","01d92d17ed0ea9d99d2bac6381808c7ee69318be66dd3daf29c6bf4568786f8d","233999.69999999925","648.8000000007451","88","1","swim","","","","",""
"dual-task","null","null","null","","swim","swim","833.2000000029802","","t","null","88","88","1","swim-dual-task","","t","lowercase","242000","0","2","01d92d17ed0ea9d99d2bac6381808c7ee69318be66dd3daf29c6bf4568786f8d","241999.69999999925","833.2000000029802","88","1","swim","","","","",""
"dual-task","null","null","null","","swim","swim","1032.800000000745","","F","null","77","77","1","swim-dual-task","","F","uppercase","248000","0","2","01d92d17ed0ea9d99d2bac6381808c7ee69318be66dd3daf29c6bf4568786f8d","247999.69999999925","1032.800000000745","77","1","swim","","","","",""
"dual-task","null","null","null","","swim","swim","688.8999999985099","","a","null","88","88","1","swim-dual-task","","a","lowercase","256000","0","2","01d92d17ed0ea9d99d2bac6381808c7ee69318be66dd3daf29c6bf4568786f8d","255999.79999999702","688.8999999985099","88","1","swim","","","","",""
"dual-task","null","null","null","","swim","swim","752.6000000014901","","T","null","77","77","1","swim-dual-task","","T","uppercase","264000","0","2","01d92d17ed0ea9d99d2bac6381808c7ee69318be66dd3daf29c6bf4568786f8d","263999.69999999925","752.6000000014901","77","1","swim","","","","",""
"dual-task","null","null","null","","swim","swim","816.8999999985099","","d","null","88","88","1","swim-dual-task","","d","lowercase","270000","0","2","01d92d17ed0ea9d99d2bac6381808c7ee69318be66dd3daf29c6bf4568786f8d","269999.69999999925","816.8999999985099","88","1","swim","","","","",""
"dual-task","null","null","null","","swim","swim","584.6000000014901","","t","null","88","88","1","swim-dual-task","","t","lowercase","280000","0","2","01d92d17ed0ea9d99d2bac6381808c7ee69318be66dd3daf29c6bf4568786f8d","279999.799999997","584.6000000014901","88","1","swim","","","","",""
"dual-task","null","null","null","","swim","swim","920.8000000007451","","B","null","77","77","1","swim-dual-task","","B","uppercase","286000","0","2","01d92d17ed0ea9d99d2bac6381808c7ee69318be66dd3daf29c6bf4568786f8d","285999.69999999925","920.8000000007451","77","1","swim","","","","",""
"dual-task","null","null","null","","swim","swim","720.8000000007451","","B","null","77","77","1","swim-dual-task","","B","uppercase","294000","0","2","01d92d17ed0ea9d99d2bac6381808c7ee69318be66dd3daf29c6bf4568786f8d","293999.69999999925","720.8000000007451","77","1","swim","","","","",""
"dual-task","null","null","null","","swim","swim","584.6999999992549","","h","null","88","88","1","swim-dual-task","","h","lowercase","306000","0","2","01d92d17ed0ea9d99d2bac6381808c7ee69318be66dd3daf29c6bf4568786f8d","305999.799999997","584.6999999992549","88","1","swim","","","","",""
"dual-task","null","null","null","","swim","swim","664.3000000007451","","E","null","77","77","1","swim-dual-task","","E","uppercase","314000","0","2","01d92d17ed0ea9d99d2bac6381808c7ee69318be66dd3daf29c6bf4568786f8d","314000","664.3000000007451","77","1","swim","","","","",""
"dual-task","null","null","null","","swim","swim","488.5999999977648","","a","null","88","88","1","swim-dual-task","","a","lowercase","326000","0","2","01d92d17ed0ea9d99d2bac6381808c7ee69318be66dd3daf29c6bf4568786f8d","326000.09999999776","488.5999999977648","88","1","swim","","","","",""
"dual-task","null","null","null","","swim","swim","1543.7000000029802","","E","null","77","77","1","swim-dual-task","","E","uppercase","338000","0","2","01d92d17ed0ea9d99d2bac6381808c7ee69318be66dd3daf29c6bf4568786f8d","337999.799999997","1543.7000000029802","77","1","swim","","","","",""
"dual-task","null","null","null","","swim","swim","648.3999999985099","","R","null","77","77","1","swim-dual-task","","R","uppercase","348000","0","2","01d92d17ed0ea9d99d2bac6381808c7ee69318be66dd3daf29c6bf4568786f8d","347999.799999997","648.3999999985099","77","1","swim","","","","",""
"dual-task","null","null","null","","swim","swim","528.3999999985099","","g","null","88","88","1","swim-dual-task","","g","lowercase","356000","0","2","01d92d17ed0ea9d99d2bac6381808c7ee69318be66dd3daf29c6bf4568786f8d","355999.799999997","528.3999999985099","88","1","swim","","","","",""
"dual-task","null","null","null","","swim","swim","624.1999999992549","","D","null","77","77","1","swim-dual-task","","D","uppercase","364000","0","2","01d92d17ed0ea9d99d2bac6381808c7ee69318be66dd3daf29c6bf4568786f8d","363999.8999999985","624.1999999992549","77","1","swim","","","","",""
"dual-task","null","null","null","","swim","swim","856.1999999992549","","h","null","88","88","1","swim-dual-task","","h","lowercase","376000","0","2","01d92d17ed0ea9d99d2bac6381808c7ee69318be66dd3daf29c6bf4568786f8d","376000","856.1999999992549","88","1","swim","","","","",""
"dual-task","null","null","null","","swim","swim","656.0999999977648","","r","null","88","88","1","swim-dual-task","","r","lowercase","384000","0","2","01d92d17ed0ea9d99d2bac6381808c7ee69318be66dd3daf29c6bf4568786f8d","383999.799999997","656.0999999977648","88","1","swim","","","","",""
"dual-task","null","null","null","","swim","swim","552.2999999970198","","G","null","77","77","1","swim-dual-task","","G","uppercase","394000","0","2","01d92d17ed0ea9d99d2bac6381808c7ee69318be66dd3daf29c6bf4568786f8d","393999.8999999985","552.2999999970198","77","1","swim","","","","",""
"dual-task","null","null","null","","swim","swim","576.2999999970198","","b","null","88","88","1","swim-dual-task","","b","lowercase","404000","0","2","01d92d17ed0ea9d99d2bac6381808c7ee69318be66dd3daf29c6bf4568786f8d","403999.799999997","576.2999999970198","88","1","swim","","","","",""
"dual-task","null","null","null","","swim","swim","720.0999999977648","","N","null","77","77","1","swim-dual-task","","N","uppercase","410000","0","2","01d92d17ed0ea9d99d2bac6381808c7ee69318be66dd3daf29c6bf4568786f8d","409999.8999999985","720.0999999977648","77","1","swim","","","","",""
"dual-task","null","null","null","","swim","swim","584.2999999970198","","r","null","88","88","1","swim-dual-task","","r","lowercase","420000","0","2","01d92d17ed0ea9d99d2bac6381808c7ee69318be66dd3daf29c6bf4568786f8d","419999.8999999985","584.2999999970198","88","1","swim","","","","",""
"dual-task","null","null","null","","swim","swim","616.1999999992549","","G","null","77","77","1","swim-dual-task","","G","uppercase","430000","0","2","01d92d17ed0ea9d99d2bac6381808c7ee69318be66dd3daf29c6bf4568786f8d","430000","616.1999999992549","77","1","swim","","","","",""
"dual-task","null","null","null","","swim","swim","671.7999999970198","","e","null","88","88","1","swim-dual-task","","e","lowercase","436000","0","2","01d92d17ed0ea9d99d2bac6381808c7ee69318be66dd3daf29c6bf4568786f8d","436000","671.7999999970198","88","1","swim","","","","",""
"dual-task","null","null","null","","swim","swim","736.0999999977648","","N","null","77","77","1","swim-dual-task","","N","uppercase","442000","0","2","01d92d17ed0ea9d99d2bac6381808c7ee69318be66dd3daf29c6bf4568786f8d","441999.8999999985","736.0999999977648","77","1","swim","","","","",""
"dual-task","null","null","null","","swim","swim","536","","q","null","88","88","1","swim-dual-task","","q","lowercase","454000","0","2","01d92d17ed0ea9d99d2bac6381808c7ee69318be66dd3daf29c6bf4568786f8d","453999.8999999985","536","88","1","swim","","","","",""
"dual-task","null","null","null","","swim","swim","599.7999999970198","","G","null","77","77","1","swim-dual-task","","G","uppercase","462000","0","2","01d92d17ed0ea9d99d2bac6381808c7ee69318be66dd3daf29c6bf4568786f8d","461999.8999999985","599.7999999970198","77","1","swim","","","","",""
"dual-task","null","null","null","","swim","swim","704","","g","null","88","88","1","swim-dual-task","","g","lowercase","476000","0","2","01d92d17ed0ea9d99d2bac6381808c7ee69318be66dd3daf29c6bf4568786f8d","475999.8999999985","704","88","1","swim","","","","",""
"dual-task","null","null","null","","swim","swim","623.8000000007451","","A","null","77","77","1","swim-dual-task","","A","uppercase","490000","0","2","01d92d17ed0ea9d99d2bac6381808c7ee69318be66dd3daf29c6bf4568786f8d","490000","623.8000000007451","77","1","swim","","","","",""
"dual-task","null","null","null","","swim","swim","687.6999999992549","","B","null","77","77","1","swim-dual-task","","B","uppercase","496000","0","2","01d92d17ed0ea9d99d2bac6381808c7ee69318be66dd3daf29c6bf4568786f8d","495999.8999999985","687.6999999992549","77","1","swim","","","","",""
"dual-task","null","null","null","","swim","swim","744","","f","null","88","88","1","swim-dual-task","","f","lowercase","510000","0","2","01d92d17ed0ea9d99d2bac6381808c7ee69318be66dd3daf29c6bf4568786f8d","510000","744","88","1","swim","","","","",""
"dual-task","null","null","null","","swim","swim","687.5","","q","null","88","88","1","swim-dual-task","","q","lowercase","520000","0","2","01d92d17ed0ea9d99d2bac6381808c7ee69318be66dd3daf29c6bf4568786f8d","520000","687.5","88","1","swim","","","","",""
"dual-task","null","null","null","","swim","swim","631.5","","H","null","77","77","1","swim-dual-task","","H","uppercase","528000","0","2","01d92d17ed0ea9d99d2bac6381808c7ee69318be66dd3daf29c6bf4568786f8d","528000","631.5","77","1","swim","","","","",""
"dual-task","null","null","null","","swim","swim","567.5999999977648","","b","null","88","88","1","swim-dual-task","","b","lowercase","540000","0","2","01d92d17ed0ea9d99d2bac6381808c7ee69318be66dd3daf29c6bf4568786f8d","540000.0999999978","567.5999999977648","88","1","swim","","","","",""
"dual-task","null","null","null","","swim","swim","671.1000000014901","","r","null","88","88","1","swim-dual-task","","r","lowercase","546000","0","2","01d92d17ed0ea9d99d2bac6381808c7ee69318be66dd3daf29c6bf4568786f8d","546000.299999997","671.1000000014901","88","1","swim","","","","",""
"dual-task","null","null","null","","swim","swim","591.5","","h","null","88","88","1","swim-dual-task","","h","lowercase","554000","0","2","01d92d17ed0ea9d99d2bac6381808c7ee69318be66dd3daf29c6bf4568786f8d","554000","591.5","88","1","swim","","","","",""
"dual-task","null","null","null","","swim","swim","735.5","","n","null","88","88","1","swim-dual-task","","n","lowercase","566000","0","2","01d92d17ed0ea9d99d2bac6381808c7ee69318be66dd3daf29c6bf4568786f8d","566000.0999999978","735.5","88","1","swim","","","","",""
"dual-task","null","null","null","","swim","swim","551.3999999985099","","B","null","77","77","1","swim-dual-task","","B","uppercase","578000","0","2","01d92d17ed0ea9d99d2bac6381808c7ee69318be66dd3daf29c6bf4568786f8d","578000","551.3999999985099","77","1","swim","","","","",""
"dual-task","null","null","null","","swim","swim","679.2000000029802","","Q","null","77","77","1","swim-dual-task","","Q","uppercase","588000","0","2","01d92d17ed0ea9d99d2bac6381808c7ee69318be66dd3daf29c6bf4568786f8d","588000.1999999993","679.2000000029802","77","1","swim","","","","",""
"dual-task","null","null","null","","swim","swim","719.3000000007451","","f","null","88","88","1","swim-dual-task","","f","lowercase","600000","0","2","01d92d17ed0ea9d99d2bac6381808c7ee69318be66dd3daf29c6bf4568786f8d","600000.0999999978","719.3000000007451","88","1","swim","","","","",""
"dual-task","null","null","null","","swim","swim","543.2000000029802","","F","null","77","77","1","swim-dual-task","","F","uppercase","610000","0","2","01d92d17ed0ea9d99d2bac6381808c7ee69318be66dd3daf29c6bf4568786f8d","610000.1999999993","543.2000000029802","77","1","swim","","","","",""
"dual-task","null","null","null","","swim","swim","535.1000000014901","","d","null","88","88","1","swim-dual-task","","d","lowercase","622000","0","2","01d92d17ed0ea9d99d2bac6381808c7ee69318be66dd3daf29c6bf4568786f8d","622000.1999999993","535.1000000014901","88","1","swim","","","","",""
"dual-task","null","null","null","","swim","swim","839.1000000014901","","a","null","88","88","1","swim-dual-task","","a","lowercase","634000","0","2","01d92d17ed0ea9d99d2bac6381808c7ee69318be66dd3daf29c6bf4568786f8d","634000.1999999993","839.1000000014901","88","1","swim","","","","",""
"dual-task","null","null","null","","swim","swim","1343.1000000014901","","t","null","88","88","1","swim-dual-task","","t","lowercase","640000","0","2","01d92d17ed0ea9d99d2bac6381808c7ee69318be66dd3daf29c6bf4568786f8d","640000.0999999978","1343.1000000014901","88","1","swim","","","","",""
"dual-task","null","null","null","","swim","swim","783","","t","null","88","88","1","swim-dual-task","","t","lowercase","652000","0","2","01d92d17ed0ea9d99d2bac6381808c7ee69318be66dd3daf29c6bf4568786f8d","652000.1999999993","783","88","1","swim","","","","",""
"dual-task","null","null","null","","swim","swim","831.1999999992549","","R","null","77","77","1","swim-dual-task","","R","uppercase","662000","0","2","01d92d17ed0ea9d99d2bac6381808c7ee69318be66dd3daf29c6bf4568786f8d","662000","831.1999999992549","77","1","swim","","","","",""
"dual-task","null","null","null","","swim","swim","598.8999999985099","","H","null","77","77","1","swim-dual-task","","H","uppercase","672000","0","2","01d92d17ed0ea9d99d2bac6381808c7ee69318be66dd3daf29c6bf4568786f8d","672000.0999999978","598.8999999985099","77","1","swim","","","","",""
"dual-task","null","null","null","","swim","swim","631.1000000014901","","D","null","77","77","1","swim-dual-task","","D","uppercase","682000","0","2","01d92d17ed0ea9d99d2bac6381808c7ee69318be66dd3daf29c6bf4568786f8d","682000.1999999993","631.1000000014901","77","1","swim","","","","",""
"dual-task","null","null","null","","swim","swim","622.6999999992549","","D","null","77","77","1","swim-dual-task","","D","uppercase","690000","0","2","01d92d17ed0ea9d99d2bac6381808c7ee69318be66dd3daf29c6bf4568786f8d","690000.0999999978","622.6999999992549","77","1","swim","","","","",""
"dual-task","null","null","null","","swim","swim","NA","","N","null","NA","77","0","swim-dual-task","","N","uppercase","700000","1","2","01d92d17ed0ea9d99d2bac6381808c7ee69318be66dd3daf29c6bf4568786f8d","700000.0999999978","NA","NA","0","swim","","","","",""
"dual-task","null","null","null","","swim","swim","606.9000000022352","","T","null","77","77","1","swim-dual-task","","T","uppercase","708000","0","2","01d92d17ed0ea9d99d2bac6381808c7ee69318be66dd3daf29c6bf4568786f8d","708000.0999999978","606.9000000022352","77","1","swim","","","","",""
"dual-task","null","null","null","","swim","swim","502.6000000014901","","b","null","88","88","1","swim-dual-task","","b","lowercase","716000","0","2","01d92d17ed0ea9d99d2bac6381808c7ee69318be66dd3daf29c6bf4568786f8d","716000.0999999978","502.6000000014901","88","1","swim","","","","",""
"dual-task","null","null","null","","swim","swim","542.8999999985099","","H","null","77","77","1","swim-dual-task","","H","uppercase","724000","0","2","01d92d17ed0ea9d99d2bac6381808c7ee69318be66dd3daf29c6bf4568786f8d","724000.0999999978","542.8999999985099","77","1","swim","","","","",""
"dual-task","null","null","null","","swim","swim","510.9000000022352","","T","null","77","77","1","swim-dual-task","","T","uppercase","736000","0","2","01d92d17ed0ea9d99d2bac6381808c7ee69318be66dd3daf29c6bf4568786f8d","736000.1999999993","510.9000000022352","77","1","swim","","","","",""
"dual-task","null","null","null","","swim","swim","598.5","","d","null","88","88","1","swim-dual-task","","d","lowercase","744000","0","2","01d92d17ed0ea9d99d2bac6381808c7ee69318be66dd3daf29c6bf4568786f8d","744000.0999999978","598.5","88","1","swim","","","","",""
"dual-task","null","null","null","","swim","swim","574.8000000007451","","f","null","88","88","1","swim-dual-task","","f","lowercase","756000","0","2","01d92d17ed0ea9d99d2bac6381808c7ee69318be66dd3daf29c6bf4568786f8d","756000.0999999978","574.8000000007451","88","1","swim","","","","",""
"dual-task","null","null","null","","swim","swim","830.7000000029802","","e","null","88","88","1","swim-dual-task","","e","lowercase","768000","0","2","01d92d17ed0ea9d99d2bac6381808c7ee69318be66dd3daf29c6bf4568786f8d","768000.0999999978","830.7000000029802","88","1","swim","","","","",""
"dual-task","null","null","null","","swim","swim","598.6999999992549","","R","null","77","77","1","swim-dual-task","","R","uppercase","782000","0","2","01d92d17ed0ea9d99d2bac6381808c7ee69318be66dd3daf29c6bf4568786f8d","782000.1999999993","598.6999999992549","77","1","swim","","","","",""
"dual-task","null","null","null","","swim","swim","598.3000000007451","","b","null","88","88","1","swim-dual-task","","b","lowercase","790000","0","2","01d92d17ed0ea9d99d2bac6381808c7ee69318be66dd3daf29c6bf4568786f8d","790000.0999999978","598.3000000007451","88","1","swim","","","","",""
"audio-keyboard-response","29","858504","0.0-7.0-0.0-1.0","01d92d17ed0ea9d99d2bac6381808c7ee69318be66dd3daf29c6bf4568786f8d","swim","swim","null","","audio/story_swim_scrambled.mp3","","null","","","","","","","","","","","","","","","","","","","",""
"html-button-response","30","862894","0.0-7.0-0.0-2.0","01d92d17ed0ea9d99d2bac6381808c7ee69318be66dd3daf29c6bf4568786f8d","swim","swim","4390","","<p>This concludes the story. Thank you for listening.</p><p>You will now answer some questions about the content of the story.</p>","0","","","","","","","","","","","","","","","","","","","","",""
"survey-multi-choice","31","867022","0.0-7.0-0.0-3.0-0.0","01d92d17ed0ea9d99d2bac6381808c7ee69318be66dd3daf29c6bf4568786f8d","swim","swim","4124","","<b>How many astronaut candidates passed the first swim test?</b>","","","","0","swim-comprehension","","","","","","","","","","","","","{""Q0"":""All but one""}","","","",""
"survey-multi-choice","32","873655","0.0-7.0-0.0-3.0-0.1","01d92d17ed0ea9d99d2bac6381808c7ee69318be66dd3daf29c6bf4568786f8d","swim","swim","6381","","<b>What gave the narrator his greatest feeling of accomplishment?</b>","","","","1","swim-comprehension","","","","","","","","","","","","","{""Q0"":""Passing the water survival course""}","","","",""
"survey-multi-choice","33","880048","0.0-7.0-0.0-3.0-0.2","01d92d17ed0ea9d99d2bac6381808c7ee69318be66dd3daf29c6bf4568786f8d","swim","swim","6140","","<b>What were the astronaut candidates trained to do at the naval air station?</b>","","","","1","swim-comprehension","","","","","","","","","","","","","{""Q0"":""Eject out of aircraft and survive in water long enough to be rescued""}","","","",""
"survey-multi-choice","34","885980","0.0-7.0-0.0-3.0-0.3","01d92d17ed0ea9d99d2bac6381808c7ee69318be66dd3daf29c6bf4568786f8d","swim","swim","5680","","<b>How many astronaut candidates reported for duty at the Johnson Space Center?</b>","","","","1","swim-comprehension","","","","","","","","","","","","","{""Q0"":""Forty-four""}","","","",""
"survey-multi-choice","35","890840","0.0-7.0-0.0-3.0-0.4","01d92d17ed0ea9d99d2bac6381808c7ee69318be66dd3daf29c6bf4568786f8d","swim","swim","4608","","<b>What is the narrator afraid of, aside from the water?</b>","","","","1","swim-comprehension","","","","","","","","","","","","","{""Q0"":""Heights""}","","","",""
"survey-multi-choice","36","899839","0.0-7.0-0.0-3.0-0.5","01d92d17ed0ea9d99d2bac6381808c7ee69318be66dd3daf29c6bf4568786f8d","swim","swim","8747","","<b>How often does the narrator swim, now that he is a good swimmer?</b>","","","","0","swim-comprehension","","","","","","","","","","","","","{""Q0"":""Every day at the local pool""}","","","",""
"survey-multi-choice","37","904055","0.0-7.0-0.0-3.0-0.6","01d92d17ed0ea9d99d2bac6381808c7ee69318be66dd3daf29c6bf4568786f8d","swim","swim","3963","","<b>Where is the home of naval aviation?</b>","","","","1","swim-comprehension","","","","","","","","","","","","","{""Q0"":""Pensacola""}","","","",""
"survey-multi-choice","38","909454","0.0-7.0-0.0-3.0-0.7","01d92d17ed0ea9d99d2bac6381808c7ee69318be66dd3daf29c6bf4568786f8d","swim","swim","5147","","<b>How did the narrator train for his swim test?</b>","","","","1","swim-comprehension","","","","","","","","","","","","","{""Q0"":""Took his kids to the pool every day""}","","","",""
"survey-multi-choice","39","918184","0.0-7.0-0.0-3.0-0.8","01d92d17ed0ea9d99d2bac6381808c7ee69318be66dd3daf29c6bf4568786f8d","swim","swim","8478","","<b>What was the final step of the first swim test in the pool?</b>","","","","1","swim-comprehension","","","","","","","","","","","","","{""Q0"":""Tread water with hands above the water""}","","","",""
"survey-multi-choice","40","945406","0.0-7.0-0.0-3.0-0.9","01d92d17ed0ea9d99d2bac6381808c7ee69318be66dd3daf29c6bf4568786f8d","swim","swim","26970","","<b>How many times did the astronaut candidates have to complete the final exercise to pass?</b>","","","","1","swim-comprehension","","","","","","","","","","","","","{""Q0"":""Two""}","","","",""
"html-button-response","41","947626","0.0-7.0-0.0-4.0","01d92d17ed0ea9d99d2bac6381808c7ee69318be66dd3daf29c6bf4568786f8d","swim","swim","1969","","<p>Thank you for your responses.</p><p>You will now answer some questions about your impressions of the story.</p>","0","","","","","","","","","","","","","","","","","","","","",""
"html-button-response","42","951445","0.0-7.0-0.0-5.0-0.0","01d92d17ed0ea9d99d2bac6381808c7ee69318be66dd3daf29c6bf4568786f8d","swim","swim","3817","","MS2","4","","","","swim-engagement","","","","","","","","","","","","","","5","mental-sim","",""
"html-button-response","43","954058","0.0-7.0-0.0-5.0-0.1","01d92d17ed0ea9d99d2bac6381808c7ee69318be66dd3daf29c6bf4568786f8d","swim","swim","2361","","A2","5","","","","swim-engagement","","","","","","","","","","","","","","6","absorption","",""
"html-button-response","44","956605","0.0-7.0-0.0-5.0-0.2","01d92d17ed0ea9d99d2bac6381808c7ee69318be66dd3daf29c6bf4568786f8d","swim","swim","2296","","EE1","2","","","","swim-engagement","","","","","","","","","","","","","","3","emo-engage","",""
"html-button-response","45","959440","0.0-7.0-0.0-5.0-0.3","01d92d17ed0ea9d99d2bac6381808c7ee69318be66dd3daf29c6bf4568786f8d","swim","swim","2585","","EE5","2","","","","swim-engagement","","","","","","","","","","","","","","3","emo-engage","",""
"html-button-response","46","961511","0.0-7.0-0.0-5.0-0.4","01d92d17ed0ea9d99d2bac6381808c7ee69318be66dd3daf29c6bf4568786f8d","swim","swim","1819","","E7","3","","","","swim-engagement","","","","","","","","","","","","","","4","enjoyment","",""
"html-button-response","47","963219","0.0-7.0-0.0-5.0-0.5","01d92d17ed0ea9d99d2bac6381808c7ee69318be66dd3daf29c6bf4568786f8d","swim","swim","1458","","E1","3","","","","swim-engagement","","","","","","","","","","","","","","4","enjoyment","",""
"html-button-response","48","964848","0.0-7.0-0.0-5.0-0.6","01d92d17ed0ea9d99d2bac6381808c7ee69318be66dd3daf29c6bf4568786f8d","swim","swim","1378","","EE3","2","","","","swim-engagement","","","","","","","","","","","","","","3","emo-engage","",""
"html-button-response","49","967063","0.0-7.0-0.0-5.0-0.7","01d92d17ed0ea9d99d2bac6381808c7ee69318be66dd3daf29c6bf4568786f8d","swim","swim","1965","","E10","3","","","","swim-engagement","","","","","","","","","","","","","","4","enjoyment","",""
"html-button-response","50","969463","0.0-7.0-0.0-5.0-0.8","01d92d17ed0ea9d99d2bac6381808c7ee69318be66dd3daf29c6bf4568786f8d","swim","swim","2149","","A4","2","","","","swim-engagement","","","","","","","","","","","","","","3","absorption","",""
"html-button-response","51","971628","0.0-7.0-0.0-5.0-0.9","01d92d17ed0ea9d99d2bac6381808c7ee69318be66dd3daf29c6bf4568786f8d","swim","swim","1914","","MS3","4","","","","swim-engagement","","","","","","","","","","","","","","5","mental-sim","",""
"html-button-response","52","973848","0.0-7.0-0.0-5.0-0.10","01d92d17ed0ea9d99d2bac6381808c7ee69318be66dd3daf29c6bf4568786f8d","swim","swim","1968","","EE4","3","","","","swim-engagement","","","","","","","","","","","","","","4","emo-engage","",""
"html-button-response","53","975434","0.0-7.0-0.0-5.0-0.11","01d92d17ed0ea9d99d2bac6381808c7ee69318be66dd3daf29c6bf4568786f8d","swim","swim","1336","","A3","3","","","","swim-engagement","","","","","","","","","","","","","","4","absorption","",""
"html-button-response","54","977905","0.0-7.0-0.0-5.0-0.12","01d92d17ed0ea9d99d2bac6381808c7ee69318be66dd3daf29c6bf4568786f8d","swim","swim","2221","","A5","2","","","","swim-engagement","","","","","","","","","","","","","","3","absorption","",""
"html-button-response","55","980776","0.0-7.0-0.0-5.0-0.13","01d92d17ed0ea9d99d2bac6381808c7ee69318be66dd3daf29c6bf4568786f8d","swim","swim","2621","","A1","4","","","","swim-engagement","","","","","","","","","","","","","","5","absorption","",""
"html-button-response","56","982861","0.0-7.0-0.0-5.0-0.14","01d92d17ed0ea9d99d2bac6381808c7ee69318be66dd3daf29c6bf4568786f8d","swim","swim","1833","","E8","3","","","","swim-engagement","","","","","","","","","","","","","","4","enjoyment","",""
"html-button-response","57","985299","0.0-7.0-0.0-5.0-0.15","01d92d17ed0ea9d99d2bac6381808c7ee69318be66dd3daf29c6bf4568786f8d","swim","swim","2187","","MS1","3","","","","swim-engagement","","","","","","","","","","","","","","4","mental-sim","",""
"html-button-response","58","987581","0.0-7.0-0.0-5.0-0.16","01d92d17ed0ea9d99d2bac6381808c7ee69318be66dd3daf29c6bf4568786f8d","swim","swim","2031","","EE2","2","","","","swim-engagement","","","","","","","","","","","","","","3","emo-engage","",""
"html-button-response","59","989154","0.0-7.0-0.0-5.0-0.17","01d92d17ed0ea9d99d2bac6381808c7ee69318be66dd3daf29c6bf4568786f8d","swim","swim","1320","","E6","3","","","","swim-engagement","","","","","","","","","","","","","","4","enjoyment","",""
"html-keyboard-response","60","1014194","0.0-7.0-1.0","01d92d17ed0ea9d99d2bac6381808c7ee69318be66dd3daf29c6bf4568786f8d","swim","swim","24790","","<p>Thank you for your responses. You will now listen to the second story.</p><p>Remember, as you listen to the story you will see letters appear on the screen.</br>As quickly as possible, press <b>&lt;x&gt;</b> if the letter is lowercase and <b>&lt;m&gt;</b> if the letter is uppercase.</p><p>Press <b>&lt;x&gt;</b> or <b>&lt;m&gt;</b> to begin listening!</p>","","88","","","","","","","","","","","","","","","","","","","",""
"html-keyboard-response","61","1014695","0.0-7.0-2.0-0.0","01d92d17ed0ea9d99d2bac6381808c7ee69318be66dd3daf29c6bf4568786f8d","swim","swim","null","","<div style=""font-size:60px;"" tabindex=""0"">+</div>","","null","","","","","","","","","","","","","","","","","","","",""
"dual-task","null","null","null","","swim","swim","601.7999999970198","","d","null","88","88","1","arctic-dual-task","","d","lowercase","12000","0","2","01d92d17ed0ea9d99d2bac6381808c7ee69318be66dd3daf29c6bf4568786f8d","11999","601.7999999970198","88","1","arctic","","","","",""
"dual-task","null","null","null","","swim","swim","1433.8999999985099","","D","null","77","77","1","arctic-dual-task","","D","uppercase","20000","0","2","01d92d17ed0ea9d99d2bac6381808c7ee69318be66dd3daf29c6bf4568786f8d","19998.60000000149","1433.8999999985099","77","1","arctic","","","","",""
"dual-task","null","null","null","","swim","swim","650.1999999992549","","N","null","77","77","1","arctic-dual-task","","N","uppercase","26000","0","2","01d92d17ed0ea9d99d2bac6381808c7ee69318be66dd3daf29c6bf4568786f8d","25998.60000000149","650.1999999992549","77","1","arctic","","","","",""
"dual-task","null","null","null","","swim","swim","658.1999999992549","","F","null","77","77","1","arctic-dual-task","","F","uppercase","36000","0","2","01d92d17ed0ea9d99d2bac6381808c7ee69318be66dd3daf29c6bf4568786f8d","35998.60000000149","658.1999999992549","77","1","arctic","","","","",""
"dual-task","null","null","null","","swim","swim","921.9000000022352","","H","null","77","77","1","arctic-dual-task","","H","uppercase","48000","0","2","01d92d17ed0ea9d99d2bac6381808c7ee69318be66dd3daf29c6bf4568786f8d","47998.800000000745","921.9000000022352","77","1","arctic","","","","",""
"dual-task","null","null","null","","swim","swim","537.8000000007451","","T","null","77","77","1","arctic-dual-task","","T","uppercase","54000","0","2","01d92d17ed0ea9d99d2bac6381808c7ee69318be66dd3daf29c6bf4568786f8d","53998.70000000298","537.8000000007451","77","1","arctic","","","","",""
"dual-task","null","null","null","","swim","swim","458.1000000014901","","F","null","77","77","1","arctic-dual-task","","F","uppercase","62000","0","2","01d92d17ed0ea9d99d2bac6381808c7ee69318be66dd3daf29c6bf4568786f8d","61998.70000000298","458.1000000014901","77","1","arctic","","","","",""
"dual-task","null","null","null","","swim","swim","634","","A","null","77","77","1","arctic-dual-task","","A","uppercase","72000","0","2","01d92d17ed0ea9d99d2bac6381808c7ee69318be66dd3daf29c6bf4568786f8d","71998.70000000298","634","77","1","arctic","","","","",""
"dual-task","null","null","null","","swim","swim","1000.8000000007451","","D","null","77","77","1","arctic-dual-task","","D","uppercase","78000","0","2","01d92d17ed0ea9d99d2bac6381808c7ee69318be66dd3daf29c6bf4568786f8d","77998.60000000149","1000.8000000007451","77","1","arctic","","","","",""
"dual-task","null","null","null","","swim","swim","600.8999999985099","","g","null","88","88","1","arctic-dual-task","","g","lowercase","90000","0","2","01d92d17ed0ea9d99d2bac6381808c7ee69318be66dd3daf29c6bf4568786f8d","89999.80000000075","600.8999999985099","88","1","arctic","","","","",""
"dual-task","null","null","null","","swim","swim","592.6999999992549","","n","null","88","88","1","arctic-dual-task","","n","lowercase","96000","0","2","01d92d17ed0ea9d99d2bac6381808c7ee69318be66dd3daf29c6bf4568786f8d","95999.80000000075","592.6999999992549","88","1","arctic","","","","",""
"dual-task","null","null","null","","swim","swim","736.9000000022352","","g","null","88","88","1","arctic-dual-task","","g","lowercase","102000","0","2","01d92d17ed0ea9d99d2bac6381808c7ee69318be66dd3daf29c6bf4568786f8d","101999.70000000298","736.9000000022352","88","1","arctic","","","","",""
"dual-task","null","null","null","","swim","swim","680.6000000014901","","H","null","77","77","1","arctic-dual-task","","H","uppercase","114000","0","2","01d92d17ed0ea9d99d2bac6381808c7ee69318be66dd3daf29c6bf4568786f8d","113999.80000000075","680.6000000014901","77","1","arctic","","","","",""
"dual-task","null","null","null","","swim","swim","464.3999999985099","","R","null","77","77","1","arctic-dual-task","","R","uppercase","126000","0","2","01d92d17ed0ea9d99d2bac6381808c7ee69318be66dd3daf29c6bf4568786f8d","126000","464.3999999985099","77","1","arctic","","","","",""
"dual-task","null","null","null","","swim","swim","560.6000000014901","","F","null","77","77","1","arctic-dual-task","","F","uppercase","138000","0","2","01d92d17ed0ea9d99d2bac6381808c7ee69318be66dd3daf29c6bf4568786f8d","137999.80000000075","560.6000000014901","77","1","arctic","","","","",""
"dual-task","null","null","null","","swim","swim","712.7000000029802","","t","null","88","88","1","arctic-dual-task","","t","lowercase","148000","0","2","01d92d17ed0ea9d99d2bac6381808c7ee69318be66dd3daf29c6bf4568786f8d","147999.80000000075","712.7000000029802","88","1","arctic","","","","",""
"dual-task","null","null","null","","swim","swim","640.3000000007451","","G","null","77","77","1","arctic-dual-task","","G","uppercase","158000","0","2","01d92d17ed0ea9d99d2bac6381808c7ee69318be66dd3daf29c6bf4568786f8d","157999.80000000075","640.3000000007451","77","1","arctic","","","","",""
"dual-task","null","null","null","","swim","swim","568.6000000014901","","D","null","77","77","1","arctic-dual-task","","D","uppercase","166000","0","2","01d92d17ed0ea9d99d2bac6381808c7ee69318be66dd3daf29c6bf4568786f8d","165999.80000000075","568.6000000014901","77","1","arctic","","","","",""
"dual-task","null","null","null","","swim","swim","488.3999999985099","","E","null","77","77","1","arctic-dual-task","","E","uppercase","174000","0","2","01d92d17ed0ea9d99d2bac6381808c7ee69318be66dd3daf29c6bf4568786f8d","173999.90000000224","488.3999999985099","77","1","arctic","","","","",""
"dual-task","null","null","null","","swim","swim","640.5999999977648","","f","null","88","88","1","arctic-dual-task","","f","lowercase","182000","0","2","01d92d17ed0ea9d99d2bac6381808c7ee69318be66dd3daf29c6bf4568786f8d","181999.80000000075","640.5999999977648","88","1","arctic","","","","",""
"dual-task","null","null","null","","swim","swim","568.3000000007451","","n","null","88","88","1","arctic-dual-task","","n","lowercase","190000","0","2","01d92d17ed0ea9d99d2bac6381808c7ee69318be66dd3daf29c6bf4568786f8d","189999.80000000075","568.3000000007451","88","1","arctic","","","","",""
"dual-task","null","null","null","","swim","swim","744.6000000014901","","a","null","88","88","1","arctic-dual-task","","a","lowercase","198000","0","2","01d92d17ed0ea9d99d2bac6381808c7ee69318be66dd3daf29c6bf4568786f8d","197999.70000000298","744.6000000014901","88","1","arctic","","","","",""
"dual-task","null","null","null","","swim","swim","616.1999999992549","","Q","null","77","77","1","arctic-dual-task","","Q","uppercase","210000","0","2","01d92d17ed0ea9d99d2bac6381808c7ee69318be66dd3daf29c6bf4568786f8d","210000","616.1999999992549","77","1","arctic","","","","",""
"dual-task","null","null","null","","swim","swim","680.5","","n","null","88","88","1","arctic-dual-task","","n","lowercase","222000","0","2","01d92d17ed0ea9d99d2bac6381808c7ee69318be66dd3daf29c6bf4568786f8d","221999.80000000075","680.5","88","1","arctic","","","","",""
"dual-task","null","null","null","","swim","swim","1048.5","","B","null","77","77","1","arctic-dual-task","","B","uppercase","236000","0","2","01d92d17ed0ea9d99d2bac6381808c7ee69318be66dd3daf29c6bf4568786f8d","235999.80000000075","1048.5","77","1","arctic","","","","",""
"dual-task","null","null","null","","swim","swim","640.3999999985099","","b","null","88","88","1","arctic-dual-task","","b","lowercase","250000","0","2","01d92d17ed0ea9d99d2bac6381808c7ee69318be66dd3daf29c6bf4568786f8d","249999.80000000075","640.3999999985099","88","1","arctic","","","","",""
"dual-task","null","null","null","","swim","swim","760.3000000007451","","h","null","88","88","1","arctic-dual-task","","h","lowercase","258000","0","2","01d92d17ed0ea9d99d2bac6381808c7ee69318be66dd3daf29c6bf4568786f8d","257999.80000000075","760.3000000007451","88","1","arctic","","","","",""
"dual-task","null","null","null","","swim","swim","600.2000000029802","","A","null","77","77","1","arctic-dual-task","","A","uppercase","268000","0","2","01d92d17ed0ea9d99d2bac6381808c7ee69318be66dd3daf29c6bf4568786f8d","267999.80000000075","600.2000000029802","77","1","arctic","","","","",""
"dual-task","null","null","null","","swim","swim","640.3000000007451","","E","null","77","77","1","arctic-dual-task","","E","uppercase","278000","0","2","01d92d17ed0ea9d99d2bac6381808c7ee69318be66dd3daf29c6bf4568786f8d","277999.80000000075","640.3000000007451","77","1","arctic","","","","",""
"dual-task","null","null","null","","swim","swim","1304","","d","null","88","88","1","arctic-dual-task","","d","lowercase","284000","0","2","01d92d17ed0ea9d99d2bac6381808c7ee69318be66dd3daf29c6bf4568786f8d","283999.80000000075","1304","88","1","arctic","","","","",""
"dual-task","null","null","null","","swim","swim","903.8000000007451","","r","null","88","88","1","arctic-dual-task","","r","lowercase","292000","0","2","01d92d17ed0ea9d99d2bac6381808c7ee69318be66dd3daf29c6bf4568786f8d","291999.90000000224","903.8000000007451","88","1","arctic","","","","",""
"dual-task","null","null","null","","swim","swim","560","","R","null","77","77","1","arctic-dual-task","","R","uppercase","304000","0","2","01d92d17ed0ea9d99d2bac6381808c7ee69318be66dd3daf29c6bf4568786f8d","303999.80000000075","560","77","1","arctic","","","","",""
"dual-task","null","null","null","","swim","swim","703.8999999985099","","f","null","88","88","1","arctic-dual-task","","f","lowercase","310000","0","2","01d92d17ed0ea9d99d2bac6381808c7ee69318be66dd3daf29c6bf4568786f8d","309999.80000000075","703.8999999985099","88","1","arctic","","","","",""
"dual-task","null","null","null","","swim","swim","496.19999999925494","","g","null","88","88","1","arctic-dual-task","","g","lowercase","322000","0","2","01d92d17ed0ea9d99d2bac6381808c7ee69318be66dd3daf29c6bf4568786f8d","321999.80000000075","496.19999999925494","88","1","arctic","","","","",""
"dual-task","null","null","null","","swim","swim","624","","e","null","88","88","1","arctic-dual-task","","e","lowercase","336000","0","2","01d92d17ed0ea9d99d2bac6381808c7ee69318be66dd3daf29c6bf4568786f8d","335999.80000000075","624","88","1","arctic","","","","",""
"dual-task","null","null","null","","swim","swim","887.8999999985099","","q","null","88","88","1","arctic-dual-task","","q","lowercase","344000","0","2","01d92d17ed0ea9d99d2bac6381808c7ee69318be66dd3daf29c6bf4568786f8d","343999.80000000075","887.8999999985099","88","1","arctic","","","","",""
"dual-task","null","null","null","","swim","swim","567.9000000022352","","r","null","88","88","1","arctic-dual-task","","r","lowercase","358000","0","2","01d92d17ed0ea9d99d2bac6381808c7ee69318be66dd3daf29c6bf4568786f8d","357999.80000000075","567.9000000022352","88","1","arctic","","","","",""
"dual-task","null","null","null","","swim","swim","463.8999999985099","","e","null","88","88","1","arctic-dual-task","","e","lowercase","370000","0","2","01d92d17ed0ea9d99d2bac6381808c7ee69318be66dd3daf29c6bf4568786f8d","369999.80000000075","463.8999999985099","88","1","arctic","","","","",""
"dual-task","null","null","null","","swim","swim","527.8000000007451","","T","null","77","77","1","arctic-dual-task","","T","uppercase","380000","0","2","01d92d17ed0ea9d99d2bac6381808c7ee69318be66dd3daf29c6bf4568786f8d","379999.90000000224","527.8000000007451","77","1","arctic","","","","",""
"dual-task","null","null","null","","swim","swim","583.8000000007451","","h","null","88","88","1","arctic-dual-task","","h","lowercase","392000","0","2","01d92d17ed0ea9d99d2bac6381808c7ee69318be66dd3daf29c6bf4568786f8d","391999.90000000224","583.8000000007451","88","1","arctic","","","","",""
"dual-task","null","null","null","","swim","swim","567.6000000014901","","G","null","77","77","1","arctic-dual-task","","G","uppercase","400000","0","2","01d92d17ed0ea9d99d2bac6381808c7ee69318be66dd3daf29c6bf4568786f8d","399999.80000000075","567.6000000014901","77","1","arctic","","","","",""
"dual-task","null","null","null","","swim","swim","592","","N","null","77","77","1","arctic-dual-task","","N","uppercase","408000","0","2","01d92d17ed0ea9d99d2bac6381808c7ee69318be66dd3daf29c6bf4568786f8d","407999.80000000075","592","77","1","arctic","","","","",""
"dual-task","null","null","null","","swim","swim","607.7000000029802","","F","null","77","77","1","arctic-dual-task","","F","uppercase","420000","0","2","01d92d17ed0ea9d99d2bac6381808c7ee69318be66dd3daf29c6bf4568786f8d","419999.80000000075","607.7000000029802","77","1","arctic","","","","",""
"dual-task","null","null","null","","swim","swim","607.5","","A","null","77","77","1","arctic-dual-task","","A","uppercase","430000","0","2","01d92d17ed0ea9d99d2bac6381808c7ee69318be66dd3daf29c6bf4568786f8d","429999.90000000224","607.5","77","1","arctic","","","","",""
"dual-task","null","null","null","","swim","swim","711.6000000014901","","t","null","88","88","1","arctic-dual-task","","t","lowercase","442000","0","2","01d92d17ed0ea9d99d2bac6381808c7ee69318be66dd3daf29c6bf4568786f8d","441999.90000000224","711.6000000014901","88","1","arctic","","","","",""
"dual-task","null","null","null","","swim","swim","583.7000000029802","","b","null","88","88","1","arctic-dual-task","","b","lowercase","456000","0","2","01d92d17ed0ea9d99d2bac6381808c7ee69318be66dd3daf29c6bf4568786f8d","455999.90000000224","583.7000000029802","88","1","arctic","","","","",""
"dual-task","null","null","null","","swim","swim","799.1999999992549","","E","null","77","77","1","arctic-dual-task","","E","uppercase","464000","0","2","01d92d17ed0ea9d99d2bac6381808c7ee69318be66dd3daf29c6bf4568786f8d","464000","799.1999999992549","77","1","arctic","","","","",""
"dual-task","null","null","null","","swim","swim","839.8000000007451","","f","null","88","88","1","arctic-dual-task","","f","lowercase","470000","0","2","01d92d17ed0ea9d99d2bac6381808c7ee69318be66dd3daf29c6bf4568786f8d","469999.90000000224","839.8000000007451","88","1","arctic","","","","",""
"dual-task","null","null","null","","swim","swim","519.2000000029802","","H","null","77","77","1","arctic-dual-task","","H","uppercase","476000","0","2","01d92d17ed0ea9d99d2bac6381808c7ee69318be66dd3daf29c6bf4568786f8d","476000","519.2000000029802","77","1","arctic","","","","",""
"dual-task","null","null","null","","swim","swim","527.0999999977648","","d","null","88","88","1","arctic-dual-task","","d","lowercase","490000","0","2","01d92d17ed0ea9d99d2bac6381808c7ee69318be66dd3daf29c6bf4568786f8d","490000.30000000075","527.0999999977648","88","1","arctic","","","","",""
"dual-task","null","null","null","","swim","swim","671.3000000007451","","r","null","88","88","1","arctic-dual-task","","r","lowercase","502000","0","2","01d92d17ed0ea9d99d2bac6381808c7ee69318be66dd3daf29c6bf4568786f8d","502000","671.3000000007451","88","1","arctic","","","","",""
"dual-task","null","null","null","","swim","swim","567.1000000014901","","t","null","88","88","1","arctic-dual-task","","t","lowercase","510000","0","2","01d92d17ed0ea9d99d2bac6381808c7ee69318be66dd3daf29c6bf4568786f8d","510000","567.1000000014901","88","1","arctic","","","","",""
"dual-task","null","null","null","","swim","swim","791.3000000007451","","d","null","88","88","1","arctic-dual-task","","d","lowercase","516000","0","2","01d92d17ed0ea9d99d2bac6381808c7ee69318be66dd3daf29c6bf4568786f8d","516000","791.3000000007451","88","1","arctic","","","","",""
"dual-task","null","null","null","","swim","swim","671","","a","null","88","88","1","arctic-dual-task","","a","lowercase","526000","0","2","01d92d17ed0ea9d99d2bac6381808c7ee69318be66dd3daf29c6bf4568786f8d","525999.9000000022","671","88","1","arctic","","","","",""
"dual-task","null","null","null","","swim","swim","751.1999999992549","","g","null","88","88","1","arctic-dual-task","","g","lowercase","538000","0","2","01d92d17ed0ea9d99d2bac6381808c7ee69318be66dd3daf29c6bf4568786f8d","538000","751.1999999992549","88","1","arctic","","","","",""
"dual-task","null","null","null","","swim","swim","575.3000000007451","","a","null","88","88","1","arctic-dual-task","","a","lowercase","552000","0","2","01d92d17ed0ea9d99d2bac6381808c7ee69318be66dd3daf29c6bf4568786f8d","552000","575.3000000007451","88","1","arctic","","","","",""
"dual-task","null","null","null","","swim","swim","663.0999999977648","","G","null","77","77","1","arctic-dual-task","","G","uppercase","564000","0","2","01d92d17ed0ea9d99d2bac6381808c7ee69318be66dd3daf29c6bf4568786f8d","564000","663.0999999977648","77","1","arctic","","","","",""
"dual-task","null","null","null","","swim","swim","814.7999999970198","","Q","null","77","77","1","arctic-dual-task","","Q","uppercase","572000","0","2","01d92d17ed0ea9d99d2bac6381808c7ee69318be66dd3daf29c6bf4568786f8d","572000.1000000015","814.7999999970198","77","1","arctic","","","","",""
"dual-task","null","null","null","","swim","swim","607.1000000014901","","R","null","77","77","1","arctic-dual-task","","R","uppercase","582000","0","2","01d92d17ed0ea9d99d2bac6381808c7ee69318be66dd3daf29c6bf4568786f8d","582000","607.1000000014901","77","1","arctic","","","","",""
"dual-task","null","null","null","","swim","swim","606.8000000007451","","T","null","77","77","1","arctic-dual-task","","T","uppercase","590000","0","2","01d92d17ed0ea9d99d2bac6381808c7ee69318be66dd3daf29c6bf4568786f8d","590000","606.8000000007451","77","1","arctic","","","","",""
"dual-task","null","null","null","","swim","swim","879.1000000014901","","q","null","88","88","1","arctic-dual-task","","q","lowercase","596000","0","2","01d92d17ed0ea9d99d2bac6381808c7ee69318be66dd3daf29c6bf4568786f8d","596000","879.1000000014901","88","1","arctic","","","","",""
"dual-task","null","null","null","","swim","swim","790.6999999992549","","r","null","88","88","1","arctic-dual-task","","r","lowercase","604000","0","2","01d92d17ed0ea9d99d2bac6381808c7ee69318be66dd3daf29c6bf4568786f8d","604000.1000000015","790.6999999992549","88","1","arctic","","","","",""
"dual-task","null","null","null","","swim","swim","831","","H","null","77","77","1","arctic-dual-task","","H","uppercase","612000","0","2","01d92d17ed0ea9d99d2bac6381808c7ee69318be66dd3daf29c6bf4568786f8d","612000","831","77","1","arctic","","","","",""
"dual-task","null","null","null","","swim","swim","591","","B","null","77","77","1","arctic-dual-task","","B","uppercase","624000","0","2","01d92d17ed0ea9d99d2bac6381808c7ee69318be66dd3daf29c6bf4568786f8d","624000.200000003","591","77","1","arctic","","","","",""
"dual-task","null","null","null","","swim","swim","598.3999999985099","","Q","null","77","77","1","arctic-dual-task","","Q","uppercase","632000","0","2","01d92d17ed0ea9d99d2bac6381808c7ee69318be66dd3daf29c6bf4568786f8d","632000.3000000007","598.3999999985099","77","1","arctic","","","","",""
"dual-task","null","null","null","","swim","swim","790.8999999985099","","D","null","77","77","1","arctic-dual-task","","D","uppercase","644000","0","2","01d92d17ed0ea9d99d2bac6381808c7ee69318be66dd3daf29c6bf4568786f8d","644000","790.8999999985099","77","1","arctic","","","","",""
"dual-task","null","null","null","","swim","swim","758.5999999977648","","N","null","77","77","1","arctic-dual-task","","N","uppercase","654000","0","2","01d92d17ed0ea9d99d2bac6381808c7ee69318be66dd3daf29c6bf4568786f8d","654000.1000000015","758.5999999977648","77","1","arctic","","","","",""
"dual-task","null","null","null","","swim","swim","631","","f","null","88","88","1","arctic-dual-task","","f","lowercase","664000","0","2","01d92d17ed0ea9d99d2bac6381808c7ee69318be66dd3daf29c6bf4568786f8d","664000.1000000015","631","88","1","arctic","","","","",""
"dual-task","null","null","null","","swim","swim","878.5","","T","null","77","77","1","arctic-dual-task","","T","uppercase","672000","0","2","01d92d17ed0ea9d99d2bac6381808c7ee69318be66dd3daf29c6bf4568786f8d","672000.1000000015","878.5","77","1","arctic","","","","",""
"dual-task","null","null","null","","swim","swim","1942.8999999985099","","q","null","88","88","1","arctic-dual-task","","q","lowercase","678000","0","2","01d92d17ed0ea9d99d2bac6381808c7ee69318be66dd3daf29c6bf4568786f8d","678000","1942.8999999985099","88","1","arctic","","","","",""
"dual-task","null","null","null","","swim","swim","582.3000000007451","","N","null","77","77","1","arctic-dual-task","","N","uppercase","686000","0","2","01d92d17ed0ea9d99d2bac6381808c7ee69318be66dd3daf29c6bf4568786f8d","686000.3000000007","582.3000000007451","77","1","arctic","","","","",""
"dual-task","null","null","null","","swim","swim","622.6999999992549","","h","null","88","88","1","arctic-dual-task","","h","lowercase","698000","0","2","01d92d17ed0ea9d99d2bac6381808c7ee69318be66dd3daf29c6bf4568786f8d","698000.200000003","622.6999999992549","88","1","arctic","","","","",""
"dual-task","null","null","null","","swim","swim","606.5999999977648","","a","null","88","88","1","arctic-dual-task","","a","lowercase","712000","0","2","01d92d17ed0ea9d99d2bac6381808c7ee69318be66dd3daf29c6bf4568786f8d","712000.1000000015","606.5999999977648","88","1","arctic","","","","",""
"dual-task","null","null","null","","swim","swim","894.2999999970198","","G","null","88","77","0","arctic-dual-task","","G","uppercase","718000","0","2","01d92d17ed0ea9d99d2bac6381808c7ee69318be66dd3daf29c6bf4568786f8d","718000.1000000015","894.2999999970198","88","0","arctic","","","","",""
"dual-task","null","null","null","","swim","swim","910.6999999992549","","q","null","88","88","1","arctic-dual-task","","q","lowercase","732000","0","2","01d92d17ed0ea9d99d2bac6381808c7ee69318be66dd3daf29c6bf4568786f8d","732000.200000003","910.6999999992549","88","1","arctic","","","","",""
"dual-task","null","null","null","","swim","swim","806.0999999977648","","E","null","77","77","1","arctic-dual-task","","E","uppercase","738000","0","2","01d92d17ed0ea9d99d2bac6381808c7ee69318be66dd3daf29c6bf4568786f8d","738000.3000000007","806.0999999977648","77","1","arctic","","","","",""
"dual-task","null","null","null","","swim","swim","718.4000000022352","","t","null","88","88","1","arctic-dual-task","","t","lowercase","752000","0","2","01d92d17ed0ea9d99d2bac6381808c7ee69318be66dd3daf29c6bf4568786f8d","752000.3000000007","718.4000000022352","88","1","arctic","","","","",""
"dual-task","null","null","null","","swim","swim","782.1999999992549","","b","null","88","88","1","arctic-dual-task","","b","lowercase","760000","0","2","01d92d17ed0ea9d99d2bac6381808c7ee69318be66dd3daf29c6bf4568786f8d","760000.200000003","782.1999999992549","88","1","arctic","","","","",""
"dual-task","null","null","null","","swim","swim","742.4000000022352","","e","null","88","88","1","arctic-dual-task","","e","lowercase","768000","0","2","01d92d17ed0ea9d99d2bac6381808c7ee69318be66dd3daf29c6bf4568786f8d","768000.200000003","742.4000000022352","88","1","arctic","","","","",""
"dual-task","null","null","null","","swim","swim","854.3000000007451","","A","null","77","77","1","arctic-dual-task","","A","uppercase","780000","0","2","01d92d17ed0ea9d99d2bac6381808c7ee69318be66dd3daf29c6bf4568786f8d","780000.200000003","854.3000000007451","77","1","arctic","","","","",""
"audio-keyboard-response","62","1812661","0.0-7.0-2.0-1.0","01d92d17ed0ea9d99d2bac6381808c7ee69318be66dd3daf29c6bf4568786f8d","swim","swim","null","","audio/story_arctic.mp3","","null","","","","","","","","","","","","","","","","","","","",""
"html-button-response","63","1815994","0.0-7.0-2.0-2.0","01d92d17ed0ea9d99d2bac6381808c7ee69318be66dd3daf29c6bf4568786f8d","swim","swim","3333","","<p>This concludes the story. Thank you for listening.</p><p>You will now answer some questions about the content of the story.</p>","0","","","","","","","","","","","","","","","","","","","","",""
"survey-multi-choice","64","1820935","0.0-7.0-2.0-3.0-0.0","01d92d17ed0ea9d99d2bac6381808c7ee69318be66dd3daf29c6bf4568786f8d","swim","swim","4939","","<b>How did the narrator prepare for her expedition?</b>","","","","1","arctic-comprehension","","","","","","","","","","","","","{""Q0"":""Trained in Alaska learning how to dogsled""}","","","",""
"survey-multi-choice","65","1826201","0.0-7.0-2.0-3.0-0.1","01d92d17ed0ea9d99d2bac6381808c7ee69318be66dd3daf29c6bf4568786f8d","swim","swim","5014","","<b>How did the narrator&#39;s neighbour respond when she told him about her expedition?</b>","","","","1","arctic-comprehension","","","","","","","","","","","","","{""Q0"":""He said she was going to fail.""}","","","",""
"survey-multi-choice","66","1829269","0.0-7.0-2.0-3.0-0.2","01d92d17ed0ea9d99d2bac6381808c7ee69318be66dd3daf29c6bf4568786f8d","swim","swim","2816","","<b>Which dog on the narrator&#39;s dog team never followed instructions?</b>","","","","1","arctic-comprehension","","","","","","","","","","","","","{""Q0"":""Robert""}","","","",""
"survey-multi-choice","67","1833490","0.0-7.0-2.0-3.0-0.3","01d92d17ed0ea9d99d2bac6381808c7ee69318be66dd3daf29c6bf4568786f8d","swim","swim","3968","","<b>What is the name of the narrator&#39;s neighbour?</b>","","","","1","arctic-comprehension","","","","","","","","","","","","","{""Q0"":""Dave""}","","","",""
"survey-multi-choice","68","1838541","0.0-7.0-2.0-3.0-0.4","01d92d17ed0ea9d99d2bac6381808c7ee69318be66dd3daf29c6bf4568786f8d","swim","swim","4798","","<b>What was the objective of the narrator&#39;s expedition?</b>","","","","1","arctic-comprehension","","","","","","","","","","","","","{""Q0"":""Dogsled across Arctic America""}","","","",""
"survey-multi-choice","69","1844720","0.0-7.0-2.0-3.0-0.5","01d92d17ed0ea9d99d2bac6381808c7ee69318be66dd3daf29c6bf4568786f8d","swim","swim","5927","","<b>How did the dogs respond when they saw the bears?</b>","","","","1","arctic-comprehension","","","","","","","","","","","","","{""Q0"":""Approached them""}","","","",""
"survey-multi-choice","70","1849752","0.0-7.0-2.0-3.0-0.6","01d92d17ed0ea9d99d2bac6381808c7ee69318be66dd3daf29c6bf4568786f8d","swim","swim","4780","","<b>How did the narrator&#39;s encounter with the polar bears end?</b>","","","","1","arctic-comprehension","","","","","","","","","","","","","{""Q0"":""The bears walked back to their den.""}","","","",""
"survey-multi-choice","71","1854258","0.0-7.0-2.0-3.0-0.7","01d92d17ed0ea9d99d2bac6381808c7ee69318be66dd3daf29c6bf4568786f8d","swim","swim","4254","","<b>What were the weather conditions in the Arctic like the winter of the narrator&#39;s expedition?</b>","","","","1","arctic-comprehension","","","","","","","","","","","","","{""Q0"":""There were more storms than any other winter in recorded history.""}","","","",""
"survey-multi-choice","72","1859013","0.0-7.0-2.0-3.0-0.8","01d92d17ed0ea9d99d2bac6381808c7ee69318be66dd3daf29c6bf4568786f8d","swim","swim","4502","","<b>How many sponsorships did the narrator receive to support her expedition?</b>","","","","1","arctic-comprehension","","","","","","","","","","","","","{""Q0"":""None""}","","","",""
"survey-multi-choice","73","1862757","0.0-7.0-2.0-3.0-0.9","01d92d17ed0ea9d99d2bac6381808c7ee69318be66dd3daf29c6bf4568786f8d","swim","swim","3492","","<b>What did the narrator do for leisure while in her tent?</b>","","","","1","arctic-comprehension","","","","","","","","","","","","","{""Q0"":""Read""}","","","",""
"html-button-response","74","1863898","0.0-7.0-2.0-4.0","01d92d17ed0ea9d99d2bac6381808c7ee69318be66dd3daf29c6bf4568786f8d","swim","swim","890","","<p>Thank you for your responses.</p><p>You will now answer some questions about your impressions of the story.</p>","0","","","","","","","","","","","","","","","","","","","","",""
"html-button-response","75","1866263","0.0-7.0-2.0-5.0-0.0","01d92d17ed0ea9d99d2bac6381808c7ee69318be66dd3daf29c6bf4568786f8d","swim","swim","2365","","A4","4","","","","arctic-engagement","","","","","","","","","","","","","","5","absorption","",""
"html-button-response","76","1868058","0.0-7.0-2.0-5.0-0.1","01d92d17ed0ea9d99d2bac6381808c7ee69318be66dd3daf29c6bf4568786f8d","swim","swim","1544","","E7","6","","","","arctic-engagement","","","","","","","","","","","","","","7","enjoyment","",""
"html-button-response","77","1869407","0.0-7.0-2.0-5.0-0.2","01d92d17ed0ea9d99d2bac6381808c7ee69318be66dd3daf29c6bf4568786f8d","swim","swim","1098","","EE5","5","","","","arctic-engagement","","","","","","","","","","","","","","6","emo-engage","",""
"html-button-response","78","1870580","0.0-7.0-2.0-5.0-0.3","01d92d17ed0ea9d99d2bac6381808c7ee69318be66dd3daf29c6bf4568786f8d","swim","swim","922","","E8","5","","","","arctic-engagement","","","","","","","","","","","","","","6","enjoyment","",""
"html-button-response","79","1871737","0.0-7.0-2.0-5.0-0.4","01d92d17ed0ea9d99d2bac6381808c7ee69318be66dd3daf29c6bf4568786f8d","swim","swim","906","","A3","5","","","","arctic-engagement","","","","","","","","","","","","","","6","absorption","",""
"html-button-response","80","1873369","0.0-7.0-2.0-5.0-0.5","01d92d17ed0ea9d99d2bac6381808c7ee69318be66dd3daf29c6bf4568786f8d","swim","swim","1381","","E1","5","","","","arctic-engagement","","","","","","","","","","","","","","6","enjoyment","",""
"html-button-response","81","1874980","0.0-7.0-2.0-5.0-0.6","01d92d17ed0ea9d99d2bac6381808c7ee69318be66dd3daf29c6bf4568786f8d","swim","swim","1360","","EE3","4","","","","arctic-engagement","","","","","","","","","","","","","","5","emo-engage","",""
"html-button-response","82","1876513","0.0-7.0-2.0-5.0-0.7","01d92d17ed0ea9d99d2bac6381808c7ee69318be66dd3daf29c6bf4568786f8d","swim","swim","1282","","E6","5","","","","arctic-engagement","","","","","","","","","","","","","","6","enjoyment","",""
"html-button-response","83","1878489","0.0-7.0-2.0-5.0-0.8","01d92d17ed0ea9d99d2bac6381808c7ee69318be66dd3daf29c6bf4568786f8d","swim","swim","1725","","MS2","5","","","","arctic-engagement","","","","","","","","","","","","","","6","mental-sim","",""
"html-button-response","84","1880252","0.0-7.0-2.0-5.0-0.9","01d92d17ed0ea9d99d2bac6381808c7ee69318be66dd3daf29c6bf4568786f8d","swim","swim","1512","","MS3","5","","","","arctic-engagement","","","","","","","","","","","","","","6","mental-sim","",""
"html-button-response","85","1882626","0.0-7.0-2.0-5.0-0.10","01d92d17ed0ea9d99d2bac6381808c7ee69318be66dd3daf29c6bf4568786f8d","swim","swim","2123","","A5","5","","","","arctic-engagement","","","","","","","","","","","","","","6","absorption","",""
"html-button-response","86","1884973","0.0-7.0-2.0-5.0-0.11","01d92d17ed0ea9d99d2bac6381808c7ee69318be66dd3daf29c6bf4568786f8d","swim","swim","2096","","EE1","5","","","","arctic-engagement","","","","","","","","","","","","","","6","emo-engage","",""
"html-button-response","87","1887220","0.0-7.0-2.0-5.0-0.12","01d92d17ed0ea9d99d2bac6381808c7ee69318be66dd3daf29c6bf4568786f8d","swim","swim","1996","","EE2","4","","","","arctic-engagement","","","","","","","","","","","","","","5","emo-engage","",""
"html-button-response","88","1889062","0.0-7.0-2.0-5.0-0.13","01d92d17ed0ea9d99d2bac6381808c7ee69318be66dd3daf29c6bf4568786f8d","swim","swim","1591","","MS1","5","","","","arctic-engagement","","","","","","","","","","","","","","6","mental-sim","",""
"html-button-response","89","1890699","0.0-7.0-2.0-5.0-0.14","01d92d17ed0ea9d99d2bac6381808c7ee69318be66dd3daf29c6bf4568786f8d","swim","swim","1386","","A2","5","","","","arctic-engagement","","","","","","","","","","","","","","6","absorption","",""
"html-button-response","90","1892161","0.0-7.0-2.0-5.0-0.15","01d92d17ed0ea9d99d2bac6381808c7ee69318be66dd3daf29c6bf4568786f8d","swim","swim","1212","","EE4","5","","","","arctic-engagement","","","","","","","","","","","","","","6","emo-engage","",""
"html-button-response","91","1893645","0.0-7.0-2.0-5.0-0.16","01d92d17ed0ea9d99d2bac6381808c7ee69318be66dd3daf29c6bf4568786f8d","swim","swim","1233","","E10","6","","","","arctic-engagement","","","","","","","","","","","","","","7","enjoyment","",""
"html-button-response","92","1895689","0.0-7.0-2.0-5.0-0.17","01d92d17ed0ea9d99d2bac6381808c7ee69318be66dd3daf29c6bf4568786f8d","swim","swim","1793","","A1","5","","","","arctic-engagement","","","","","","","","","","","","","","6","absorption","",""
"html-button-response","93","1897951","0.0-8.0","01d92d17ed0ea9d99d2bac6381808c7ee69318be66dd3daf29c6bf4568786f8d","swim","swim","2011","","<p>Thank you for your responses.</p><p>You will now answer some demographic, hearing, and general health questions.</p>","0","","","","","","","","","","","","","","","","","","","","",""
"survey-multi-choice","94","1900218","0.0-9.0-0.0","01d92d17ed0ea9d99d2bac6381808c7ee69318be66dd3daf29c6bf4568786f8d","swim","swim","2265","","","","","","","survey","","","","","","","","","","","","","{""Q0"":""Chrome""}","","","browser",""
"survey-text","95","1902915","0.0-9.0-1.0","01d92d17ed0ea9d99d2bac6381808c7ee69318be66dd3daf29c6bf4568786f8d","swim","swim","2443.199999999255","","","","","","","survey","","","","","","","","","","","","","{""AGE"":""27""}","","","age","27"
"survey-multi-choice","96","1904724","0.0-9.0-2.0","01d92d17ed0ea9d99d2bac6381808c7ee69318be66dd3daf29c6bf4568786f8d","swim","swim","1558","","","","","","","survey","","","","","","","","","","","","","{""Q0"":""Male""}","","","gender","Male"
"survey-multi-choice","97","1906524","0.0-9.0-4.0","01d92d17ed0ea9d99d2bac6381808c7ee69318be66dd3daf29c6bf4568786f8d","swim","swim","1549","","","","","","","survey","","","","","","","","","","","","","{""Q0"":""Right""}","","","handedness","Right"
"survey-multi-choice","98","1908519","0.0-9.0-5.0","01d92d17ed0ea9d99d2bac6381808c7ee69318be66dd3daf29c6bf4568786f8d","swim","swim","1743","","","","","","","survey","","","","","","","","","","","","","{""Q0"":""High school""}","","","education","High school"
"survey-text","99","1911903","0.0-10.0-0.0","01d92d17ed0ea9d99d2bac6381808c7ee69318be66dd3daf29c6bf4568786f8d","swim","swim","3132.5","","","","","","","survey","","","","","","","","","","","","","{""L1"":""English""}","","","first-language","English"
"survey-text","100","1916122","0.0-10.0-1.0","01d92d17ed0ea9d99d2bac6381808c7ee69318be66dd3daf29c6bf4568786f8d","swim","swim","3965.89999999851","","","","","","","survey","","","","","","","","","","","","","{""L2name"":"""",""L2fluency"":"""",""L3name"":"""",""L3fluency"":"""",""L4name"":"""",""L4fluency"":""""}","","","additional-languages","{""L2name"":"""",""L2fluency"":"""",""L3name"":"""",""L3fluency"":"""",""L4name"":"""",""L4fluency"":""""}"
"survey-multi-choice","101","1918566","0.0-10.0-2.0","01d92d17ed0ea9d99d2bac6381808c7ee69318be66dd3daf29c6bf4568786f8d","swim","swim","2192","","","","","","","survey","","","","","","","","","","","","","{""Q0"":""No""}","","","hearing-aid","No"
"survey-multi-choice","102","1921556","0.0-10.0-3.0","01d92d17ed0ea9d99d2bac6381808c7ee69318be66dd3daf29c6bf4568786f8d","swim","swim","2739","","","","","","","survey","","","","","","","","","","","","","{""Q0"":""Sometimes""}","","","ringing-ears","Sometimes"
"survey-multi-choice","103","1923651","0.0-10.0-4.0-0.0","01d92d17ed0ea9d99d2bac6381808c7ee69318be66dd3daf29c6bf4568786f8d","swim","swim","1844","","","","","","","survey","","","","","","","","","","","","","{""Q0"":""Both Ears""}","","","ringing-ear-loc","Both Ears"
"survey-multi-choice","104","1925638","0.0-10.0-5.0","01d92d17ed0ea9d99d2bac6381808c7ee69318be66dd3daf29c6bf4568786f8d","swim","swim","1736","","","","","","","survey","","","","","","","","","","","","","{""Q0"":""No""}","","","neuro-disease","No"
"survey-multi-choice","105","1928289","0.0-10.0-7.0","01d92d17ed0ea9d99d2bac6381808c7ee69318be66dd3daf29c6bf4568786f8d","swim","swim","2400","","","","","","","survey","","","","","","","","","","","","","{""Q0"":""No""}","","","take-meds","No"
"survey-text","106","1930343","0.0-10.0-9.0","01d92d17ed0ea9d99d2bac6381808c7ee69318be66dd3daf29c6bf4568786f8d","swim","swim","1798.8999999985099","","","","","","","survey","","","","","","","","","","","","","{""HC"":""""}","","","health-concerns",""
"html-button-response","107","1932467","0.0-11.0-0.0","01d92d17ed0ea9d99d2bac6381808c7ee69318be66dd3daf29c6bf4568786f8d","swim","swim","1873","","<p>How would you describe your musical skills/experiences?</p>","1","","","","survey","","","","","","","","","","","","","","","","music-skill","2"
"survey-multi-choice","108","1934156","0.0-11.0-1.0","01d92d17ed0ea9d99d2bac6381808c7ee69318be66dd3daf29c6bf4568786f8d","swim","swim","1438","","","","","","","survey","","","","","","","","","","","","","{""Q0"":""No""}","","","music-instrument","No"
"html-button-response","109","1936160","0.0-12.0-0.0","01d92d17ed0ea9d99d2bac6381808c7ee69318be66dd3daf29c6bf4568786f8d","swim","swim","1754","","<p>How would you describe your general hearing abilities?</p>","4","","","","survey","","","","","","","","","","","","","","","","ssq-01","5"
"html-button-response","110","1939273","0.0-12.0-1.0","01d92d17ed0ea9d99d2bac6381808c7ee69318be66dd3daf29c6bf4568786f8d","swim","swim","2861","","<p>When you talk with someone at a place that strongly reverberates/echoes (e.g., in a church or train station),</br>can you understand what the person says?</p>","7","","","","survey","","","","","","","","","","","","","","","","ssq-02","7"
"html-button-response","111","1941349","0.0-12.0-2.0","01d92d17ed0ea9d99d2bac6381808c7ee69318be66dd3daf29c6bf4568786f8d","swim","swim","1825","","<p>When you are with a group (~5 people) in a lively restaurant, can you follow the group's conversation?</p>","8","","","","survey","","","","","","","","","","","","","","","","ssq-03","8"
"html-button-response","112","1943710","0.0-12.0-3.0","01d92d17ed0ea9d99d2bac6381808c7ee69318be66dd3daf29c6bf4568786f8d","swim","swim","2109","","<p>Based on the sound of a bus or truck, can you tell whether it is moving towards or away from you?</p>","8","","","","survey","","","","","","","","","","","","","","","","ssq-04","8"
"html-button-response","113","1946899","0.0-12.0-4.0","01d92d17ed0ea9d99d2bac6381808c7ee69318be66dd3daf29c6bf4568786f8d","swim","swim","2939","","<p>When you are in an unknown environment, can you tell from which direction a brief sound originates?</p>","9","","","","survey","","","","","","","","","","","","","","","","ssq-05","9"
"html-button-response","114","1950812","0.0-12.0-5.0","01d92d17ed0ea9d99d2bac6381808c7ee69318be66dd3daf29c6bf4568786f8d","swim","swim","3662","","<p>Are you able to ignore distracting sounds when you concentrate on a specific aspect of your acoustic surrounding?</p>","3","","","","survey","","","","","","","","","","","","","","","","ssq-06","3"
"fullscreen","115","1952063","0.0-13.0","01d92d17ed0ea9d99d2bac6381808c7ee69318be66dd3daf29c6bf4568786f8d","swim","swim","","","","","","","","","true","","","","","","","","","","","","","","","",""
