"trial_type","trial_index","time_elapsed","internal_node_id","ParticipantID","firstStory","scramStory","rt","url","stimulus","button_pressed","key_press","correctRESP","correct","designation","success","letterStim","letterType","ONSET","TIMEOUT","CONDITION","Participant","ONSET_ACTUAL","RT","RESP","ACC","STORY","responses","response","type","surveyQuestion","QRESP"
"pavlovia","0","6","0.0-0.0","cbf4bf78c6c77c8ec9ed5379ebd736000169aec8ac9b5a1606cd209266ff9a09","arctic","swim","","","","","","","","","","","","","","","","","","","","","","","","",""
"external-html","1","34447","0.0-1.0","cbf4bf78c6c77c8ec9ed5379ebd736000169aec8ac9b5a1606cd209266ff9a09","arctic","swim","34373","consent/consent_updated.html","","","","","","","","","","","","","","","","","","","","","","",""
"html-button-response","2","1024027","0.0-2.0-0.0","cbf4bf78c6c77c8ec9ed5379ebd736000169aec8ac9b5a1606cd209266ff9a09","arctic","swim","989580","","<p>Before we begin the main task, you will complete a short volume calibration and headphone check.</p><p>Please make sure you are in a quiet listening environment, that you are wearing headphones, and that your computer's volume is turned on.<p></p>","0","","","","","","","","","","","","","","","","","","","","",""
"html-button-response","3","1025717","0.0-2.0-1.0","cbf4bf78c6c77c8ec9ed5379ebd736000169aec8ac9b5a1606cd209266ff9a09","arctic","swim","1434","","<p>The volume calibration will be first.</p><p>You will hear a thirty-second noise. Please adjust your computer's volume so that this noise is being presented at a comfortable level.<p></p>","0","","","","","","","","","","","","","","","","","","","","",""
"audio-button-response","4","1040139","0.0-2.0-2.0","cbf4bf78c6c77c8ec9ed5379ebd736000169aec8ac9b5a1606cd209266ff9a09","arctic","swim","14164","","audio/volumetest.mp3","0","","","","","","","","","","","","","","","","","","","","",""
"html-keyboard-response","5","1044594","0.0-3.0-0.0","cbf4bf78c6c77c8ec9ed5379ebd736000169aec8ac9b5a1606cd209266ff9a09","arctic","swim","4453","","<p>You will now complete a short headphone check.</p><p>On each trial, you will hear three tones. One of these tones will be quieter than the others. Your task is to identify whether the quiet tone occurred first, second, or third.</p><p>There are six trials in total.<p></p><p></p>(Press SPACEBAR to begin)","","32","","","","","","","","","","","","","","","","","","","",""
"html-keyboard-response","6","1045362","0.0-3.0-1.0-0.0","cbf4bf78c6c77c8ec9ed5379ebd736000169aec8ac9b5a1606cd209266ff9a09","arctic","swim","null","","<div style=""font-size:60px;"">+</div>","","null","","","","","","","","","","","","","","","","","","","",""
"audio-button-response","7","1050453","0.0-3.0-1.0-1.0","cbf4bf78c6c77c8ec9ed5379ebd736000169aec8ac9b5a1606cd209266ff9a09","arctic","swim","5085","","audio/t1_1.mp3","0","","0","1","headphone-test","","","","","","","","","","","","","","","","",""
"html-keyboard-response","8","1050954","0.0-3.0-1.0-2.0","cbf4bf78c6c77c8ec9ed5379ebd736000169aec8ac9b5a1606cd209266ff9a09","arctic","swim","null","","<p>Correct</p>","","null","","","","","","","","","","","","","","","","","","","",""
"html-keyboard-response","9","1051461","0.0-3.0-1.0-0.1","cbf4bf78c6c77c8ec9ed5379ebd736000169aec8ac9b5a1606cd209266ff9a09","arctic","swim","null","","<div style=""font-size:60px;"">+</div>","","null","","","","","","","","","","","","","","","","","","","",""
"audio-button-response","10","1056027","0.0-3.0-1.0-1.1","cbf4bf78c6c77c8ec9ed5379ebd736000169aec8ac9b5a1606cd209266ff9a09","arctic","swim","4564","","audio/t2_1.mp3","1","","1","1","headphone-test","","","","","","","","","","","","","","","","",""
"html-keyboard-response","11","1056531","0.0-3.0-1.0-2.1","cbf4bf78c6c77c8ec9ed5379ebd736000169aec8ac9b5a1606cd209266ff9a09","arctic","swim","null","","<p>Correct</p>","","null","","","","","","","","","","","","","","","","","","","",""
"html-keyboard-response","12","1057040","0.0-3.0-1.0-0.2","cbf4bf78c6c77c8ec9ed5379ebd736000169aec8ac9b5a1606cd209266ff9a09","arctic","swim","null","","<div style=""font-size:60px;"">+</div>","","null","","","","","","","","","","","","","","","","","","","",""
"audio-button-response","13","1061579","0.0-3.0-1.0-1.2","cbf4bf78c6c77c8ec9ed5379ebd736000169aec8ac9b5a1606cd209266ff9a09","arctic","swim","4536","","audio/t3_1.mp3","2","","2","1","headphone-test","","","","","","","","","","","","","","","","",""
"html-keyboard-response","14","1062081","0.0-3.0-1.0-2.2","cbf4bf78c6c77c8ec9ed5379ebd736000169aec8ac9b5a1606cd209266ff9a09","arctic","swim","null","","<p>Correct</p>","","null","","","","","","","","","","","","","","","","","","","",""
"html-keyboard-response","15","1062600","0.0-3.0-1.0-0.3","cbf4bf78c6c77c8ec9ed5379ebd736000169aec8ac9b5a1606cd209266ff9a09","arctic","swim","null","","<div style=""font-size:60px;"">+</div>","","null","","","","","","","","","","","","","","","","","","","",""
"audio-button-response","16","1070267","0.0-3.0-1.0-1.3","cbf4bf78c6c77c8ec9ed5379ebd736000169aec8ac9b5a1606cd209266ff9a09","arctic","swim","7666","","audio/t1_2.mp3","2","","0","0","headphone-test","","","","","","","","","","","","","","","","",""
"html-keyboard-response","17","1070772","0.0-3.0-1.0-2.3","cbf4bf78c6c77c8ec9ed5379ebd736000169aec8ac9b5a1606cd209266ff9a09","arctic","swim","null","","<p>Incorrect</p>","","null","","","","","","","","","","","","","","","","","","","",""
"html-keyboard-response","18","1071281","0.0-3.0-1.0-0.4","cbf4bf78c6c77c8ec9ed5379ebd736000169aec8ac9b5a1606cd209266ff9a09","arctic","swim","null","","<div style=""font-size:60px;"">+</div>","","null","","","","","","","","","","","","","","","","","","","",""
"audio-button-response","19","1075737","0.0-3.0-1.0-1.4","cbf4bf78c6c77c8ec9ed5379ebd736000169aec8ac9b5a1606cd209266ff9a09","arctic","swim","4454","","audio/t3_2.mp3","2","","2","1","headphone-test","","","","","","","","","","","","","","","","",""
"html-keyboard-response","20","1076241","0.0-3.0-1.0-2.4","cbf4bf78c6c77c8ec9ed5379ebd736000169aec8ac9b5a1606cd209266ff9a09","arctic","swim","null","","<p>Correct</p>","","null","","","","","","","","","","","","","","","","","","","",""
"html-keyboard-response","21","1076760","0.0-3.0-1.0-0.5","cbf4bf78c6c77c8ec9ed5379ebd736000169aec8ac9b5a1606cd209266ff9a09","arctic","swim","null","","<div style=""font-size:60px;"">+</div>","","null","","","","","","","","","","","","","","","","","","","",""
"audio-button-response","22","1081277","0.0-3.0-1.0-1.5","cbf4bf78c6c77c8ec9ed5379ebd736000169aec8ac9b5a1606cd209266ff9a09","arctic","swim","4513","","audio/t2_2.mp3","1","","1","1","headphone-test","","","","","","","","","","","","","","","","",""
"html-keyboard-response","23","1081780","0.0-3.0-1.0-2.5","cbf4bf78c6c77c8ec9ed5379ebd736000169aec8ac9b5a1606cd209266ff9a09","arctic","swim","null","","<p>Correct</p>","","null","","","","","","","","","","","","","","","","","","","",""
"fullscreen","24","1084810","0.0-4.0","cbf4bf78c6c77c8ec9ed5379ebd736000169aec8ac9b5a1606cd209266ff9a09","arctic","swim","","","","","","","","","true","","","","","","","","","","","","","","","",""
"html-button-response","25","1087534","0.0-5.0-0.0","cbf4bf78c6c77c8ec9ed5379ebd736000169aec8ac9b5a1606cd209266ff9a09","arctic","swim","2724","","<p>There are two blocks to this experiment.</p><p>In each block, you will hear a ~13.5 minute story. One of the stories will be scrambled. Please listen carefully to both stories and understand them as best you can.</p><p>After each story, you will be asked some questions to assess your comprehension.</p>","0","","","","","","","","","","","","","","","","","","","","",""
"html-button-response","26","1109201","0.0-5.0-1.0","cbf4bf78c6c77c8ec9ed5379ebd736000169aec8ac9b5a1606cd209266ff9a09","arctic","swim","21665","","<p>During each story, there will be an additional task.</p><p>A letter will occasionally appear on the screen.</br>Your job is to - as quickly as you can - decide whether the letter is lowercase or uppercase and press one of two keys on the keyboard:</p><p>If the letter is <b>lowercase</b>, press key &lt;<b>x</b>&gt;.</p><p>If the letter is <b>uppercase</b>, press key &lt;<b>m</b>&gt;.</p>","0","","","","","","","","","","","","","","","","","","","","",""
"html-keyboard-response","27","1118659","0.0-5.0-2.0","cbf4bf78c6c77c8ec9ed5379ebd736000169aec8ac9b5a1606cd209266ff9a09","arctic","swim","9457","","<p>Because we want your responses to be as quick as possible, please keep your index fingers over the keys while listening.</p><p>Each block lasts about 20 minutes.</p><p><b>Press &lt;x&gt; or &lt;m&gt; to start the first block!</b></p>","","88","","","","","","","","","","","","","","","","","","","",""
"html-keyboard-response","28","1119161","0.0-6.0-0.0-0.0","cbf4bf78c6c77c8ec9ed5379ebd736000169aec8ac9b5a1606cd209266ff9a09","arctic","swim","null","","<div style=""font-size:60px;"" tabindex=""0"">+</div>","","null","","","","","","","","","","","","","","","","","","","",""
"dual-task","null","null","null","","arctic","swim","469","","N","null","77","77","1","arctic-dual-task","","N","uppercase","14000","0","3","cbf4bf78c6c77c8ec9ed5379ebd736000169aec8ac9b5a1606cd209266ff9a09","14010.600000023842","469","77","1","arctic","","","","",""
"dual-task","null","null","null","","arctic","swim","626.0999999642372","","B","null","77","77","1","arctic-dual-task","","B","uppercase","28000","0","3","cbf4bf78c6c77c8ec9ed5379ebd736000169aec8ac9b5a1606cd209266ff9a09","28000.100000023842","626.0999999642372","77","1","arctic","","","","",""
"dual-task","null","null","null","","arctic","swim","670.3000000119209","","T","null","77","77","1","arctic-dual-task","","T","uppercase","38000","0","3","cbf4bf78c6c77c8ec9ed5379ebd736000169aec8ac9b5a1606cd209266ff9a09","38009.90000003576","670.3000000119209","77","1","arctic","","","","",""
"dual-task","null","null","null","","arctic","swim","506.4000000357628","","D","null","77","77","1","arctic-dual-task","","D","uppercase","50000","0","3","cbf4bf78c6c77c8ec9ed5379ebd736000169aec8ac9b5a1606cd209266ff9a09","49999.60000002384","506.4000000357628","77","1","arctic","","","","",""
"dual-task","null","null","null","","arctic","swim","733.1999999880791","","D","null","77","77","1","arctic-dual-task","","D","uppercase","58000","0","3","cbf4bf78c6c77c8ec9ed5379ebd736000169aec8ac9b5a1606cd209266ff9a09","58000.5","733.1999999880791","77","1","arctic","","","","",""
"dual-task","null","null","null","","arctic","swim","669.6999999880791","","n","null","88","88","1","arctic-dual-task","","n","lowercase","70000","0","3","cbf4bf78c6c77c8ec9ed5379ebd736000169aec8ac9b5a1606cd209266ff9a09","70010","669.6999999880791","88","1","arctic","","","","",""
"dual-task","null","null","null","","arctic","swim","756.0999999642372","","A","null","77","77","1","arctic-dual-task","","A","uppercase","84000","0","3","cbf4bf78c6c77c8ec9ed5379ebd736000169aec8ac9b5a1606cd209266ff9a09","84010.5","756.0999999642372","77","1","arctic","","","","",""
"dual-task","null","null","null","","arctic","swim","685.6000000238419","","b","null","88","88","1","arctic-dual-task","","b","lowercase","98000","0","3","cbf4bf78c6c77c8ec9ed5379ebd736000169aec8ac9b5a1606cd209266ff9a09","98009.80000001192","685.6000000238419","88","1","arctic","","","","",""
"dual-task","null","null","null","","arctic","swim","1074.7999999523163","","n","null","88","88","1","arctic-dual-task","","n","lowercase","112000","0","3","cbf4bf78c6c77c8ec9ed5379ebd736000169aec8ac9b5a1606cd209266ff9a09","112020","1074.7999999523163","88","1","arctic","","","","",""
"dual-task","null","null","null","","arctic","swim","650.8000000119209","","n","null","88","88","1","arctic-dual-task","","n","lowercase","120000","0","3","cbf4bf78c6c77c8ec9ed5379ebd736000169aec8ac9b5a1606cd209266ff9a09","120000.40000003576","650.8000000119209","88","1","arctic","","","","",""
"dual-task","null","null","null","","arctic","swim","707.3000000119209","","d","null","88","88","1","arctic-dual-task","","d","lowercase","132000","0","3","cbf4bf78c6c77c8ec9ed5379ebd736000169aec8ac9b5a1606cd209266ff9a09","132000","707.3000000119209","88","1","arctic","","","","",""
"dual-task","null","null","null","","arctic","swim","590.0999999642372","","F","null","77","77","1","arctic-dual-task","","F","uppercase","146000","0","3","cbf4bf78c6c77c8ec9ed5379ebd736000169aec8ac9b5a1606cd209266ff9a09","146010.90000003576","590.0999999642372","77","1","arctic","","","","",""
"dual-task","null","null","null","","arctic","swim","833","","D","null","77","77","1","arctic-dual-task","","D","uppercase","154000","0","3","cbf4bf78c6c77c8ec9ed5379ebd736000169aec8ac9b5a1606cd209266ff9a09","154010","833","77","1","arctic","","","","",""
"dual-task","null","null","null","","arctic","swim","765.3000000119209","","N","null","77","77","1","arctic-dual-task","","N","uppercase","164000","0","3","cbf4bf78c6c77c8ec9ed5379ebd736000169aec8ac9b5a1606cd209266ff9a09","164009.69999998808","765.3000000119209","77","1","arctic","","","","",""
"dual-task","null","null","null","","arctic","swim","630.1999999880791","","t","null","88","88","1","arctic-dual-task","","t","lowercase","178000","0","3","cbf4bf78c6c77c8ec9ed5379ebd736000169aec8ac9b5a1606cd209266ff9a09","178010.10000002384","630.1999999880791","88","1","arctic","","","","",""
"dual-task","null","null","null","","arctic","swim","576.1999999880791","","H","null","77","77","1","arctic-dual-task","","H","uppercase","186000","0","3","cbf4bf78c6c77c8ec9ed5379ebd736000169aec8ac9b5a1606cd209266ff9a09","186009.90000003576","576.1999999880791","77","1","arctic","","","","",""
"dual-task","null","null","null","","arctic","swim","524.6999999880791","","h","null","88","88","1","arctic-dual-task","","h","lowercase","200000","0","3","cbf4bf78c6c77c8ec9ed5379ebd736000169aec8ac9b5a1606cd209266ff9a09","200010.30000001192","524.6999999880791","88","1","arctic","","","","",""
"dual-task","null","null","null","","arctic","swim","597.6999999880791","","f","null","88","88","1","arctic-dual-task","","f","lowercase","212000","0","3","cbf4bf78c6c77c8ec9ed5379ebd736000169aec8ac9b5a1606cd209266ff9a09","212009.80000001192","597.6999999880791","88","1","arctic","","","","",""
"dual-task","null","null","null","","arctic","swim","523.1999999880791","","G","null","77","77","1","arctic-dual-task","","G","uppercase","220000","0","3","cbf4bf78c6c77c8ec9ed5379ebd736000169aec8ac9b5a1606cd209266ff9a09","220009.80000001192","523.1999999880791","77","1","arctic","","","","",""
"dual-task","null","null","null","","arctic","swim","873.3000000119209","","H","null","77","77","1","arctic-dual-task","","H","uppercase","234000","0","3","cbf4bf78c6c77c8ec9ed5379ebd736000169aec8ac9b5a1606cd209266ff9a09","234000.60000002384","873.3000000119209","77","1","arctic","","","","",""
"dual-task","null","null","null","","arctic","swim","741.1999999880791","","A","null","77","77","1","arctic-dual-task","","A","uppercase","246000","0","3","cbf4bf78c6c77c8ec9ed5379ebd736000169aec8ac9b5a1606cd209266ff9a09","246010.40000003576","741.1999999880791","77","1","arctic","","","","",""
"dual-task","null","null","null","","arctic","swim","632.3000000119209","","r","null","88","88","1","arctic-dual-task","","r","lowercase","256000","0","3","cbf4bf78c6c77c8ec9ed5379ebd736000169aec8ac9b5a1606cd209266ff9a09","256005.19999998808","632.3000000119209","88","1","arctic","","","","",""
"dual-task","null","null","null","","arctic","swim","589.6000000238419","","q","null","88","88","1","arctic-dual-task","","q","lowercase","264000","0","3","cbf4bf78c6c77c8ec9ed5379ebd736000169aec8ac9b5a1606cd209266ff9a09","264000.10000002384","589.6000000238419","88","1","arctic","","","","",""
"dual-task","null","null","null","","arctic","swim","1016","","t","null","88","88","1","arctic-dual-task","","t","lowercase","274000","0","3","cbf4bf78c6c77c8ec9ed5379ebd736000169aec8ac9b5a1606cd209266ff9a09","274019.90000003576","1016","88","1","arctic","","","","",""
"dual-task","null","null","null","","arctic","swim","738.3000000119209","","A","null","77","77","1","arctic-dual-task","","A","uppercase","286000","0","3","cbf4bf78c6c77c8ec9ed5379ebd736000169aec8ac9b5a1606cd209266ff9a09","286009.90000003576","738.3000000119209","77","1","arctic","","","","",""
"dual-task","null","null","null","","arctic","swim","587.5999999642372","","b","null","88","88","1","arctic-dual-task","","b","lowercase","296000","0","3","cbf4bf78c6c77c8ec9ed5379ebd736000169aec8ac9b5a1606cd209266ff9a09","296010","587.5999999642372","88","1","arctic","","","","",""
"dual-task","null","null","null","","arctic","swim","534.7999999523163","","R","null","77","77","1","arctic-dual-task","","R","uppercase","306000","0","3","cbf4bf78c6c77c8ec9ed5379ebd736000169aec8ac9b5a1606cd209266ff9a09","306000.40000003576","534.7999999523163","77","1","arctic","","","","",""
"dual-task","null","null","null","","arctic","swim","752.5","","H","null","77","77","1","arctic-dual-task","","H","uppercase","314000","0","3","cbf4bf78c6c77c8ec9ed5379ebd736000169aec8ac9b5a1606cd209266ff9a09","314010","752.5","77","1","arctic","","","","",""
"dual-task","null","null","null","","arctic","swim","1530.1000000238419","","h","null","88","88","1","arctic-dual-task","","h","lowercase","326000","0","3","cbf4bf78c6c77c8ec9ed5379ebd736000169aec8ac9b5a1606cd209266ff9a09","326000.8000000119","1530.1000000238419","88","1","arctic","","","","",""
"dual-task","null","null","null","","arctic","swim","708.6999999880791","","r","null","88","88","1","arctic-dual-task","","r","lowercase","334000","0","3","cbf4bf78c6c77c8ec9ed5379ebd736000169aec8ac9b5a1606cd209266ff9a09","334007.5","708.6999999880791","88","1","arctic","","","","",""
"dual-task","null","null","null","","arctic","swim","541.8999999761581","","A","null","77","77","1","arctic-dual-task","","A","uppercase","346000","0","3","cbf4bf78c6c77c8ec9ed5379ebd736000169aec8ac9b5a1606cd209266ff9a09","346010.10000002384","541.8999999761581","77","1","arctic","","","","",""
"dual-task","null","null","null","","arctic","swim","591.6999999880791","","t","null","88","88","1","arctic-dual-task","","t","lowercase","356000","0","3","cbf4bf78c6c77c8ec9ed5379ebd736000169aec8ac9b5a1606cd209266ff9a09","356000.3000000119","591.6999999880791","88","1","arctic","","","","",""
"dual-task","null","null","null","","arctic","swim","703.8999999761581","","a","null","88","88","1","arctic-dual-task","","a","lowercase","366000","0","3","cbf4bf78c6c77c8ec9ed5379ebd736000169aec8ac9b5a1606cd209266ff9a09","366000.8000000119","703.8999999761581","88","1","arctic","","","","",""
"dual-task","null","null","null","","arctic","swim","651.3999999761581","","g","null","88","88","1","arctic-dual-task","","g","lowercase","376000","0","3","cbf4bf78c6c77c8ec9ed5379ebd736000169aec8ac9b5a1606cd209266ff9a09","376000.3000000119","651.3999999761581","88","1","arctic","","","","",""
"dual-task","null","null","null","","arctic","swim","703.5","","Q","null","77","77","1","arctic-dual-task","","Q","uppercase","386000","0","3","cbf4bf78c6c77c8ec9ed5379ebd736000169aec8ac9b5a1606cd209266ff9a09","386000.40000003576","703.5","77","1","arctic","","","","",""
"dual-task","null","null","null","","arctic","swim","561.8000000119209","","g","null","88","88","1","arctic-dual-task","","g","lowercase","398000","0","3","cbf4bf78c6c77c8ec9ed5379ebd736000169aec8ac9b5a1606cd209266ff9a09","398010.5","561.8000000119209","88","1","arctic","","","","",""
"dual-task","null","null","null","","arctic","swim","618.8000000119209","","d","null","88","88","1","arctic-dual-task","","d","lowercase","404000","0","3","cbf4bf78c6c77c8ec9ed5379ebd736000169aec8ac9b5a1606cd209266ff9a09","404010.60000002384","618.8000000119209","88","1","arctic","","","","",""
"dual-task","null","null","null","","arctic","swim","573.8000000119209","","a","null","88","88","1","arctic-dual-task","","a","lowercase","418000","0","3","cbf4bf78c6c77c8ec9ed5379ebd736000169aec8ac9b5a1606cd209266ff9a09","418000.60000002384","573.8000000119209","88","1","arctic","","","","",""
"dual-task","null","null","null","","arctic","swim","908.6999999880791","","T","null","77","77","1","arctic-dual-task","","T","uppercase","424000","0","3","cbf4bf78c6c77c8ec9ed5379ebd736000169aec8ac9b5a1606cd209266ff9a09","424010.5","908.6999999880791","77","1","arctic","","","","",""
"dual-task","null","null","null","","arctic","swim","623.6999999880791","","T","null","77","77","1","arctic-dual-task","","T","uppercase","436000","0","3","cbf4bf78c6c77c8ec9ed5379ebd736000169aec8ac9b5a1606cd209266ff9a09","436000.8000000119","623.6999999880791","77","1","arctic","","","","",""
"dual-task","null","null","null","","arctic","swim","645.5","","a","null","88","88","1","arctic-dual-task","","a","lowercase","446000","0","3","cbf4bf78c6c77c8ec9ed5379ebd736000169aec8ac9b5a1606cd209266ff9a09","446005.8000000119","645.5","88","1","arctic","","","","",""
"dual-task","null","null","null","","arctic","swim","738.1999999880791","","G","null","77","77","1","arctic-dual-task","","G","uppercase","452000","0","3","cbf4bf78c6c77c8ec9ed5379ebd736000169aec8ac9b5a1606cd209266ff9a09","452010.5","738.1999999880791","77","1","arctic","","","","",""
"dual-task","null","null","null","","arctic","swim","684.5","","e","null","88","88","1","arctic-dual-task","","e","lowercase","460000","0","3","cbf4bf78c6c77c8ec9ed5379ebd736000169aec8ac9b5a1606cd209266ff9a09","460010.40000003576","684.5","88","1","arctic","","","","",""
"dual-task","null","null","null","","arctic","swim","589.8000000119209","","g","null","88","88","1","arctic-dual-task","","g","lowercase","468000","0","3","cbf4bf78c6c77c8ec9ed5379ebd736000169aec8ac9b5a1606cd209266ff9a09","468015.5","589.8000000119209","88","1","arctic","","","","",""
"dual-task","null","null","null","","arctic","swim","542.2999999523163","","F","null","77","77","1","arctic-dual-task","","F","uppercase","474000","0","3","cbf4bf78c6c77c8ec9ed5379ebd736000169aec8ac9b5a1606cd209266ff9a09","474001.8000000119","542.2999999523163","77","1","arctic","","","","",""
"dual-task","null","null","null","","arctic","swim","560.3000000119209","","Q","null","77","77","1","arctic-dual-task","","Q","uppercase","484000","0","3","cbf4bf78c6c77c8ec9ed5379ebd736000169aec8ac9b5a1606cd209266ff9a09","484010","560.3000000119209","77","1","arctic","","","","",""
"dual-task","null","null","null","","arctic","swim","584.6000000238419","","e","null","88","88","1","arctic-dual-task","","e","lowercase","498000","0","3","cbf4bf78c6c77c8ec9ed5379ebd736000169aec8ac9b5a1606cd209266ff9a09","498000.6999999881","584.6000000238419","88","1","arctic","","","","",""
"dual-task","null","null","null","","arctic","swim","714.3000000119209","","n","null","88","88","1","arctic-dual-task","","n","lowercase","504000","0","3","cbf4bf78c6c77c8ec9ed5379ebd736000169aec8ac9b5a1606cd209266ff9a09","504000.60000002384","714.3000000119209","88","1","arctic","","","","",""
"dual-task","null","null","null","","arctic","swim","671.5","","B","null","77","77","1","arctic-dual-task","","B","uppercase","512000","0","3","cbf4bf78c6c77c8ec9ed5379ebd736000169aec8ac9b5a1606cd209266ff9a09","512010.3000000119","671.5","77","1","arctic","","","","",""
"dual-task","null","null","null","","arctic","swim","669.9000000357628","","d","null","88","88","1","arctic-dual-task","","d","lowercase","518000","0","3","cbf4bf78c6c77c8ec9ed5379ebd736000169aec8ac9b5a1606cd209266ff9a09","518010.40000003576","669.9000000357628","88","1","arctic","","","","",""
"dual-task","null","null","null","","arctic","swim","540.3000000119209","","Q","null","77","77","1","arctic-dual-task","","Q","uppercase","528000","0","3","cbf4bf78c6c77c8ec9ed5379ebd736000169aec8ac9b5a1606cd209266ff9a09","528010.1999999881","540.3000000119209","77","1","arctic","","","","",""
"dual-task","null","null","null","","arctic","swim","624.7000000476837","","F","null","77","77","1","arctic-dual-task","","F","uppercase","536000","0","3","cbf4bf78c6c77c8ec9ed5379ebd736000169aec8ac9b5a1606cd209266ff9a09","536010.8000000119","624.7000000476837","77","1","arctic","","","","",""
"dual-task","null","null","null","","arctic","swim","535.7999999523163","","B","null","77","77","1","arctic-dual-task","","B","uppercase","548000","0","3","cbf4bf78c6c77c8ec9ed5379ebd736000169aec8ac9b5a1606cd209266ff9a09","548001.1000000238","535.7999999523163","77","1","arctic","","","","",""
"dual-task","null","null","null","","arctic","swim","666.7999999523163","","F","null","77","77","1","arctic-dual-task","","F","uppercase","556000","0","3","cbf4bf78c6c77c8ec9ed5379ebd736000169aec8ac9b5a1606cd209266ff9a09","556010.6000000238","666.7999999523163","77","1","arctic","","","","",""
"dual-task","null","null","null","","arctic","swim","1099.199999988079","","B","null","77","77","1","arctic-dual-task","","B","uppercase","568000","0","3","cbf4bf78c6c77c8ec9ed5379ebd736000169aec8ac9b5a1606cd209266ff9a09","568007.6000000238","1099.199999988079","77","1","arctic","","","","",""
"dual-task","null","null","null","","arctic","swim","531.5","","b","null","88","88","1","arctic-dual-task","","b","lowercase","576000","0","3","cbf4bf78c6c77c8ec9ed5379ebd736000169aec8ac9b5a1606cd209266ff9a09","576001","531.5","88","1","arctic","","","","",""
"dual-task","null","null","null","","arctic","swim","1198.1000000238419","","r","null","88","88","1","arctic-dual-task","","r","lowercase","584000","0","3","cbf4bf78c6c77c8ec9ed5379ebd736000169aec8ac9b5a1606cd209266ff9a09","584010.3000000119","1198.1000000238419","88","1","arctic","","","","",""
"dual-task","null","null","null","","arctic","swim","584.3999999761581","","b","null","88","88","1","arctic-dual-task","","b","lowercase","592000","0","3","cbf4bf78c6c77c8ec9ed5379ebd736000169aec8ac9b5a1606cd209266ff9a09","592010.6000000238","584.3999999761581","88","1","arctic","","","","",""
"dual-task","null","null","null","","arctic","swim","587.5999999642372","","h","null","88","88","1","arctic-dual-task","","h","lowercase","600000","0","3","cbf4bf78c6c77c8ec9ed5379ebd736000169aec8ac9b5a1606cd209266ff9a09","600016.1999999881","587.5999999642372","88","1","arctic","","","","",""
"dual-task","null","null","null","","arctic","swim","545.5","","N","null","77","77","1","arctic-dual-task","","N","uppercase","614000","0","3","cbf4bf78c6c77c8ec9ed5379ebd736000169aec8ac9b5a1606cd209266ff9a09","614010.4000000358","545.5","77","1","arctic","","","","",""
"dual-task","null","null","null","","arctic","swim","926","","R","null","77","77","1","arctic-dual-task","","R","uppercase","622000","0","3","cbf4bf78c6c77c8ec9ed5379ebd736000169aec8ac9b5a1606cd209266ff9a09","622000.4000000358","926","77","1","arctic","","","","",""
"dual-task","null","null","null","","arctic","swim","645","","f","null","88","88","1","arctic-dual-task","","f","lowercase","628000","0","3","cbf4bf78c6c77c8ec9ed5379ebd736000169aec8ac9b5a1606cd209266ff9a09","628010.1999999881","645","88","1","arctic","","","","",""
"dual-task","null","null","null","","arctic","swim","620.8999999761581","","r","null","88","88","1","arctic-dual-task","","r","lowercase","636000","0","3","cbf4bf78c6c77c8ec9ed5379ebd736000169aec8ac9b5a1606cd209266ff9a09","636021","620.8999999761581","88","1","arctic","","","","",""
"dual-task","null","null","null","","arctic","swim","483.19999998807907","","g","null","88","88","1","arctic-dual-task","","g","lowercase","642000","0","3","cbf4bf78c6c77c8ec9ed5379ebd736000169aec8ac9b5a1606cd209266ff9a09","642011","483.19999998807907","88","1","arctic","","","","",""
"dual-task","null","null","null","","arctic","swim","998.9000000357628","","E","null","77","77","1","arctic-dual-task","","E","uppercase","650000","0","3","cbf4bf78c6c77c8ec9ed5379ebd736000169aec8ac9b5a1606cd209266ff9a09","650000.6000000238","998.9000000357628","77","1","arctic","","","","",""
"dual-task","null","null","null","","arctic","swim","538.1999999880791","","R","null","77","77","1","arctic-dual-task","","R","uppercase","662000","0","3","cbf4bf78c6c77c8ec9ed5379ebd736000169aec8ac9b5a1606cd209266ff9a09","662010.1999999881","538.1999999880791","77","1","arctic","","","","",""
"dual-task","null","null","null","","arctic","swim","760","","G","null","77","77","1","arctic-dual-task","","G","uppercase","668000","0","3","cbf4bf78c6c77c8ec9ed5379ebd736000169aec8ac9b5a1606cd209266ff9a09","668020.8000000119","760","77","1","arctic","","","","",""
"dual-task","null","null","null","","arctic","swim","568.6000000238419","","a","null","88","88","1","arctic-dual-task","","a","lowercase","674000","0","3","cbf4bf78c6c77c8ec9ed5379ebd736000169aec8ac9b5a1606cd209266ff9a09","674000.6000000238","568.6000000238419","88","1","arctic","","","","",""
"dual-task","null","null","null","","arctic","swim","896.1999999880791","","t","null","88","88","1","arctic-dual-task","","t","lowercase","682000","0","3","cbf4bf78c6c77c8ec9ed5379ebd736000169aec8ac9b5a1606cd209266ff9a09","682000.8000000119","896.1999999880791","88","1","arctic","","","","",""
"dual-task","null","null","null","","arctic","swim","556.3999999761581","","D","null","77","77","1","arctic-dual-task","","D","uppercase","696000","0","3","cbf4bf78c6c77c8ec9ed5379ebd736000169aec8ac9b5a1606cd209266ff9a09","696009.9000000358","556.3999999761581","77","1","arctic","","","","",""
"dual-task","null","null","null","","arctic","swim","650.8999999761581","","f","null","88","88","1","arctic-dual-task","","f","lowercase","704000","0","3","cbf4bf78c6c77c8ec9ed5379ebd736000169aec8ac9b5a1606cd209266ff9a09","704009.9000000358","650.8999999761581","88","1","arctic","","","","",""
"dual-task","null","null","null","","arctic","swim","880.6000000238419","","h","null","88","88","1","arctic-dual-task","","h","lowercase","710000","0","3","cbf4bf78c6c77c8ec9ed5379ebd736000169aec8ac9b5a1606cd209266ff9a09","710012.6000000238","880.6000000238419","88","1","arctic","","","","",""
"dual-task","null","null","null","","arctic","swim","584.3000000119209","","E","null","77","77","1","arctic-dual-task","","E","uppercase","722000","0","3","cbf4bf78c6c77c8ec9ed5379ebd736000169aec8ac9b5a1606cd209266ff9a09","722017.9000000358","584.3000000119209","77","1","arctic","","","","",""
"dual-task","null","null","null","","arctic","swim","703.3999999761581","","q","null","88","88","1","arctic-dual-task","","q","lowercase","730000","0","3","cbf4bf78c6c77c8ec9ed5379ebd736000169aec8ac9b5a1606cd209266ff9a09","730010.5","703.3999999761581","88","1","arctic","","","","",""
"dual-task","null","null","null","","arctic","swim","666.5","","N","null","77","77","1","arctic-dual-task","","N","uppercase","740000","0","3","cbf4bf78c6c77c8ec9ed5379ebd736000169aec8ac9b5a1606cd209266ff9a09","740000.6999999881","666.5","77","1","arctic","","","","",""
"dual-task","null","null","null","","arctic","swim","1502.1000000238419","","Q","null","77","77","1","arctic-dual-task","","Q","uppercase","750000","0","3","cbf4bf78c6c77c8ec9ed5379ebd736000169aec8ac9b5a1606cd209266ff9a09","750005.8000000119","1502.1000000238419","77","1","arctic","","","","",""
"dual-task","null","null","null","","arctic","swim","NA","","q","null","NA","88","0","arctic-dual-task","","q","lowercase","758000","1","3","cbf4bf78c6c77c8ec9ed5379ebd736000169aec8ac9b5a1606cd209266ff9a09","758000.8000000119","NA","NA","0","arctic","","","","",""
"dual-task","null","null","null","","arctic","swim","643.1000000238419","","e","null","88","88","1","arctic-dual-task","","e","lowercase","772000","0","3","cbf4bf78c6c77c8ec9ed5379ebd736000169aec8ac9b5a1606cd209266ff9a09","772011","643.1000000238419","88","1","arctic","","","","",""
"dual-task","null","null","null","","arctic","swim","703.3999999761581","","H","null","77","77","1","arctic-dual-task","","H","uppercase","782000","0","3","cbf4bf78c6c77c8ec9ed5379ebd736000169aec8ac9b5a1606cd209266ff9a09","782000.9000000358","703.3999999761581","77","1","arctic","","","","",""
"audio-keyboard-response","29","1917258","0.0-6.0-0.0-1.0","cbf4bf78c6c77c8ec9ed5379ebd736000169aec8ac9b5a1606cd209266ff9a09","arctic","swim","null","","audio/story_arctic.mp3","","null","","","","","","","","","","","","","","","","","","","",""
"html-button-response","30","1924719","0.0-6.0-0.0-2.0","cbf4bf78c6c77c8ec9ed5379ebd736000169aec8ac9b5a1606cd209266ff9a09","arctic","swim","7459","","<p>This concludes the story. Thank you for listening.</p><p>You will now answer some questions about the content of the story.</p>","0","","","","","","","","","","","","","","","","","","","","",""
"survey-multi-choice","31","1934316","0.0-6.0-0.0-3.0-0.0","cbf4bf78c6c77c8ec9ed5379ebd736000169aec8ac9b5a1606cd209266ff9a09","arctic","swim","9592","","<b>How did the narrator&#39;s encounter with the polar bears end?</b>","","","","1","arctic-comprehension","","","","","","","","","","","","","{""Q0"":""The bears walked back to their den.""}","","","",""
"survey-multi-choice","32","1948164","0.0-6.0-0.0-3.0-0.1","cbf4bf78c6c77c8ec9ed5379ebd736000169aec8ac9b5a1606cd209266ff9a09","arctic","swim","13591","","<b>What was the objective of the narrator&#39;s expedition?</b>","","","","1","arctic-comprehension","","","","","","","","","","","","","{""Q0"":""Dogsled across Arctic America""}","","","",""
"survey-multi-choice","33","1952503","0.0-6.0-0.0-3.0-0.2","cbf4bf78c6c77c8ec9ed5379ebd736000169aec8ac9b5a1606cd209266ff9a09","arctic","swim","4075","","<b>What is the name of the narrator&#39;s neighbour?</b>","","","","1","arctic-comprehension","","","","","","","","","","","","","{""Q0"":""Dave""}","","","",""
"survey-multi-choice","34","1961059","0.0-6.0-0.0-3.0-0.3","cbf4bf78c6c77c8ec9ed5379ebd736000169aec8ac9b5a1606cd209266ff9a09","arctic","swim","8292","","<b>How did the narrator&#39;s neighbour respond when she told him about her expedition?</b>","","","","1","arctic-comprehension","","","","","","","","","","","","","{""Q0"":""He said she was going to fail.""}","","","",""
"survey-multi-choice","35","1976292","0.0-6.0-0.0-3.0-0.4","cbf4bf78c6c77c8ec9ed5379ebd736000169aec8ac9b5a1606cd209266ff9a09","arctic","swim","14966","","<b>What were the weather conditions in the Arctic like the winter of the narrator&#39;s expedition?</b>","","","","1","arctic-comprehension","","","","","","","","","","","","","{""Q0"":""There were more storms than any other winter in recorded history.""}","","","",""
"survey-multi-choice","36","1982065","0.0-6.0-0.0-3.0-0.5","cbf4bf78c6c77c8ec9ed5379ebd736000169aec8ac9b5a1606cd209266ff9a09","arctic","swim","5505","","<b>What did the narrator do for leisure while in her tent?</b>","","","","1","arctic-comprehension","","","","","","","","","","","","","{""Q0"":""Read""}","","","",""
"survey-multi-choice","37","1989530","0.0-6.0-0.0-3.0-0.6","cbf4bf78c6c77c8ec9ed5379ebd736000169aec8ac9b5a1606cd209266ff9a09","arctic","swim","7199","","<b>How did the dogs respond when they saw the bears?</b>","","","","1","arctic-comprehension","","","","","","","","","","","","","{""Q0"":""Approached them""}","","","",""
"survey-multi-choice","38","1994290","0.0-6.0-0.0-3.0-0.7","cbf4bf78c6c77c8ec9ed5379ebd736000169aec8ac9b5a1606cd209266ff9a09","arctic","swim","4505","","<b>Which dog on the narrator&#39;s dog team never followed instructions?</b>","","","","1","arctic-comprehension","","","","","","","","","","","","","{""Q0"":""Robert""}","","","",""
"survey-multi-choice","39","1999372","0.0-6.0-0.0-3.0-0.8","cbf4bf78c6c77c8ec9ed5379ebd736000169aec8ac9b5a1606cd209266ff9a09","arctic","swim","4812","","<b>How many sponsorships did the narrator receive to support her expedition?</b>","","","","1","arctic-comprehension","","","","","","","","","","","","","{""Q0"":""None""}","","","",""
"survey-multi-choice","40","2023160","0.0-6.0-0.0-3.0-0.9","cbf4bf78c6c77c8ec9ed5379ebd736000169aec8ac9b5a1606cd209266ff9a09","arctic","swim","23534","","<b>How did the narrator prepare for her expedition?</b>","","","","1","arctic-comprehension","","","","","","","","","","","","","{""Q0"":""Trained in Alaska learning how to dogsled""}","","","",""
"html-button-response","41","2028280","0.0-6.0-0.0-4.0","cbf4bf78c6c77c8ec9ed5379ebd736000169aec8ac9b5a1606cd209266ff9a09","arctic","swim","4867","","<p>Thank you for your responses.</p><p>You will now answer some questions about your impressions of the story.</p>","0","","","","","","","","","","","","","","","","","","","","",""
"html-button-response","42","2039980","0.0-6.0-0.0-5.0-0.0","cbf4bf78c6c77c8ec9ed5379ebd736000169aec8ac9b5a1606cd209266ff9a09","arctic","swim","11699","","MS1","6","","","","arctic-engagement","","","","","","","","","","","","","","7","mental-sim","",""
"html-button-response","43","2043130","0.0-6.0-0.0-5.0-0.1","cbf4bf78c6c77c8ec9ed5379ebd736000169aec8ac9b5a1606cd209266ff9a09","arctic","swim","2897","","MS2","6","","","","arctic-engagement","","","","","","","","","","","","","","7","mental-sim","",""
"html-button-response","44","2045234","0.0-6.0-0.0-5.0-0.2","cbf4bf78c6c77c8ec9ed5379ebd736000169aec8ac9b5a1606cd209266ff9a09","arctic","swim","1852","","E7","6","","","","arctic-engagement","","","","","","","","","","","","","","7","enjoyment","",""
"html-button-response","45","2047356","0.0-6.0-0.0-5.0-0.3","cbf4bf78c6c77c8ec9ed5379ebd736000169aec8ac9b5a1606cd209266ff9a09","arctic","swim","1870","","EE3","6","","","","arctic-engagement","","","","","","","","","","","","","","7","emo-engage","",""
"html-button-response","46","2050214","0.0-6.0-0.0-5.0-0.4","cbf4bf78c6c77c8ec9ed5379ebd736000169aec8ac9b5a1606cd209266ff9a09","arctic","swim","2604","","E6","6","","","","arctic-engagement","","","","","","","","","","","","","","7","enjoyment","",""
"html-button-response","47","2056226","0.0-6.0-0.0-5.0-0.5","cbf4bf78c6c77c8ec9ed5379ebd736000169aec8ac9b5a1606cd209266ff9a09","arctic","swim","5759","","A4","5","","","","arctic-engagement","","","","","","","","","","","","","","6","absorption","",""
"html-button-response","48","2058238","0.0-6.0-0.0-5.0-0.6","cbf4bf78c6c77c8ec9ed5379ebd736000169aec8ac9b5a1606cd209266ff9a09","arctic","swim","1758","","E8","6","","","","arctic-engagement","","","","","","","","","","","","","","7","enjoyment","",""
"html-button-response","49","2060708","0.0-6.0-0.0-5.0-0.7","cbf4bf78c6c77c8ec9ed5379ebd736000169aec8ac9b5a1606cd209266ff9a09","arctic","swim","2217","","A2","6","","","","arctic-engagement","","","","","","","","","","","","","","7","absorption","",""
"html-button-response","50","2064124","0.0-6.0-0.0-5.0-0.8","cbf4bf78c6c77c8ec9ed5379ebd736000169aec8ac9b5a1606cd209266ff9a09","arctic","swim","3162","","EE1","6","","","","arctic-engagement","","","","","","","","","","","","","","7","emo-engage","",""
"html-button-response","51","2065896","0.0-6.0-0.0-5.0-0.9","cbf4bf78c6c77c8ec9ed5379ebd736000169aec8ac9b5a1606cd209266ff9a09","arctic","swim","1519","","A3","6","","","","arctic-engagement","","","","","","","","","","","","","","7","absorption","",""
"html-button-response","52","2069322","0.0-6.0-0.0-5.0-0.10","cbf4bf78c6c77c8ec9ed5379ebd736000169aec8ac9b5a1606cd209266ff9a09","arctic","swim","3173","","A1","5","","","","arctic-engagement","","","","","","","","","","","","","","6","absorption","",""
"html-button-response","53","2072668","0.0-6.0-0.0-5.0-0.11","cbf4bf78c6c77c8ec9ed5379ebd736000169aec8ac9b5a1606cd209266ff9a09","arctic","swim","3093","","E10","6","","","","arctic-engagement","","","","","","","","","","","","","","7","enjoyment","",""
"html-button-response","54","2075714","0.0-6.0-0.0-5.0-0.12","cbf4bf78c6c77c8ec9ed5379ebd736000169aec8ac9b5a1606cd209266ff9a09","arctic","swim","2792","","EE4","6","","","","arctic-engagement","","","","","","","","","","","","","","7","emo-engage","",""
"html-button-response","55","2081734","0.0-6.0-0.0-5.0-0.13","cbf4bf78c6c77c8ec9ed5379ebd736000169aec8ac9b5a1606cd209266ff9a09","arctic","swim","5767","","MS3","6","","","","arctic-engagement","","","","","","","","","","","","","","7","mental-sim","",""
"html-button-response","56","2083832","0.0-6.0-0.0-5.0-0.14","cbf4bf78c6c77c8ec9ed5379ebd736000169aec8ac9b5a1606cd209266ff9a09","arctic","swim","1845","","E1","6","","","","arctic-engagement","","","","","","","","","","","","","","7","enjoyment","",""
"html-button-response","57","2091110","0.0-6.0-0.0-5.0-0.15","cbf4bf78c6c77c8ec9ed5379ebd736000169aec8ac9b5a1606cd209266ff9a09","arctic","swim","7025","","EE5","6","","","","arctic-engagement","","","","","","","","","","","","","","7","emo-engage","",""
"html-button-response","58","2094848","0.0-6.0-0.0-5.0-0.16","cbf4bf78c6c77c8ec9ed5379ebd736000169aec8ac9b5a1606cd209266ff9a09","arctic","swim","3485","","A5","6","","","","arctic-engagement","","","","","","","","","","","","","","7","absorption","",""
"html-button-response","59","2097956","0.0-6.0-0.0-5.0-0.17","cbf4bf78c6c77c8ec9ed5379ebd736000169aec8ac9b5a1606cd209266ff9a09","arctic","swim","2855","","EE2","3","","","","arctic-engagement","","","","","","","","","","","","","","4","emo-engage","",""
"html-keyboard-response","60","2162728","0.0-6.0-1.0","cbf4bf78c6c77c8ec9ed5379ebd736000169aec8ac9b5a1606cd209266ff9a09","arctic","swim","64519","","<p>Thank you for your responses. You will now listen to the second story.</p><p>Remember, as you listen to the story you will see letters appear on the screen.</br>As quickly as possible, press <b>&lt;x&gt;</b> if the letter is lowercase and <b>&lt;m&gt;</b> if the letter is uppercase.</p><p>Press <b>&lt;x&gt;</b> or <b>&lt;m&gt;</b> to begin listening!</p>","","77","","","","","","","","","","","","","","","","","","","",""
"html-keyboard-response","61","2163230","0.0-6.0-2.0-0.0","cbf4bf78c6c77c8ec9ed5379ebd736000169aec8ac9b5a1606cd209266ff9a09","arctic","swim","null","","<div style=""font-size:60px;"" tabindex=""0"">+</div>","","null","","","","","","","","","","","","","","","","","","","",""
"dual-task","null","null","null","","arctic","swim","564.6999999880791","","D","null","77","77","1","swim-dual-task","","D","uppercase","14000","0","3","cbf4bf78c6c77c8ec9ed5379ebd736000169aec8ac9b5a1606cd209266ff9a09","14005.299999952316","564.6999999880791","77","1","swim","","","","",""
"dual-task","null","null","null","","arctic","swim","572.9000000357628","","g","null","88","88","1","swim-dual-task","","g","lowercase","20000","0","3","cbf4bf78c6c77c8ec9ed5379ebd736000169aec8ac9b5a1606cd209266ff9a09","20005.099999964237","572.9000000357628","88","1","swim","","","","",""
"dual-task","null","null","null","","arctic","swim","558","","A","null","77","77","1","swim-dual-task","","A","uppercase","32000","0","3","cbf4bf78c6c77c8ec9ed5379ebd736000169aec8ac9b5a1606cd209266ff9a09","32005.099999964237","558","77","1","swim","","","","",""
"dual-task","null","null","null","","arctic","swim","547","","e","null","88","88","1","swim-dual-task","","e","lowercase","44000","0","3","cbf4bf78c6c77c8ec9ed5379ebd736000169aec8ac9b5a1606cd209266ff9a09","44014.39999997616","547","88","1","swim","","","","",""
"dual-task","null","null","null","","arctic","swim","518.8000000119209","","H","null","77","77","1","swim-dual-task","","H","uppercase","56000","0","3","cbf4bf78c6c77c8ec9ed5379ebd736000169aec8ac9b5a1606cd209266ff9a09","56014.5","518.8000000119209","77","1","swim","","","","",""
"dual-task","null","null","null","","arctic","swim","586.9000000357628","","R","null","77","77","1","swim-dual-task","","R","uppercase","66000","0","3","cbf4bf78c6c77c8ec9ed5379ebd736000169aec8ac9b5a1606cd209266ff9a09","66004.5","586.9000000357628","77","1","swim","","","","",""
"dual-task","null","null","null","","arctic","swim","694.3999999761581","","N","null","77","77","1","swim-dual-task","","N","uppercase","80000","0","3","cbf4bf78c6c77c8ec9ed5379ebd736000169aec8ac9b5a1606cd209266ff9a09","80005.09999996424","694.3999999761581","77","1","swim","","","","",""
"dual-task","null","null","null","","arctic","swim","491.5999999642372","","G","null","77","77","1","swim-dual-task","","G","uppercase","88000","0","3","cbf4bf78c6c77c8ec9ed5379ebd736000169aec8ac9b5a1606cd209266ff9a09","88003.89999997616","491.5999999642372","77","1","swim","","","","",""
"dual-task","null","null","null","","arctic","swim","761.9000000357628","","F","null","77","77","1","swim-dual-task","","F","uppercase","96000","0","3","cbf4bf78c6c77c8ec9ed5379ebd736000169aec8ac9b5a1606cd209266ff9a09","96014.39999997616","761.9000000357628","77","1","swim","","","","",""
"dual-task","null","null","null","","arctic","swim","631.6000000238419","","a","null","88","88","1","swim-dual-task","","a","lowercase","106000","0","3","cbf4bf78c6c77c8ec9ed5379ebd736000169aec8ac9b5a1606cd209266ff9a09","106004.79999995232","631.6000000238419","88","1","swim","","","","",""
"dual-task","null","null","null","","arctic","swim","666.8999999761581","","Q","null","77","77","1","swim-dual-task","","Q","uppercase","112000","0","3","cbf4bf78c6c77c8ec9ed5379ebd736000169aec8ac9b5a1606cd209266ff9a09","112000.39999997616","666.8999999761581","77","1","swim","","","","",""
"dual-task","null","null","null","","arctic","swim","520.3000000119209","","D","null","77","77","1","swim-dual-task","","D","uppercase","120000","0","3","cbf4bf78c6c77c8ec9ed5379ebd736000169aec8ac9b5a1606cd209266ff9a09","120014.39999997616","520.3000000119209","77","1","swim","","","","",""
"dual-task","null","null","null","","arctic","swim","555","","f","null","88","88","1","swim-dual-task","","f","lowercase","134000","0","3","cbf4bf78c6c77c8ec9ed5379ebd736000169aec8ac9b5a1606cd209266ff9a09","134014.89999997616","555","88","1","swim","","","","",""
"dual-task","null","null","null","","arctic","swim","469.5","","a","null","88","88","1","swim-dual-task","","a","lowercase","144000","0","3","cbf4bf78c6c77c8ec9ed5379ebd736000169aec8ac9b5a1606cd209266ff9a09","144014.69999998808","469.5","88","1","swim","","","","",""
"dual-task","null","null","null","","arctic","swim","498.89999997615814","","t","null","88","88","1","swim-dual-task","","t","lowercase","152000","0","3","cbf4bf78c6c77c8ec9ed5379ebd736000169aec8ac9b5a1606cd209266ff9a09","152014.69999998808","498.89999997615814","88","1","swim","","","","",""
"dual-task","null","null","null","","arctic","swim","612.6000000238419","","F","null","77","77","1","swim-dual-task","","F","uppercase","164000","0","3","cbf4bf78c6c77c8ec9ed5379ebd736000169aec8ac9b5a1606cd209266ff9a09","164014.5","612.6000000238419","77","1","swim","","","","",""
"dual-task","null","null","null","","arctic","swim","636.5","","h","null","88","88","1","swim-dual-task","","h","lowercase","176000","0","3","cbf4bf78c6c77c8ec9ed5379ebd736000169aec8ac9b5a1606cd209266ff9a09","176014.69999998808","636.5","88","1","swim","","","","",""
"dual-task","null","null","null","","arctic","swim","638.7999999523163","","E","null","77","77","1","swim-dual-task","","E","uppercase","188000","0","3","cbf4bf78c6c77c8ec9ed5379ebd736000169aec8ac9b5a1606cd209266ff9a09","188014.59999996424","638.7999999523163","77","1","swim","","","","",""
"dual-task","null","null","null","","arctic","swim","598.6999999880791","","q","null","88","88","1","swim-dual-task","","q","lowercase","198000","0","3","cbf4bf78c6c77c8ec9ed5379ebd736000169aec8ac9b5a1606cd209266ff9a09","198003.89999997616","598.6999999880791","88","1","swim","","","","",""
"dual-task","null","null","null","","arctic","swim","731.1000000238419","","F","null","77","77","1","swim-dual-task","","F","uppercase","208000","0","3","cbf4bf78c6c77c8ec9ed5379ebd736000169aec8ac9b5a1606cd209266ff9a09","208014.89999997616","731.1000000238419","77","1","swim","","","","",""
"dual-task","null","null","null","","arctic","swim","562.6999999880791","","q","null","88","88","1","swim-dual-task","","q","lowercase","218000","0","3","cbf4bf78c6c77c8ec9ed5379ebd736000169aec8ac9b5a1606cd209266ff9a09","218004.5","562.6999999880791","88","1","swim","","","","",""
"dual-task","null","null","null","","arctic","swim","746.3999999761581","","R","null","77","77","1","swim-dual-task","","R","uppercase","228000","0","3","cbf4bf78c6c77c8ec9ed5379ebd736000169aec8ac9b5a1606cd209266ff9a09","228004.5","746.3999999761581","77","1","swim","","","","",""
"dual-task","null","null","null","","arctic","swim","1078","","E","null","77","77","1","swim-dual-task","","E","uppercase","240000","0","3","cbf4bf78c6c77c8ec9ed5379ebd736000169aec8ac9b5a1606cd209266ff9a09","240004.69999998808","1078","77","1","swim","","","","",""
"dual-task","null","null","null","","arctic","swim","515.6999999880791","","a","null","88","88","1","swim-dual-task","","a","lowercase","252000","0","3","cbf4bf78c6c77c8ec9ed5379ebd736000169aec8ac9b5a1606cd209266ff9a09","251999.59999996424","515.6999999880791","88","1","swim","","","","",""
"dual-task","null","null","null","","arctic","swim","1307.199999988079","","D","null","77","77","1","swim-dual-task","","D","uppercase","260000","0","3","cbf4bf78c6c77c8ec9ed5379ebd736000169aec8ac9b5a1606cd209266ff9a09","260015.09999996424","1307.199999988079","77","1","swim","","","","",""
"dual-task","null","null","null","","arctic","swim","658","","G","null","77","77","1","swim-dual-task","","G","uppercase","274000","0","3","cbf4bf78c6c77c8ec9ed5379ebd736000169aec8ac9b5a1606cd209266ff9a09","274005","658","77","1","swim","","","","",""
"dual-task","null","null","null","","arctic","swim","685.0999999642372","","T","null","77","77","1","swim-dual-task","","T","uppercase","284000","0","3","cbf4bf78c6c77c8ec9ed5379ebd736000169aec8ac9b5a1606cd209266ff9a09","284004.89999997616","685.0999999642372","77","1","swim","","","","",""
"dual-task","null","null","null","","arctic","swim","648.4000000357628","","f","null","88","88","1","swim-dual-task","","f","lowercase","296000","0","3","cbf4bf78c6c77c8ec9ed5379ebd736000169aec8ac9b5a1606cd209266ff9a09","296015","648.4000000357628","88","1","swim","","","","",""
"dual-task","null","null","null","","arctic","swim","543.6999999880791","","H","null","77","77","1","swim-dual-task","","H","uppercase","310000","0","3","cbf4bf78c6c77c8ec9ed5379ebd736000169aec8ac9b5a1606cd209266ff9a09","310014.59999996424","543.6999999880791","77","1","swim","","","","",""
"dual-task","null","null","null","","arctic","swim","522.1999999880791","","h","null","88","88","1","swim-dual-task","","h","lowercase","318000","0","3","cbf4bf78c6c77c8ec9ed5379ebd736000169aec8ac9b5a1606cd209266ff9a09","318015","522.1999999880791","88","1","swim","","","","",""
"dual-task","null","null","null","","arctic","swim","580.1000000238419","","d","null","88","88","1","swim-dual-task","","d","lowercase","328000","0","3","cbf4bf78c6c77c8ec9ed5379ebd736000169aec8ac9b5a1606cd209266ff9a09","328015","580.1000000238419","88","1","swim","","","","",""
"dual-task","null","null","null","","arctic","swim","597.1000000238419","","N","null","77","77","1","swim-dual-task","","N","uppercase","334000","0","3","cbf4bf78c6c77c8ec9ed5379ebd736000169aec8ac9b5a1606cd209266ff9a09","334014.59999996424","597.1000000238419","77","1","swim","","","","",""
"dual-task","null","null","null","","arctic","swim","540","","b","null","88","88","1","swim-dual-task","","b","lowercase","344000","0","3","cbf4bf78c6c77c8ec9ed5379ebd736000169aec8ac9b5a1606cd209266ff9a09","344015","540","88","1","swim","","","","",""
"dual-task","null","null","null","","arctic","swim","550.1999999880791","","b","null","88","88","1","swim-dual-task","","b","lowercase","352000","0","3","cbf4bf78c6c77c8ec9ed5379ebd736000169aec8ac9b5a1606cd209266ff9a09","352004.5","550.1999999880791","88","1","swim","","","","",""
"dual-task","null","null","null","","arctic","swim","587.5","","d","null","88","88","1","swim-dual-task","","d","lowercase","366000","0","3","cbf4bf78c6c77c8ec9ed5379ebd736000169aec8ac9b5a1606cd209266ff9a09","366015.1999999881","587.5","88","1","swim","","","","",""
"dual-task","null","null","null","","arctic","swim","506.9000000357628","","t","null","88","88","1","swim-dual-task","","t","lowercase","374000","0","3","cbf4bf78c6c77c8ec9ed5379ebd736000169aec8ac9b5a1606cd209266ff9a09","374005.39999997616","506.9000000357628","88","1","swim","","","","",""
"dual-task","null","null","null","","arctic","swim","590","","N","null","77","77","1","swim-dual-task","","N","uppercase","382000","0","3","cbf4bf78c6c77c8ec9ed5379ebd736000169aec8ac9b5a1606cd209266ff9a09","382015.1999999881","590","77","1","swim","","","","",""
"dual-task","null","null","null","","arctic","swim","550.3000000119209","","E","null","77","77","1","swim-dual-task","","E","uppercase","392000","0","3","cbf4bf78c6c77c8ec9ed5379ebd736000169aec8ac9b5a1606cd209266ff9a09","392004.59999996424","550.3000000119209","77","1","swim","","","","",""
"dual-task","null","null","null","","arctic","swim","604.3000000119209","","f","null","88","88","1","swim-dual-task","","f","lowercase","400000","0","3","cbf4bf78c6c77c8ec9ed5379ebd736000169aec8ac9b5a1606cd209266ff9a09","400004.5","604.3000000119209","88","1","swim","","","","",""
"dual-task","null","null","null","","arctic","swim","734.1999999880791","","n","null","88","88","1","swim-dual-task","","n","lowercase","414000","0","3","cbf4bf78c6c77c8ec9ed5379ebd736000169aec8ac9b5a1606cd209266ff9a09","414004.6999999881","734.1999999880791","88","1","swim","","","","",""
"dual-task","null","null","null","","arctic","swim","655.1000000238419","","R","null","77","77","1","swim-dual-task","","R","uppercase","424000","0","3","cbf4bf78c6c77c8ec9ed5379ebd736000169aec8ac9b5a1606cd209266ff9a09","424010.5","655.1000000238419","77","1","swim","","","","",""
"dual-task","null","null","null","","arctic","swim","523.1000000238419","","r","null","88","88","1","swim-dual-task","","r","lowercase","434000","0","3","cbf4bf78c6c77c8ec9ed5379ebd736000169aec8ac9b5a1606cd209266ff9a09","434015.2999999523","523.1000000238419","88","1","swim","","","","",""
"dual-task","null","null","null","","arctic","swim","923.5","","b","null","88","88","1","swim-dual-task","","b","lowercase","446000","0","3","cbf4bf78c6c77c8ec9ed5379ebd736000169aec8ac9b5a1606cd209266ff9a09","445999.7999999523","923.5","88","1","swim","","","","",""
"dual-task","null","null","null","","arctic","swim","642.6999999880791","","A","null","77","77","1","swim-dual-task","","A","uppercase","456000","0","3","cbf4bf78c6c77c8ec9ed5379ebd736000169aec8ac9b5a1606cd209266ff9a09","456015.2999999523","642.6999999880791","77","1","swim","","","","",""
"dual-task","null","null","null","","arctic","swim","536.5","","n","null","88","88","1","swim-dual-task","","n","lowercase","466000","0","3","cbf4bf78c6c77c8ec9ed5379ebd736000169aec8ac9b5a1606cd209266ff9a09","466014.6999999881","536.5","88","1","swim","","","","",""
"dual-task","null","null","null","","arctic","swim","526.3000000119209","","N","null","77","77","1","swim-dual-task","","N","uppercase","478000","0","3","cbf4bf78c6c77c8ec9ed5379ebd736000169aec8ac9b5a1606cd209266ff9a09","478005.59999996424","526.3000000119209","77","1","swim","","","","",""
"dual-task","null","null","null","","arctic","swim","1389","","d","null","88","88","1","swim-dual-task","","d","lowercase","488000","0","3","cbf4bf78c6c77c8ec9ed5379ebd736000169aec8ac9b5a1606cd209266ff9a09","488005.2999999523","1389","88","1","swim","","","","",""
"dual-task","null","null","null","","arctic","swim","1432.1000000238419","","t","null","88","88","1","swim-dual-task","","t","lowercase","498000","0","3","cbf4bf78c6c77c8ec9ed5379ebd736000169aec8ac9b5a1606cd209266ff9a09","498014.89999997616","1432.1000000238419","88","1","swim","","","","",""
"dual-task","null","null","null","","arctic","swim","762.8999999761581","","g","null","88","88","1","swim-dual-task","","g","lowercase","512000","0","3","cbf4bf78c6c77c8ec9ed5379ebd736000169aec8ac9b5a1606cd209266ff9a09","512014.39999997616","762.8999999761581","88","1","swim","","","","",""
"dual-task","null","null","null","","arctic","swim","1462.699999988079","","B","null","77","77","1","swim-dual-task","","B","uppercase","518000","0","3","cbf4bf78c6c77c8ec9ed5379ebd736000169aec8ac9b5a1606cd209266ff9a09","518015.5","1462.699999988079","77","1","swim","","","","",""
"dual-task","null","null","null","","arctic","swim","662.5","","f","null","88","88","1","swim-dual-task","","f","lowercase","524000","0","3","cbf4bf78c6c77c8ec9ed5379ebd736000169aec8ac9b5a1606cd209266ff9a09","524004.7999999523","662.5","88","1","swim","","","","",""
"dual-task","null","null","null","","arctic","swim","792","","G","null","77","77","1","swim-dual-task","","G","uppercase","536000","0","3","cbf4bf78c6c77c8ec9ed5379ebd736000169aec8ac9b5a1606cd209266ff9a09","536015.3999999762","792","77","1","swim","","","","",""
"dual-task","null","null","null","","arctic","swim","825.4000000357628","","t","null","88","88","1","swim-dual-task","","t","lowercase","550000","0","3","cbf4bf78c6c77c8ec9ed5379ebd736000169aec8ac9b5a1606cd209266ff9a09","550005.1999999881","825.4000000357628","88","1","swim","","","","",""
"dual-task","null","null","null","","arctic","swim","688.4000000357628","","r","null","88","88","1","swim-dual-task","","r","lowercase","556000","0","3","cbf4bf78c6c77c8ec9ed5379ebd736000169aec8ac9b5a1606cd209266ff9a09","556005.2999999523","688.4000000357628","88","1","swim","","","","",""
"dual-task","null","null","null","","arctic","swim","1184.1000000238419","","F","null","88","77","0","swim-dual-task","","F","uppercase","562000","0","3","cbf4bf78c6c77c8ec9ed5379ebd736000169aec8ac9b5a1606cd209266ff9a09","562015.1999999881","1184.1000000238419","88","0","swim","","","","",""
"dual-task","null","null","null","","arctic","swim","NA","","r","null","NA","88","0","swim-dual-task","","r","lowercase","568000","1","3","cbf4bf78c6c77c8ec9ed5379ebd736000169aec8ac9b5a1606cd209266ff9a09","568005","NA","NA","0","swim","","","","",""
"dual-task","null","null","null","","arctic","swim","482.30000001192093","","R","null","77","77","1","swim-dual-task","","R","uppercase","580000","0","3","cbf4bf78c6c77c8ec9ed5379ebd736000169aec8ac9b5a1606cd209266ff9a09","580005.2999999523","482.30000001192093","77","1","swim","","","","",""
"dual-task","null","null","null","","arctic","swim","552","","A","null","77","77","1","swim-dual-task","","A","uppercase","590000","0","3","cbf4bf78c6c77c8ec9ed5379ebd736000169aec8ac9b5a1606cd209266ff9a09","590015","552","77","1","swim","","","","",""
"dual-task","null","null","null","","arctic","swim","649.3000000119209","","n","null","88","88","1","swim-dual-task","","n","lowercase","604000","0","3","cbf4bf78c6c77c8ec9ed5379ebd736000169aec8ac9b5a1606cd209266ff9a09","604015.2999999523","649.3000000119209","88","1","swim","","","","",""
"dual-task","null","null","null","","arctic","swim","943.5999999642372","","q","null","88","88","1","swim-dual-task","","q","lowercase","614000","0","3","cbf4bf78c6c77c8ec9ed5379ebd736000169aec8ac9b5a1606cd209266ff9a09","614004.7999999523","943.5999999642372","88","1","swim","","","","",""
"dual-task","null","null","null","","arctic","swim","549.6000000238419","","D","null","77","77","1","swim-dual-task","","D","uppercase","624000","0","3","cbf4bf78c6c77c8ec9ed5379ebd736000169aec8ac9b5a1606cd209266ff9a09","624005.2999999523","549.6000000238419","77","1","swim","","","","",""
"dual-task","null","null","null","","arctic","swim","577.8000000119209","","q","null","88","88","1","swim-dual-task","","q","lowercase","632000","0","3","cbf4bf78c6c77c8ec9ed5379ebd736000169aec8ac9b5a1606cd209266ff9a09","632015.1999999881","577.8000000119209","88","1","swim","","","","",""
"dual-task","null","null","null","","arctic","swim","563","","E","null","77","77","1","swim-dual-task","","E","uppercase","642000","0","3","cbf4bf78c6c77c8ec9ed5379ebd736000169aec8ac9b5a1606cd209266ff9a09","642005","563","77","1","swim","","","","",""
"dual-task","null","null","null","","arctic","swim","587.4000000357628","","g","null","88","88","1","swim-dual-task","","g","lowercase","648000","0","3","cbf4bf78c6c77c8ec9ed5379ebd736000169aec8ac9b5a1606cd209266ff9a09","648005.0999999642","587.4000000357628","88","1","swim","","","","",""
"dual-task","null","null","null","","arctic","swim","519.1999999880791","","e","null","88","88","1","swim-dual-task","","e","lowercase","660000","0","3","cbf4bf78c6c77c8ec9ed5379ebd736000169aec8ac9b5a1606cd209266ff9a09","660025.1999999881","519.1999999880791","88","1","swim","","","","",""
"dual-task","null","null","null","","arctic","swim","541.8000000119209","","T","null","77","77","1","swim-dual-task","","T","uppercase","670000","0","3","cbf4bf78c6c77c8ec9ed5379ebd736000169aec8ac9b5a1606cd209266ff9a09","670005.5999999642","541.8000000119209","77","1","swim","","","","",""
"dual-task","null","null","null","","arctic","swim","628.2999999523163","","B","null","77","77","1","swim-dual-task","","B","uppercase","680000","0","3","cbf4bf78c6c77c8ec9ed5379ebd736000169aec8ac9b5a1606cd209266ff9a09","680015.6999999881","628.2999999523163","77","1","swim","","","","",""
"dual-task","null","null","null","","arctic","swim","744.3000000119209","","H","null","77","77","1","swim-dual-task","","H","uppercase","692000","0","3","cbf4bf78c6c77c8ec9ed5379ebd736000169aec8ac9b5a1606cd209266ff9a09","692008.6999999881","744.3000000119209","77","1","swim","","","","",""
"dual-task","null","null","null","","arctic","swim","619.5999999642372","","Q","null","77","77","1","swim-dual-task","","Q","uppercase","702000","0","3","cbf4bf78c6c77c8ec9ed5379ebd736000169aec8ac9b5a1606cd209266ff9a09","702015.6999999881","619.5999999642372","77","1","swim","","","","",""
"dual-task","null","null","null","","arctic","swim","517","","A","null","77","77","1","swim-dual-task","","A","uppercase","710000","0","3","cbf4bf78c6c77c8ec9ed5379ebd736000169aec8ac9b5a1606cd209266ff9a09","710015.3999999762","517","77","1","swim","","","","",""
"dual-task","null","null","null","","arctic","swim","1366.199999988079","","Q","null","77","77","1","swim-dual-task","","Q","uppercase","718000","0","3","cbf4bf78c6c77c8ec9ed5379ebd736000169aec8ac9b5a1606cd209266ff9a09","718005.5999999642","1366.199999988079","77","1","swim","","","","",""
"dual-task","null","null","null","","arctic","swim","611.8999999761581","","g","null","88","88","1","swim-dual-task","","g","lowercase","730000","0","3","cbf4bf78c6c77c8ec9ed5379ebd736000169aec8ac9b5a1606cd209266ff9a09","730015.5999999642","611.8999999761581","88","1","swim","","","","",""
"dual-task","null","null","null","","arctic","swim","481","","d","null","88","88","1","swim-dual-task","","d","lowercase","742000","0","3","cbf4bf78c6c77c8ec9ed5379ebd736000169aec8ac9b5a1606cd209266ff9a09","742011","481","88","1","swim","","","","",""
"dual-task","null","null","null","","arctic","swim","602.1999999880791","","r","null","88","88","1","swim-dual-task","","r","lowercase","748000","0","3","cbf4bf78c6c77c8ec9ed5379ebd736000169aec8ac9b5a1606cd209266ff9a09","748006.1999999881","602.1999999880791","88","1","swim","","","","",""
"dual-task","null","null","null","","arctic","swim","674","","G","null","77","77","1","swim-dual-task","","G","uppercase","762000","0","3","cbf4bf78c6c77c8ec9ed5379ebd736000169aec8ac9b5a1606cd209266ff9a09","762005.5999999642","674","77","1","swim","","","","",""
"dual-task","null","null","null","","arctic","swim","511.69999998807907","","H","null","77","77","1","swim-dual-task","","H","uppercase","772000","0","3","cbf4bf78c6c77c8ec9ed5379ebd736000169aec8ac9b5a1606cd209266ff9a09","772005.3999999762","511.69999998807907","77","1","swim","","","","",""
"dual-task","null","null","null","","arctic","swim","896.2999999523163","","n","null","88","88","1","swim-dual-task","","n","lowercase","784000","0","3","cbf4bf78c6c77c8ec9ed5379ebd736000169aec8ac9b5a1606cd209266ff9a09","784015.8999999762","896.2999999523163","88","1","swim","","","","",""
"dual-task","null","null","null","","arctic","swim","480.4000000357628","","h","null","88","88","1","swim-dual-task","","h","lowercase","792000","0","3","cbf4bf78c6c77c8ec9ed5379ebd736000169aec8ac9b5a1606cd209266ff9a09","792006.6999999881","480.4000000357628","88","1","swim","","","","",""
"audio-keyboard-response","62","2973250","0.0-6.0-2.0-1.0","cbf4bf78c6c77c8ec9ed5379ebd736000169aec8ac9b5a1606cd209266ff9a09","arctic","swim","null","","audio/story_swim_scrambled.mp3","","null","","","","","","","","","","","","","","","","","","","",""
"html-button-response","63","2978289","0.0-6.0-2.0-2.0","cbf4bf78c6c77c8ec9ed5379ebd736000169aec8ac9b5a1606cd209266ff9a09","arctic","swim","5036","","<p>This concludes the story. Thank you for listening.</p><p>You will now answer some questions about the content of the story.</p>","0","","","","","","","","","","","","","","","","","","","","",""
"survey-multi-choice","64","2983604","0.0-6.0-2.0-3.0-0.0","cbf4bf78c6c77c8ec9ed5379ebd736000169aec8ac9b5a1606cd209266ff9a09","arctic","swim","5312","","<b>What is the narrator afraid of, aside from the water?</b>","","","","1","swim-comprehension","","","","","","","","","","","","","{""Q0"":""Heights""}","","","",""
"survey-multi-choice","65","2992236","0.0-6.0-2.0-3.0-0.1","cbf4bf78c6c77c8ec9ed5379ebd736000169aec8ac9b5a1606cd209266ff9a09","arctic","swim","8376","","<b>How did the narrator train for his swim test?</b>","","","","0","swim-comprehension","","","","","","","","","","","","","{""Q0"":""Signed up for a swim class""}","","","",""
"survey-multi-choice","66","3001483","0.0-6.0-2.0-3.0-0.2","cbf4bf78c6c77c8ec9ed5379ebd736000169aec8ac9b5a1606cd209266ff9a09","arctic","swim","8989","","<b>What was the final step of the first swim test in the pool?</b>","","","","0","swim-comprehension","","","","","","","","","","","","","{""Q0"":""Swim three laps of the pool underwater""}","","","",""
"survey-multi-choice","67","3019337","0.0-6.0-2.0-3.0-0.3","cbf4bf78c6c77c8ec9ed5379ebd736000169aec8ac9b5a1606cd209266ff9a09","arctic","swim","17586","","<b>How often does the narrator swim, now that he is a good swimmer?</b>","","","","0","swim-comprehension","","","","","","","","","","","","","{""Q0"":""Every day at the local pool""}","","","",""
"survey-multi-choice","68","3024799","0.0-6.0-2.0-3.0-0.4","cbf4bf78c6c77c8ec9ed5379ebd736000169aec8ac9b5a1606cd209266ff9a09","arctic","swim","5200","","<b>Where is the home of naval aviation?</b>","","","","1","swim-comprehension","","","","","","","","","","","","","{""Q0"":""Pensacola""}","","","",""
"survey-multi-choice","69","3029349","0.0-6.0-2.0-3.0-0.5","cbf4bf78c6c77c8ec9ed5379ebd736000169aec8ac9b5a1606cd209266ff9a09","arctic","swim","4293","","<b>How many astronaut candidates passed the first swim test?</b>","","","","1","swim-comprehension","","","","","","","","","","","","","{""Q0"":""All of them""}","","","",""
"survey-multi-choice","70","3040779","0.0-6.0-2.0-3.0-0.6","cbf4bf78c6c77c8ec9ed5379ebd736000169aec8ac9b5a1606cd209266ff9a09","arctic","swim","11162","","<b>What were the astronaut candidates trained to do at the naval air station?</b>","","","","1","swim-comprehension","","","","","","","","","","","","","{""Q0"":""Eject out of aircraft and survive in water long enough to be rescued""}","","","",""
"survey-multi-choice","71","3052940","0.0-6.0-2.0-3.0-0.7","cbf4bf78c6c77c8ec9ed5379ebd736000169aec8ac9b5a1606cd209266ff9a09","arctic","swim","11900","","<b>What gave the narrator his greatest feeling of accomplishment?</b>","","","","1","swim-comprehension","","","","","","","","","","","","","{""Q0"":""Passing the water survival course""}","","","",""
"survey-multi-choice","72","3058453","0.0-6.0-2.0-3.0-0.8","cbf4bf78c6c77c8ec9ed5379ebd736000169aec8ac9b5a1606cd209266ff9a09","arctic","swim","5254","","<b>How many times did the astronaut candidates have to complete the final exercise to pass?</b>","","","","1","swim-comprehension","","","","","","","","","","","","","{""Q0"":""Two""}","","","",""
"survey-multi-choice","73","3067505","0.0-6.0-2.0-3.0-0.9","cbf4bf78c6c77c8ec9ed5379ebd736000169aec8ac9b5a1606cd209266ff9a09","arctic","swim","8795","","<b>How many astronaut candidates reported for duty at the Johnson Space Center?</b>","","","","0","swim-comprehension","","","","","","","","","","","","","{""Q0"":""Two""}","","","",""
"html-button-response","74","3068991","0.0-6.0-2.0-4.0","cbf4bf78c6c77c8ec9ed5379ebd736000169aec8ac9b5a1606cd209266ff9a09","arctic","swim","1232","","<p>Thank you for your responses.</p><p>You will now answer some questions about your impressions of the story.</p>","0","","","","","","","","","","","","","","","","","","","","",""
"html-button-response","75","3071077","0.0-6.0-2.0-5.0-0.0","cbf4bf78c6c77c8ec9ed5379ebd736000169aec8ac9b5a1606cd209266ff9a09","arctic","swim","2085","","E8","0","","","","swim-engagement","","","","","","","","","","","","","","1","enjoyment","",""
"html-button-response","76","3073847","0.0-6.0-2.0-5.0-0.1","cbf4bf78c6c77c8ec9ed5379ebd736000169aec8ac9b5a1606cd209266ff9a09","arctic","swim","2517","","MS1","0","","","","swim-engagement","","","","","","","","","","","","","","1","mental-sim","",""
"html-button-response","77","3076111","0.0-6.0-2.0-5.0-0.2","cbf4bf78c6c77c8ec9ed5379ebd736000169aec8ac9b5a1606cd209266ff9a09","arctic","swim","2011","","MS3","1","","","","swim-engagement","","","","","","","","","","","","","","2","mental-sim","",""
"html-button-response","78","3078039","0.0-6.0-2.0-5.0-0.3","cbf4bf78c6c77c8ec9ed5379ebd736000169aec8ac9b5a1606cd209266ff9a09","arctic","swim","1676","","EE3","0","","","","swim-engagement","","","","","","","","","","","","","","1","emo-engage","",""
"html-button-response","79","3081017","0.0-6.0-2.0-5.0-0.4","cbf4bf78c6c77c8ec9ed5379ebd736000169aec8ac9b5a1606cd209266ff9a09","arctic","swim","2726","","EE5","2","","","","swim-engagement","","","","","","","","","","","","","","3","emo-engage","",""
"html-button-response","80","3083075","0.0-6.0-2.0-5.0-0.5","cbf4bf78c6c77c8ec9ed5379ebd736000169aec8ac9b5a1606cd209266ff9a09","arctic","swim","1805","","E1","1","","","","swim-engagement","","","","","","","","","","","","","","2","enjoyment","",""
"html-button-response","81","3086949","0.0-6.0-2.0-5.0-0.6","cbf4bf78c6c77c8ec9ed5379ebd736000169aec8ac9b5a1606cd209266ff9a09","arctic","swim","3621","","EE1","2","","","","swim-engagement","","","","","","","","","","","","","","3","emo-engage","",""
"html-button-response","82","3089207","0.0-6.0-2.0-5.0-0.7","cbf4bf78c6c77c8ec9ed5379ebd736000169aec8ac9b5a1606cd209266ff9a09","arctic","swim","2005","","EE2","3","","","","swim-engagement","","","","","","","","","","","","","","4","emo-engage","",""
"html-button-response","83","3092111","0.0-6.0-2.0-5.0-0.8","cbf4bf78c6c77c8ec9ed5379ebd736000169aec8ac9b5a1606cd209266ff9a09","arctic","swim","2652","","A5","0","","","","swim-engagement","","","","","","","","","","","","","","1","absorption","",""
"html-button-response","84","3094271","0.0-6.0-2.0-5.0-0.9","cbf4bf78c6c77c8ec9ed5379ebd736000169aec8ac9b5a1606cd209266ff9a09","arctic","swim","1906","","E10","0","","","","swim-engagement","","","","","","","","","","","","","","1","enjoyment","",""
"html-button-response","85","3096011","0.0-6.0-2.0-5.0-0.10","cbf4bf78c6c77c8ec9ed5379ebd736000169aec8ac9b5a1606cd209266ff9a09","arctic","swim","1487","","A4","0","","","","swim-engagement","","","","","","","","","","","","","","1","absorption","",""
"html-button-response","86","3098765","0.0-6.0-2.0-5.0-0.11","cbf4bf78c6c77c8ec9ed5379ebd736000169aec8ac9b5a1606cd209266ff9a09","arctic","swim","2501","","MS2","2","","","","swim-engagement","","","","","","","","","","","","","","3","mental-sim","",""
"html-button-response","87","3100841","0.0-6.0-2.0-5.0-0.12","cbf4bf78c6c77c8ec9ed5379ebd736000169aec8ac9b5a1606cd209266ff9a09","arctic","swim","1824","","E6","1","","","","swim-engagement","","","","","","","","","","","","","","2","enjoyment","",""
"html-button-response","88","3104361","0.0-6.0-2.0-5.0-0.13","cbf4bf78c6c77c8ec9ed5379ebd736000169aec8ac9b5a1606cd209266ff9a09","arctic","swim","3267","","A1","1","","","","swim-engagement","","","","","","","","","","","","","","2","absorption","",""
"html-button-response","89","3107187","0.0-6.0-2.0-5.0-0.14","cbf4bf78c6c77c8ec9ed5379ebd736000169aec8ac9b5a1606cd209266ff9a09","arctic","swim","2573","","E7","1","","","","swim-engagement","","","","","","","","","","","","","","2","enjoyment","",""
"html-button-response","90","3109685","0.0-6.0-2.0-5.0-0.15","cbf4bf78c6c77c8ec9ed5379ebd736000169aec8ac9b5a1606cd209266ff9a09","arctic","swim","2245","","A3","0","","","","swim-engagement","","","","","","","","","","","","","","1","absorption","",""
"html-button-response","91","3114067","0.0-6.0-2.0-5.0-0.16","cbf4bf78c6c77c8ec9ed5379ebd736000169aec8ac9b5a1606cd209266ff9a09","arctic","swim","4129","","A2","3","","","","swim-engagement","","","","","","","","","","","","","","4","absorption","",""
"html-button-response","92","3117871","0.0-6.0-2.0-5.0-0.17","cbf4bf78c6c77c8ec9ed5379ebd736000169aec8ac9b5a1606cd209266ff9a09","arctic","swim","3551","","EE4","2","","","","swim-engagement","","","","","","","","","","","","","","3","emo-engage","",""
"html-button-response","93","3119131","0.0-8.0","cbf4bf78c6c77c8ec9ed5379ebd736000169aec8ac9b5a1606cd209266ff9a09","arctic","swim","1007","","<p>Thank you for your responses.</p><p>You will now answer some demographic, hearing, and general health questions.</p>","0","","","","","","","","","","","","","","","","","","","","",""
"survey-multi-choice","94","3122693","0.0-9.0-0.0","cbf4bf78c6c77c8ec9ed5379ebd736000169aec8ac9b5a1606cd209266ff9a09","arctic","swim","3560","","","","","","","survey","","","","","","","","","","","","","{""Q0"":""Chrome""}","","","browser",""
"survey-text","95","3126985","0.0-9.0-1.0","cbf4bf78c6c77c8ec9ed5379ebd736000169aec8ac9b5a1606cd209266ff9a09","arctic","swim","4036.099999964237","","","","","","","survey","","","","","","","","","","","","","{""AGE"":""31""}","","","age","31"
"survey-multi-choice","96","3132293","0.0-9.0-2.0","cbf4bf78c6c77c8ec9ed5379ebd736000169aec8ac9b5a1606cd209266ff9a09","arctic","swim","5054","","","","","","","survey","","","","","","","","","","","","","{""Q0"":""Female""}","","","gender","Female"
"survey-multi-choice","97","3134494","0.0-9.0-4.0","cbf4bf78c6c77c8ec9ed5379ebd736000169aec8ac9b5a1606cd209266ff9a09","arctic","swim","1948","","","","","","","survey","","","","","","","","","","","","","{""Q0"":""Right""}","","","handedness","Right"
"survey-multi-choice","98","3136931","0.0-9.0-5.0","cbf4bf78c6c77c8ec9ed5379ebd736000169aec8ac9b5a1606cd209266ff9a09","arctic","swim","2175","","","","","","","survey","","","","","","","","","","","","","{""Q0"":""Bachelor's Degree""}","","","education","Bachelor's Degree"
"survey-text","99","3141379","0.0-10.0-0.0","cbf4bf78c6c77c8ec9ed5379ebd736000169aec8ac9b5a1606cd209266ff9a09","arctic","swim","4192.400000035763","","","","","","","survey","","","","","","","","","","","","","{""L1"":""English""}","","","first-language","English"
"survey-text","100","3147673","0.0-10.0-1.0","cbf4bf78c6c77c8ec9ed5379ebd736000169aec8ac9b5a1606cd209266ff9a09","arctic","swim","6029.199999988079","","","","","","","survey","","","","","","","","","","","","","{""L2name"":"""",""L2fluency"":"""",""L3name"":"""",""L3fluency"":"""",""L4name"":"""",""L4fluency"":""""}","","","additional-languages","{""L2name"":"""",""L2fluency"":"""",""L3name"":"""",""L3fluency"":"""",""L4name"":"""",""L4fluency"":""""}"
"survey-multi-choice","101","3150777","0.0-10.0-2.0","cbf4bf78c6c77c8ec9ed5379ebd736000169aec8ac9b5a1606cd209266ff9a09","arctic","swim","2845","","","","","","","survey","","","","","","","","","","","","","{""Q0"":""No""}","","","hearing-aid","No"
"survey-multi-choice","102","3153443","0.0-10.0-3.0","cbf4bf78c6c77c8ec9ed5379ebd736000169aec8ac9b5a1606cd209266ff9a09","arctic","swim","2409","","","","","","","survey","","","","","","","","","","","","","{""Q0"":""Never""}","","","ringing-ears","Never"
"survey-multi-choice","103","3156865","0.0-10.0-5.0","cbf4bf78c6c77c8ec9ed5379ebd736000169aec8ac9b5a1606cd209266ff9a09","arctic","swim","3167","","","","","","","survey","","","","","","","","","","","","","{""Q0"":""No""}","","","neuro-disease","No"
"survey-multi-choice","104","3159883","0.0-10.0-7.0","cbf4bf78c6c77c8ec9ed5379ebd736000169aec8ac9b5a1606cd209266ff9a09","arctic","swim","2762","","","","","","","survey","","","","","","","","","","","","","{""Q0"":""No""}","","","take-meds","No"
"survey-text","105","3163693","0.0-10.0-9.0","cbf4bf78c6c77c8ec9ed5379ebd736000169aec8ac9b5a1606cd209266ff9a09","arctic","swim","3537.900000035763","","","","","","","survey","","","","","","","","","","","","","{""HC"":""""}","","","health-concerns",""
"html-button-response","106","3166255","0.0-11.0-0.0","cbf4bf78c6c77c8ec9ed5379ebd736000169aec8ac9b5a1606cd209266ff9a09","arctic","swim","2310","","<p>How would you describe your musical skills/experiences?</p>","2","","","","survey","","","","","","","","","","","","","","","","music-skill","3"
"survey-multi-choice","107","3169379","0.0-11.0-1.0","cbf4bf78c6c77c8ec9ed5379ebd736000169aec8ac9b5a1606cd209266ff9a09","arctic","swim","2870","","","","","","","survey","","","","","","","","","","","","","{""Q0"":""No""}","","","music-instrument","No"
"html-button-response","108","3172286","0.0-12.0-0.0","cbf4bf78c6c77c8ec9ed5379ebd736000169aec8ac9b5a1606cd209266ff9a09","arctic","swim","2656","","<p>How would you describe your general hearing abilities?</p>","5","","","","survey","","","","","","","","","","","","","","","","ssq-01","6"
"html-button-response","109","3189144","0.0-12.0-1.0","cbf4bf78c6c77c8ec9ed5379ebd736000169aec8ac9b5a1606cd209266ff9a09","arctic","swim","16606","","<p>When you talk with someone at a place that strongly reverberates/echoes (e.g., in a church or train station),</br>can you understand what the person says?</p>","8","","","","survey","","","","","","","","","","","","","","","","ssq-02","8"
"html-button-response","110","3192915","0.0-12.0-2.0","cbf4bf78c6c77c8ec9ed5379ebd736000169aec8ac9b5a1606cd209266ff9a09","arctic","swim","3516","","<p>When you are with a group (~5 people) in a lively restaurant, can you follow the group's conversation?</p>","10","","","","survey","","","","","","","","","","","","","","","","ssq-03","10"
"html-button-response","111","3195673","0.0-12.0-3.0","cbf4bf78c6c77c8ec9ed5379ebd736000169aec8ac9b5a1606cd209266ff9a09","arctic","swim","2506","","<p>Based on the sound of a bus or truck, can you tell whether it is moving towards or away from you?</p>","10","","","","survey","","","","","","","","","","","","","","","","ssq-04","10"
"html-button-response","112","3198584","0.0-12.0-4.0","cbf4bf78c6c77c8ec9ed5379ebd736000169aec8ac9b5a1606cd209266ff9a09","arctic","swim","2661","","<p>When you are in an unknown environment, can you tell from which direction a brief sound originates?</p>","10","","","","survey","","","","","","","","","","","","","","","","ssq-05","10"
"html-button-response","113","3203117","0.0-12.0-5.0","cbf4bf78c6c77c8ec9ed5379ebd736000169aec8ac9b5a1606cd209266ff9a09","arctic","swim","4280","","<p>Are you able to ignore distracting sounds when you concentrate on a specific aspect of your acoustic surrounding?</p>","9","","","","survey","","","","","","","","","","","","","","","","ssq-06","9"
"fullscreen","114","3204371","0.0-13.0","cbf4bf78c6c77c8ec9ed5379ebd736000169aec8ac9b5a1606cd209266ff9a09","arctic","swim","","","","","","","","","true","","","","","","","","","","","","","","","",""
