"trial_type","trial_index","time_elapsed","internal_node_id","ParticipantID","firstStory","scramStory","rt","url","stimulus","button_pressed","key_press","correctRESP","correct","designation","success","letterStim","letterType","ONSET","TIMEOUT","CONDITION","Participant","ONSET_ACTUAL","RT","RESP","ACC","STORY","responses","response","type","surveyQuestion","QRESP"
"pavlovia","0","3","0.0-0.0","81a45996d8e8fd9e71c219f459c53647a04e70f1562b3dc757e7df0d64f15db1","arctic","arctic","","","","","","","","","","","","","","","","","","","","","","","","",""
"external-html","1","16339","0.0-1.0","81a45996d8e8fd9e71c219f459c53647a04e70f1562b3dc757e7df0d64f15db1","arctic","arctic","16123","consent/consent_updated.html","","","","","","","","","","","","","","","","","","","","","","",""
"html-button-response","2","18183","0.0-2.0-0.0","81a45996d8e8fd9e71c219f459c53647a04e70f1562b3dc757e7df0d64f15db1","arctic","arctic","1843","","<p>Before we begin the main task, you will complete a short volume calibration and headphone check.</p><p>Please make sure you are in a quiet listening environment, that you are wearing headphones, and that your computer's volume is turned on.<p></p>","0","","","","","","","","","","","","","","","","","","","","",""
"html-button-response","3","20275","0.0-2.0-1.0","81a45996d8e8fd9e71c219f459c53647a04e70f1562b3dc757e7df0d64f15db1","arctic","arctic","1842","","<p>The volume calibration will be first.</p><p>You will hear a thirty-second noise. Please adjust your computer's volume so that this noise is being presented at a comfortable level.<p></p>","0","","","","","","","","","","","","","","","","","","","","",""
"audio-button-response","4","24786","0.0-2.0-2.0","81a45996d8e8fd9e71c219f459c53647a04e70f1562b3dc757e7df0d64f15db1","arctic","arctic","4259","","audio/volumetest.mp3","0","","","","","","","","","","","","","","","","","","","","",""
"html-keyboard-response","5","29965","0.0-3.0-0.0","81a45996d8e8fd9e71c219f459c53647a04e70f1562b3dc757e7df0d64f15db1","arctic","arctic","5178","","<p>You will now complete a short headphone check.</p><p>On each trial, you will hear three tones. One of these tones will be quieter than the others. Your task is to identify whether the quiet tone occurred first, second, or third.</p><p>There are six trials in total.<p></p><p></p>(Press SPACEBAR to begin)","","32","","","","","","","","","","","","","","","","","","","",""
"html-keyboard-response","6","30717","0.0-3.0-1.0-0.0","81a45996d8e8fd9e71c219f459c53647a04e70f1562b3dc757e7df0d64f15db1","arctic","arctic","null","","<div style=""font-size:60px;"">+</div>","","null","","","","","","","","","","","","","","","","","","","",""
"audio-button-response","7","34898","0.0-3.0-1.0-1.0","81a45996d8e8fd9e71c219f459c53647a04e70f1562b3dc757e7df0d64f15db1","arctic","arctic","4181","","audio/t2_1.mp3","0","","1","0","headphone-test","","","","","","","","","","","","","","","","",""
"html-keyboard-response","8","35399","0.0-3.0-1.0-2.0","81a45996d8e8fd9e71c219f459c53647a04e70f1562b3dc757e7df0d64f15db1","arctic","arctic","null","","<p>Incorrect</p>","","null","","","","","","","","","","","","","","","","","","","",""
"html-keyboard-response","9","35900","0.0-3.0-1.0-0.1","81a45996d8e8fd9e71c219f459c53647a04e70f1562b3dc757e7df0d64f15db1","arctic","arctic","null","","<div style=""font-size:60px;"">+</div>","","null","","","","","","","","","","","","","","","","","","","",""
"audio-button-response","10","40522","0.0-3.0-1.0-1.1","81a45996d8e8fd9e71c219f459c53647a04e70f1562b3dc757e7df0d64f15db1","arctic","arctic","4621","","audio/t1_2.mp3","2","","0","0","headphone-test","","","","","","","","","","","","","","","","",""
"html-keyboard-response","11","41023","0.0-3.0-1.0-2.1","81a45996d8e8fd9e71c219f459c53647a04e70f1562b3dc757e7df0d64f15db1","arctic","arctic","null","","<p>Incorrect</p>","","null","","","","","","","","","","","","","","","","","","","",""
"html-keyboard-response","12","41524","0.0-3.0-1.0-0.2","81a45996d8e8fd9e71c219f459c53647a04e70f1562b3dc757e7df0d64f15db1","arctic","arctic","null","","<div style=""font-size:60px;"">+</div>","","null","","","","","","","","","","","","","","","","","","","",""
"audio-button-response","13","46100","0.0-3.0-1.0-1.2","81a45996d8e8fd9e71c219f459c53647a04e70f1562b3dc757e7df0d64f15db1","arctic","arctic","4574","","audio/t3_1.mp3","0","","2","0","headphone-test","","","","","","","","","","","","","","","","",""
"html-keyboard-response","14","46601","0.0-3.0-1.0-2.2","81a45996d8e8fd9e71c219f459c53647a04e70f1562b3dc757e7df0d64f15db1","arctic","arctic","null","","<p>Incorrect</p>","","null","","","","","","","","","","","","","","","","","","","",""
"html-keyboard-response","15","47102","0.0-3.0-1.0-0.3","81a45996d8e8fd9e71c219f459c53647a04e70f1562b3dc757e7df0d64f15db1","arctic","arctic","null","","<div style=""font-size:60px;"">+</div>","","null","","","","","","","","","","","","","","","","","","","",""
"audio-button-response","16","52725","0.0-3.0-1.0-1.3","81a45996d8e8fd9e71c219f459c53647a04e70f1562b3dc757e7df0d64f15db1","arctic","arctic","5621","","audio/t2_2.mp3","1","","1","1","headphone-test","","","","","","","","","","","","","","","","",""
"html-keyboard-response","17","53226","0.0-3.0-1.0-2.3","81a45996d8e8fd9e71c219f459c53647a04e70f1562b3dc757e7df0d64f15db1","arctic","arctic","null","","<p>Correct</p>","","null","","","","","","","","","","","","","","","","","","","",""
"html-keyboard-response","18","53727","0.0-3.0-1.0-0.4","81a45996d8e8fd9e71c219f459c53647a04e70f1562b3dc757e7df0d64f15db1","arctic","arctic","null","","<div style=""font-size:60px;"">+</div>","","null","","","","","","","","","","","","","","","","","","","",""
"audio-button-response","19","58009","0.0-3.0-1.0-1.4","81a45996d8e8fd9e71c219f459c53647a04e70f1562b3dc757e7df0d64f15db1","arctic","arctic","4281","","audio/t1_1.mp3","1","","0","0","headphone-test","","","","","","","","","","","","","","","","",""
"html-keyboard-response","20","58510","0.0-3.0-1.0-2.4","81a45996d8e8fd9e71c219f459c53647a04e70f1562b3dc757e7df0d64f15db1","arctic","arctic","null","","<p>Incorrect</p>","","null","","","","","","","","","","","","","","","","","","","",""
"html-keyboard-response","21","59011","0.0-3.0-1.0-0.5","81a45996d8e8fd9e71c219f459c53647a04e70f1562b3dc757e7df0d64f15db1","arctic","arctic","null","","<div style=""font-size:60px;"">+</div>","","null","","","","","","","","","","","","","","","","","","","",""
"audio-button-response","22","64524","0.0-3.0-1.0-1.5","81a45996d8e8fd9e71c219f459c53647a04e70f1562b3dc757e7df0d64f15db1","arctic","arctic","5511","","audio/t3_2.mp3","1","","2","0","headphone-test","","","","","","","","","","","","","","","","",""
"html-keyboard-response","23","65024","0.0-3.0-1.0-2.5","81a45996d8e8fd9e71c219f459c53647a04e70f1562b3dc757e7df0d64f15db1","arctic","arctic","null","","<p>Incorrect</p>","","null","","","","","","","","","","","","","","","","","","","",""
"fullscreen","24","67112","0.0-4.0","81a45996d8e8fd9e71c219f459c53647a04e70f1562b3dc757e7df0d64f15db1","arctic","arctic","","","","","","","","","true","","","","","","","","","","","","","","","",""
"html-button-response","25","71827","0.0-5.0-0.0","81a45996d8e8fd9e71c219f459c53647a04e70f1562b3dc757e7df0d64f15db1","arctic","arctic","4713","","<p>There are two blocks to this experiment.</p><p>In each block, you will hear a ~13.5 minute story. One of the stories will be scrambled. Please listen carefully to both stories and understand them as best you can.</p><p>After each story, you will be asked some questions to assess your comprehension.</p>","0","","","","","","","","","","","","","","","","","","","","",""
"html-button-response","26","80404","0.0-5.0-1.0","81a45996d8e8fd9e71c219f459c53647a04e70f1562b3dc757e7df0d64f15db1","arctic","arctic","8576","","<p>During each story, there will be an additional task.</p><p>A letter will occasionally appear on the screen.</br>Your job is to - as quickly as you can - decide whether the letter is lowercase or uppercase and press one of two keys on the keyboard:</p><p>If the letter is <b>lowercase</b>, press key &lt;<b>x</b>&gt;.</p><p>If the letter is <b>uppercase</b>, press key &lt;<b>m</b>&gt;.</p>","0","","","","","","","","","","","","","","","","","","","","",""
"html-keyboard-response","27","85911","0.0-5.0-2.0","81a45996d8e8fd9e71c219f459c53647a04e70f1562b3dc757e7df0d64f15db1","arctic","arctic","5507","","<p>Because we want your responses to be as quick as possible, please keep your index fingers over the keys while listening.</p><p>Each block lasts about 20 minutes.</p><p><b>Press &lt;x&gt; or &lt;m&gt; to start the first block!</b></p>","","88","","","","","","","","","","","","","","","","","","","",""
"html-keyboard-response","28","86412","0.0-6.0-0.0-0.0","81a45996d8e8fd9e71c219f459c53647a04e70f1562b3dc757e7df0d64f15db1","arctic","arctic","null","","<div style=""font-size:60px;"" tabindex=""0"">+</div>","","null","","","","","","","","","","","","","","","","","","","",""
"dual-task","null","null","null","","arctic","arctic","1047.9000000003725","","F","null","77","77","1","arctic-dual-task","","F","uppercase","16000","0","4","81a45996d8e8fd9e71c219f459c53647a04e70f1562b3dc757e7df0d64f15db1","16000.400000000373","1047.9000000003725","77","1","arctic","","","","",""
"dual-task","null","null","null","","arctic","arctic","671.9000000003725","","t","null","88","88","1","arctic-dual-task","","t","lowercase","22000","0","4","81a45996d8e8fd9e71c219f459c53647a04e70f1562b3dc757e7df0d64f15db1","22001","671.9000000003725","88","1","arctic","","","","",""
"dual-task","null","null","null","","arctic","arctic","690.9000000003725","","e","null","88","88","1","arctic-dual-task","","e","lowercase","30000","0","4","81a45996d8e8fd9e71c219f459c53647a04e70f1562b3dc757e7df0d64f15db1","30000.400000000373","690.9000000003725","88","1","arctic","","","","",""
"dual-task","null","null","null","","arctic","arctic","649","","d","null","88","88","1","arctic-dual-task","","d","lowercase","40000","0","4","81a45996d8e8fd9e71c219f459c53647a04e70f1562b3dc757e7df0d64f15db1","39999.79999999888","649","88","1","arctic","","","","",""
"dual-task","null","null","null","","arctic","arctic","761.0999999996275","","G","null","77","77","1","arctic-dual-task","","G","uppercase","52000","0","4","81a45996d8e8fd9e71c219f459c53647a04e70f1562b3dc757e7df0d64f15db1","52000.199999999255","761.0999999996275","77","1","arctic","","","","",""
"dual-task","null","null","null","","arctic","arctic","578.6000000014901","","b","null","88","88","1","arctic-dual-task","","b","lowercase","60000","0","4","81a45996d8e8fd9e71c219f459c53647a04e70f1562b3dc757e7df0d64f15db1","60000.199999999255","578.6000000014901","88","1","arctic","","","","",""
"dual-task","null","null","null","","arctic","arctic","594.7999999988824","","R","null","77","77","1","arctic-dual-task","","R","uppercase","66000","0","4","81a45996d8e8fd9e71c219f459c53647a04e70f1562b3dc757e7df0d64f15db1","66000.5","594.7999999988824","77","1","arctic","","","","",""
"dual-task","null","null","null","","arctic","arctic","777.5","","f","null","88","88","1","arctic-dual-task","","f","lowercase","74000","0","4","81a45996d8e8fd9e71c219f459c53647a04e70f1562b3dc757e7df0d64f15db1","74001.19999999925","777.5","88","1","arctic","","","","",""
"dual-task","null","null","null","","arctic","arctic","554.1999999992549","","T","null","77","77","1","arctic-dual-task","","T","uppercase","80000","0","4","81a45996d8e8fd9e71c219f459c53647a04e70f1562b3dc757e7df0d64f15db1","79999.90000000037","554.1999999992549","77","1","arctic","","","","",""
"dual-task","null","null","null","","arctic","arctic","610.9000000003725","","A","null","77","77","1","arctic-dual-task","","A","uppercase","94000","0","4","81a45996d8e8fd9e71c219f459c53647a04e70f1562b3dc757e7df0d64f15db1","94000.29999999888","610.9000000003725","77","1","arctic","","","","",""
"dual-task","null","null","null","","arctic","arctic","616.0999999996275","","n","null","88","88","1","arctic-dual-task","","n","lowercase","106000","0","4","81a45996d8e8fd9e71c219f459c53647a04e70f1562b3dc757e7df0d64f15db1","106001.19999999925","616.0999999996275","88","1","arctic","","","","",""
"dual-task","null","null","null","","arctic","arctic","593.6000000014901","","a","null","88","88","1","arctic-dual-task","","a","lowercase","118000","0","4","81a45996d8e8fd9e71c219f459c53647a04e70f1562b3dc757e7df0d64f15db1","117999.69999999925","593.6000000014901","88","1","arctic","","","","",""
"dual-task","null","null","null","","arctic","arctic","603.0999999996275","","n","null","88","88","1","arctic-dual-task","","n","lowercase","130000","0","4","81a45996d8e8fd9e71c219f459c53647a04e70f1562b3dc757e7df0d64f15db1","130000.09999999963","603.0999999996275","88","1","arctic","","","","",""
"dual-task","null","null","null","","arctic","arctic","693.3999999985099","","G","null","77","77","1","arctic-dual-task","","G","uppercase","142000","0","4","81a45996d8e8fd9e71c219f459c53647a04e70f1562b3dc757e7df0d64f15db1","141999.90000000037","693.3999999985099","77","1","arctic","","","","",""
"dual-task","null","null","null","","arctic","arctic","763.7999999988824","","A","null","77","77","1","arctic-dual-task","","A","uppercase","156000","0","4","81a45996d8e8fd9e71c219f459c53647a04e70f1562b3dc757e7df0d64f15db1","156000.5","763.7999999988824","77","1","arctic","","","","",""
"dual-task","null","null","null","","arctic","arctic","1107.5","","B","null","77","77","1","arctic-dual-task","","B","uppercase","162000","0","4","81a45996d8e8fd9e71c219f459c53647a04e70f1562b3dc757e7df0d64f15db1","162000.29999999888","1107.5","77","1","arctic","","","","",""
"dual-task","null","null","null","","arctic","arctic","465.19999999925494","","B","null","77","77","1","arctic-dual-task","","B","uppercase","176000","0","4","81a45996d8e8fd9e71c219f459c53647a04e70f1562b3dc757e7df0d64f15db1","176000.40000000037","465.19999999925494","77","1","arctic","","","","",""
"dual-task","null","null","null","","arctic","arctic","1087.199999999255","","D","null","77","77","1","arctic-dual-task","","D","uppercase","184000","0","4","81a45996d8e8fd9e71c219f459c53647a04e70f1562b3dc757e7df0d64f15db1","184000.59999999963","1087.199999999255","77","1","arctic","","","","",""
"dual-task","null","null","null","","arctic","arctic","1749.7999999988824","","r","null","88","88","1","arctic-dual-task","","r","lowercase","192000","0","4","81a45996d8e8fd9e71c219f459c53647a04e70f1562b3dc757e7df0d64f15db1","192000","1749.7999999988824","88","1","arctic","","","","",""
"dual-task","null","null","null","","arctic","arctic","597.6999999992549","","a","null","88","88","1","arctic-dual-task","","a","lowercase","206000","0","4","81a45996d8e8fd9e71c219f459c53647a04e70f1562b3dc757e7df0d64f15db1","206000.5","597.6999999992549","88","1","arctic","","","","",""
"dual-task","null","null","null","","arctic","arctic","518.5999999996275","","N","null","77","77","1","arctic-dual-task","","N","uppercase","216000","0","4","81a45996d8e8fd9e71c219f459c53647a04e70f1562b3dc757e7df0d64f15db1","216000.09999999963","518.5999999996275","77","1","arctic","","","","",""
"dual-task","null","null","null","","arctic","arctic","490.80000000074506","","N","null","77","77","1","arctic-dual-task","","N","uppercase","226000","0","4","81a45996d8e8fd9e71c219f459c53647a04e70f1562b3dc757e7df0d64f15db1","226000.29999999888","490.80000000074506","77","1","arctic","","","","",""
"dual-task","null","null","null","","arctic","arctic","654.2999999988824","","E","null","77","77","1","arctic-dual-task","","E","uppercase","238000","0","4","81a45996d8e8fd9e71c219f459c53647a04e70f1562b3dc757e7df0d64f15db1","237999.90000000037","654.2999999988824","77","1","arctic","","","","",""
"dual-task","null","null","null","","arctic","arctic","705.9000000003725","","b","null","88","88","1","arctic-dual-task","","b","lowercase","252000","0","4","81a45996d8e8fd9e71c219f459c53647a04e70f1562b3dc757e7df0d64f15db1","252000.29999999888","705.9000000003725","88","1","arctic","","","","",""
"dual-task","null","null","null","","arctic","arctic","977.2999999988824","","r","null","88","88","1","arctic-dual-task","","r","lowercase","262000","0","4","81a45996d8e8fd9e71c219f459c53647a04e70f1562b3dc757e7df0d64f15db1","261999.90000000037","977.2999999988824","88","1","arctic","","","","",""
"dual-task","null","null","null","","arctic","arctic","505.69999999925494","","d","null","88","88","1","arctic-dual-task","","d","lowercase","272000","0","4","81a45996d8e8fd9e71c219f459c53647a04e70f1562b3dc757e7df0d64f15db1","272000","505.69999999925494","88","1","arctic","","","","",""
"dual-task","null","null","null","","arctic","arctic","510.90000000037253","","t","null","88","88","1","arctic-dual-task","","t","lowercase","280000","0","4","81a45996d8e8fd9e71c219f459c53647a04e70f1562b3dc757e7df0d64f15db1","280000.2999999989","510.90000000037253","88","1","arctic","","","","",""
"dual-task","null","null","null","","arctic","arctic","745.5","","h","null","88","88","1","arctic-dual-task","","h","lowercase","288000","0","4","81a45996d8e8fd9e71c219f459c53647a04e70f1562b3dc757e7df0d64f15db1","288001.0999999996","745.5","88","1","arctic","","","","",""
"dual-task","null","null","null","","arctic","arctic","481.7999999988824","","R","null","88","77","0","arctic-dual-task","","R","uppercase","294000","0","4","81a45996d8e8fd9e71c219f459c53647a04e70f1562b3dc757e7df0d64f15db1","294000.5","481.7999999988824","88","0","arctic","","","","",""
"dual-task","null","null","null","","arctic","arctic","427","","a","null","88","88","1","arctic-dual-task","","a","lowercase","302000","0","4","81a45996d8e8fd9e71c219f459c53647a04e70f1562b3dc757e7df0d64f15db1","302000.69999999925","427","88","1","arctic","","","","",""
"dual-task","null","null","null","","arctic","arctic","611.5999999996275","","T","null","77","77","1","arctic-dual-task","","T","uppercase","308000","0","4","81a45996d8e8fd9e71c219f459c53647a04e70f1562b3dc757e7df0d64f15db1","308000.5","611.5999999996275","77","1","arctic","","","","",""
"dual-task","null","null","null","","arctic","arctic","623.7999999988824","","f","null","88","88","1","arctic-dual-task","","f","lowercase","318000","0","4","81a45996d8e8fd9e71c219f459c53647a04e70f1562b3dc757e7df0d64f15db1","318000.5","623.7999999988824","88","1","arctic","","","","",""
"dual-task","null","null","null","","arctic","arctic","546.0999999996275","","q","null","88","88","1","arctic-dual-task","","q","lowercase","324000","0","4","81a45996d8e8fd9e71c219f459c53647a04e70f1562b3dc757e7df0d64f15db1","324000.5999999996","546.0999999996275","88","1","arctic","","","","",""
"dual-task","null","null","null","","arctic","arctic","468","","Q","null","77","77","1","arctic-dual-task","","Q","uppercase","330000","0","4","81a45996d8e8fd9e71c219f459c53647a04e70f1562b3dc757e7df0d64f15db1","330000.4000000004","468","77","1","arctic","","","","",""
"dual-task","null","null","null","","arctic","arctic","795.5","","r","null","88","88","1","arctic-dual-task","","r","lowercase","338000","0","4","81a45996d8e8fd9e71c219f459c53647a04e70f1562b3dc757e7df0d64f15db1","338000.19999999925","795.5","88","1","arctic","","","","",""
"dual-task","null","null","null","","arctic","arctic","673.1999999992549","","g","null","88","88","1","arctic-dual-task","","g","lowercase","348000","0","4","81a45996d8e8fd9e71c219f459c53647a04e70f1562b3dc757e7df0d64f15db1","348000.9000000004","673.1999999992549","88","1","arctic","","","","",""
"dual-task","null","null","null","","arctic","arctic","682.6999999992549","","g","null","88","88","1","arctic-dual-task","","g","lowercase","362000","0","4","81a45996d8e8fd9e71c219f459c53647a04e70f1562b3dc757e7df0d64f15db1","362000.4000000004","682.6999999992549","88","1","arctic","","","","",""
"dual-task","null","null","null","","arctic","arctic","577.1999999992549","","A","null","77","77","1","arctic-dual-task","","A","uppercase","374000","0","4","81a45996d8e8fd9e71c219f459c53647a04e70f1562b3dc757e7df0d64f15db1","374001","577.1999999992549","77","1","arctic","","","","",""
"dual-task","null","null","null","","arctic","arctic","554.5","","F","null","77","77","1","arctic-dual-task","","F","uppercase","384000","0","4","81a45996d8e8fd9e71c219f459c53647a04e70f1562b3dc757e7df0d64f15db1","384001.0999999996","554.5","77","1","arctic","","","","",""
"dual-task","null","null","null","","arctic","arctic","525.5999999996275","","N","null","77","77","1","arctic-dual-task","","N","uppercase","390000","0","4","81a45996d8e8fd9e71c219f459c53647a04e70f1562b3dc757e7df0d64f15db1","390000.5","525.5999999996275","77","1","arctic","","","","",""
"dual-task","null","null","null","","arctic","arctic","739.1999999992549","","R","null","88","77","0","arctic-dual-task","","R","uppercase","402000","0","4","81a45996d8e8fd9e71c219f459c53647a04e70f1562b3dc757e7df0d64f15db1","402000","739.1999999992549","88","0","arctic","","","","",""
"dual-task","null","null","null","","arctic","arctic","562.5","","d","null","88","88","1","arctic-dual-task","","d","lowercase","410000","0","4","81a45996d8e8fd9e71c219f459c53647a04e70f1562b3dc757e7df0d64f15db1","410000.0999999996","562.5","88","1","arctic","","","","",""
"dual-task","null","null","null","","arctic","arctic","657.0999999996275","","T","null","77","77","1","arctic-dual-task","","T","uppercase","416000","0","4","81a45996d8e8fd9e71c219f459c53647a04e70f1562b3dc757e7df0d64f15db1","416000.9000000004","657.0999999996275","77","1","arctic","","","","",""
"dual-task","null","null","null","","arctic","arctic","598.1999999992549","","h","null","88","88","1","arctic-dual-task","","h","lowercase","426000","0","4","81a45996d8e8fd9e71c219f459c53647a04e70f1562b3dc757e7df0d64f15db1","426001.5999999996","598.1999999992549","88","1","arctic","","","","",""
"dual-task","null","null","null","","arctic","arctic","542.9000000003725","","R","null","77","77","1","arctic-dual-task","","R","uppercase","434000","0","4","81a45996d8e8fd9e71c219f459c53647a04e70f1562b3dc757e7df0d64f15db1","434000.2999999989","542.9000000003725","77","1","arctic","","","","",""
"dual-task","null","null","null","","arctic","arctic","540.9000000003725","","e","null","88","88","1","arctic-dual-task","","e","lowercase","444000","0","4","81a45996d8e8fd9e71c219f459c53647a04e70f1562b3dc757e7df0d64f15db1","444000.5999999996","540.9000000003725","88","1","arctic","","","","",""
"dual-task","null","null","null","","arctic","arctic","582.5","","A","null","77","77","1","arctic-dual-task","","A","uppercase","458000","0","4","81a45996d8e8fd9e71c219f459c53647a04e70f1562b3dc757e7df0d64f15db1","458000","582.5","77","1","arctic","","","","",""
"dual-task","null","null","null","","arctic","arctic","760.2999999988824","","b","null","88","88","1","arctic-dual-task","","b","lowercase","466000","0","4","81a45996d8e8fd9e71c219f459c53647a04e70f1562b3dc757e7df0d64f15db1","466000.4000000004","760.2999999988824","88","1","arctic","","","","",""
"dual-task","null","null","null","","arctic","arctic","519.4000000003725","","Q","null","77","77","1","arctic-dual-task","","Q","uppercase","478000","0","4","81a45996d8e8fd9e71c219f459c53647a04e70f1562b3dc757e7df0d64f15db1","478000.7999999989","519.4000000003725","77","1","arctic","","","","",""
"dual-task","null","null","null","","arctic","arctic","497.90000000037253","","h","null","88","88","1","arctic-dual-task","","h","lowercase","492000","0","4","81a45996d8e8fd9e71c219f459c53647a04e70f1562b3dc757e7df0d64f15db1","492001.2999999989","497.90000000037253","88","1","arctic","","","","",""
"dual-task","null","null","null","","arctic","arctic","652.1999999992549","","e","null","88","88","1","arctic-dual-task","","e","lowercase","506000","0","4","81a45996d8e8fd9e71c219f459c53647a04e70f1562b3dc757e7df0d64f15db1","506000.7999999989","652.1999999992549","88","1","arctic","","","","",""
"dual-task","null","null","null","","arctic","arctic","557.5","","D","null","77","77","1","arctic-dual-task","","D","uppercase","520000","0","4","81a45996d8e8fd9e71c219f459c53647a04e70f1562b3dc757e7df0d64f15db1","520001.5999999996","557.5","77","1","arctic","","","","",""
"dual-task","null","null","null","","arctic","arctic","600.3000000007451","","q","null","88","88","1","arctic-dual-task","","q","lowercase","532000","0","4","81a45996d8e8fd9e71c219f459c53647a04e70f1562b3dc757e7df0d64f15db1","532000.7999999989","600.3000000007451","88","1","arctic","","","","",""
"dual-task","null","null","null","","arctic","arctic","515.7000000011176","","Q","null","77","77","1","arctic-dual-task","","Q","uppercase","544000","0","4","81a45996d8e8fd9e71c219f459c53647a04e70f1562b3dc757e7df0d64f15db1","544000.2999999989","515.7000000011176","77","1","arctic","","","","",""
"dual-task","null","null","null","","arctic","arctic","425","","B","null","77","77","1","arctic-dual-task","","B","uppercase","550000","0","4","81a45996d8e8fd9e71c219f459c53647a04e70f1562b3dc757e7df0d64f15db1","550000.5","425","77","1","arctic","","","","",""
"dual-task","null","null","null","","arctic","arctic","751.8000000007451","","H","null","77","77","1","arctic-dual-task","","H","uppercase","558000","0","4","81a45996d8e8fd9e71c219f459c53647a04e70f1562b3dc757e7df0d64f15db1","558000.0999999996","751.8000000007451","77","1","arctic","","","","",""
"dual-task","null","null","null","","arctic","arctic","629.3000000007451","","B","null","77","77","1","arctic-dual-task","","B","uppercase","566000","0","4","81a45996d8e8fd9e71c219f459c53647a04e70f1562b3dc757e7df0d64f15db1","566000.2999999989","629.3000000007451","77","1","arctic","","","","",""
"dual-task","null","null","null","","arctic","arctic","480.80000000074506","","D","null","77","77","1","arctic-dual-task","","D","uppercase","580000","0","4","81a45996d8e8fd9e71c219f459c53647a04e70f1562b3dc757e7df0d64f15db1","580000.1999999993","480.80000000074506","77","1","arctic","","","","",""
"dual-task","null","null","null","","arctic","arctic","552.5","","g","null","88","88","1","arctic-dual-task","","g","lowercase","588000","0","4","81a45996d8e8fd9e71c219f459c53647a04e70f1562b3dc757e7df0d64f15db1","588000.1999999993","552.5","88","1","arctic","","","","",""
"dual-task","null","null","null","","arctic","arctic","647.1999999992549","","f","null","88","88","1","arctic-dual-task","","f","lowercase","598000","0","4","81a45996d8e8fd9e71c219f459c53647a04e70f1562b3dc757e7df0d64f15db1","598001.9000000004","647.1999999992549","88","1","arctic","","","","",""
"dual-task","null","null","null","","arctic","arctic","568.5999999996275","","n","null","88","88","1","arctic-dual-task","","n","lowercase","606000","0","4","81a45996d8e8fd9e71c219f459c53647a04e70f1562b3dc757e7df0d64f15db1","606001.6999999993","568.5999999996275","88","1","arctic","","","","",""
"dual-task","null","null","null","","arctic","arctic","562.9000000003725","","q","null","88","88","1","arctic-dual-task","","q","lowercase","616000","0","4","81a45996d8e8fd9e71c219f459c53647a04e70f1562b3dc757e7df0d64f15db1","616002.0999999996","562.9000000003725","88","1","arctic","","","","",""
"dual-task","null","null","null","","arctic","arctic","767.4000000003725","","r","null","88","88","1","arctic-dual-task","","r","lowercase","630000","0","4","81a45996d8e8fd9e71c219f459c53647a04e70f1562b3dc757e7df0d64f15db1","630001","767.4000000003725","88","1","arctic","","","","",""
"dual-task","null","null","null","","arctic","arctic","431","","Q","null","88","77","0","arctic-dual-task","","Q","uppercase","640000","0","4","81a45996d8e8fd9e71c219f459c53647a04e70f1562b3dc757e7df0d64f15db1","640000.5","431","88","0","arctic","","","","",""
"dual-task","null","null","null","","arctic","arctic","1146.300000000745","","E","null","77","77","1","arctic-dual-task","","E","uppercase","652000","0","4","81a45996d8e8fd9e71c219f459c53647a04e70f1562b3dc757e7df0d64f15db1","652000.6999999993","1146.300000000745","77","1","arctic","","","","",""
"dual-task","null","null","null","","arctic","arctic","742.2000000011176","","b","null","88","88","1","arctic-dual-task","","b","lowercase","666000","0","4","81a45996d8e8fd9e71c219f459c53647a04e70f1562b3dc757e7df0d64f15db1","666000.6999999993","742.2000000011176","88","1","arctic","","","","",""
"dual-task","null","null","null","","arctic","arctic","1757.4000000003725","","H","null","77","77","1","arctic-dual-task","","H","uppercase","676000","0","4","81a45996d8e8fd9e71c219f459c53647a04e70f1562b3dc757e7df0d64f15db1","676000.5999999996","1757.4000000003725","77","1","arctic","","","","",""
"dual-task","null","null","null","","arctic","arctic","1210.5","","G","null","77","77","1","arctic-dual-task","","G","uppercase","684000","0","4","81a45996d8e8fd9e71c219f459c53647a04e70f1562b3dc757e7df0d64f15db1","684001.0999999996","1210.5","77","1","arctic","","","","",""
"dual-task","null","null","null","","arctic","arctic","770.4000000003725","","d","null","88","88","1","arctic-dual-task","","d","lowercase","694000","0","4","81a45996d8e8fd9e71c219f459c53647a04e70f1562b3dc757e7df0d64f15db1","694001.5999999996","770.4000000003725","88","1","arctic","","","","",""
"dual-task","null","null","null","","arctic","arctic","1617.199999999255","","f","null","88","88","1","arctic-dual-task","","f","lowercase","706000","0","4","81a45996d8e8fd9e71c219f459c53647a04e70f1562b3dc757e7df0d64f15db1","706000.9000000004","1617.199999999255","88","1","arctic","","","","",""
"dual-task","null","null","null","","arctic","arctic","563.5","","e","null","88","88","1","arctic-dual-task","","e","lowercase","714000","0","4","81a45996d8e8fd9e71c219f459c53647a04e70f1562b3dc757e7df0d64f15db1","714001","563.5","88","1","arctic","","","","",""
"dual-task","null","null","null","","arctic","arctic","579.7999999988824","","q","null","88","88","1","arctic-dual-task","","q","lowercase","728000","0","4","81a45996d8e8fd9e71c219f459c53647a04e70f1562b3dc757e7df0d64f15db1","728000.4000000004","579.7999999988824","88","1","arctic","","","","",""
"dual-task","null","null","null","","arctic","arctic","1748.800000000745","","t","null","88","88","1","arctic-dual-task","","t","lowercase","742000","0","4","81a45996d8e8fd9e71c219f459c53647a04e70f1562b3dc757e7df0d64f15db1","742000.1999999993","1748.800000000745","88","1","arctic","","","","",""
"dual-task","null","null","null","","arctic","arctic","1442.7999999988824","","N","null","77","77","1","arctic-dual-task","","N","uppercase","756000","0","4","81a45996d8e8fd9e71c219f459c53647a04e70f1562b3dc757e7df0d64f15db1","756000.4000000004","1442.7999999988824","77","1","arctic","","","","",""
"dual-task","null","null","null","","arctic","arctic","1381.2000000011176","","D","null","77","77","1","arctic-dual-task","","D","uppercase","762000","0","4","81a45996d8e8fd9e71c219f459c53647a04e70f1562b3dc757e7df0d64f15db1","762000.2999999989","1381.2000000011176","77","1","arctic","","","","",""
"dual-task","null","null","null","","arctic","arctic","648.9000000003725","","F","null","77","77","1","arctic-dual-task","","F","uppercase","770000","0","4","81a45996d8e8fd9e71c219f459c53647a04e70f1562b3dc757e7df0d64f15db1","770001","648.9000000003725","77","1","arctic","","","","",""
"dual-task","null","null","null","","arctic","arctic","952.5999999996275","","n","null","88","88","1","arctic-dual-task","","n","lowercase","776000","0","4","81a45996d8e8fd9e71c219f459c53647a04e70f1562b3dc757e7df0d64f15db1","776001.9000000004","952.5999999996275","88","1","arctic","","","","",""
"dual-task","null","null","null","","arctic","arctic","997.4000000003725","","G","null","77","77","1","arctic-dual-task","","G","uppercase","784000","0","4","81a45996d8e8fd9e71c219f459c53647a04e70f1562b3dc757e7df0d64f15db1","784000.5","997.4000000003725","77","1","arctic","","","","",""
"audio-keyboard-response","29","884412","0.0-6.0-0.0-1.0","81a45996d8e8fd9e71c219f459c53647a04e70f1562b3dc757e7df0d64f15db1","arctic","arctic","null","","audio/story_arctic_scrambled.mp3","","null","","","","","","","","","","","","","","","","","","","",""
"html-button-response","30","888319","0.0-6.0-0.0-2.0","81a45996d8e8fd9e71c219f459c53647a04e70f1562b3dc757e7df0d64f15db1","arctic","arctic","3905","","<p>This concludes the story. Thank you for listening.</p><p>You will now answer some questions about the content of the story.</p>","0","","","","","","","","","","","","","","","","","","","","",""
"survey-multi-choice","31","895661","0.0-6.0-0.0-3.0-0.0","81a45996d8e8fd9e71c219f459c53647a04e70f1562b3dc757e7df0d64f15db1","arctic","arctic","7340","","<b>What was the objective of the narrator&#39;s expedition?</b>","","","","1","arctic-comprehension","","","","","","","","","","","","","{""Q0"":""Dogsled across Arctic America""}","","","",""
"survey-multi-choice","32","901939","0.0-6.0-0.0-3.0-0.1","81a45996d8e8fd9e71c219f459c53647a04e70f1562b3dc757e7df0d64f15db1","arctic","arctic","6025","","<b>How did the narrator&#39;s neighbour respond when she told him about her expedition?</b>","","","","1","arctic-comprehension","","","","","","","","","","","","","{""Q0"":""He said she was going to fail.""}","","","",""
"survey-multi-choice","33","905650","0.0-6.0-0.0-3.0-0.2","81a45996d8e8fd9e71c219f459c53647a04e70f1562b3dc757e7df0d64f15db1","arctic","arctic","3459","","<b>What is the name of the narrator&#39;s neighbour?</b>","","","","1","arctic-comprehension","","","","","","","","","","","","","{""Q0"":""Dave""}","","","",""
"survey-multi-choice","34","908992","0.0-6.0-0.0-3.0-0.3","81a45996d8e8fd9e71c219f459c53647a04e70f1562b3dc757e7df0d64f15db1","arctic","arctic","3089","","<b>Which dog on the narrator&#39;s dog team never followed instructions?</b>","","","","0","arctic-comprehension","","","","","","","","","","","","","{""Q0"":""Douggie-dog""}","","","",""
"survey-multi-choice","35","913305","0.0-6.0-0.0-3.0-0.4","81a45996d8e8fd9e71c219f459c53647a04e70f1562b3dc757e7df0d64f15db1","arctic","arctic","4061","","<b>How many sponsorships did the narrator receive to support her expedition?</b>","","","","0","arctic-comprehension","","","","","","","","","","","","","{""Q0"":""One""}","","","",""
"survey-multi-choice","36","921274","0.0-6.0-0.0-3.0-0.5","81a45996d8e8fd9e71c219f459c53647a04e70f1562b3dc757e7df0d64f15db1","arctic","arctic","7717","","<b>How did the narrator prepare for her expedition?</b>","","","","1","arctic-comprehension","","","","","","","","","","","","","{""Q0"":""Trained in Alaska learning how to dogsled""}","","","",""
"survey-multi-choice","37","927820","0.0-6.0-0.0-3.0-0.6","81a45996d8e8fd9e71c219f459c53647a04e70f1562b3dc757e7df0d64f15db1","arctic","arctic","6293","","<b>What did the narrator do for leisure while in her tent?</b>","","","","0","arctic-comprehension","","","","","","","","","","","","","{""Q0"":""Take photos""}","","","",""
"survey-multi-choice","38","935679","0.0-6.0-0.0-3.0-0.7","81a45996d8e8fd9e71c219f459c53647a04e70f1562b3dc757e7df0d64f15db1","arctic","arctic","7607","","<b>How did the narrator&#39;s encounter with the polar bears end?</b>","","","","0","arctic-comprehension","","","","","","","","","","","","","{""Q0"":""She shot the bear with her shotgun.""}","","","",""
"survey-multi-choice","39","942138","0.0-6.0-0.0-3.0-0.8","81a45996d8e8fd9e71c219f459c53647a04e70f1562b3dc757e7df0d64f15db1","arctic","arctic","6206","","<b>What were the weather conditions in the Arctic like the winter of the narrator&#39;s expedition?</b>","","","","1","arctic-comprehension","","","","","","","","","","","","","{""Q0"":""There were more storms than any other winter in recorded history.""}","","","",""
"survey-multi-choice","40","949580","0.0-6.0-0.0-3.0-0.9","81a45996d8e8fd9e71c219f459c53647a04e70f1562b3dc757e7df0d64f15db1","arctic","arctic","7191","","<b>How did the dogs respond when they saw the bears?</b>","","","","1","arctic-comprehension","","","","","","","","","","","","","{""Q0"":""Approached them""}","","","",""
"html-button-response","41","951087","0.0-6.0-0.0-4.0","81a45996d8e8fd9e71c219f459c53647a04e70f1562b3dc757e7df0d64f15db1","arctic","arctic","1255","","<p>Thank you for your responses.</p><p>You will now answer some questions about your impressions of the story.</p>","0","","","","","","","","","","","","","","","","","","","","",""
"html-button-response","42","952829","0.0-6.0-0.0-5.0-0.0","81a45996d8e8fd9e71c219f459c53647a04e70f1562b3dc757e7df0d64f15db1","arctic","arctic","1741","","E1","5","","","","arctic-engagement","","","","","","","","","","","","","","6","enjoyment","",""
"html-button-response","43","954862","0.0-6.0-0.0-5.0-0.1","81a45996d8e8fd9e71c219f459c53647a04e70f1562b3dc757e7df0d64f15db1","arctic","arctic","1781","","E7","6","","","","arctic-engagement","","","","","","","","","","","","","","7","enjoyment","",""
"html-button-response","44","957077","0.0-6.0-0.0-5.0-0.2","81a45996d8e8fd9e71c219f459c53647a04e70f1562b3dc757e7df0d64f15db1","arctic","arctic","1963","","MS3","6","","","","arctic-engagement","","","","","","","","","","","","","","7","mental-sim","",""
"html-button-response","45","958461","0.0-6.0-0.0-5.0-0.3","81a45996d8e8fd9e71c219f459c53647a04e70f1562b3dc757e7df0d64f15db1","arctic","arctic","1132","","EE3","5","","","","arctic-engagement","","","","","","","","","","","","","","6","emo-engage","",""
"html-button-response","46","962023","0.0-6.0-0.0-5.0-0.4","81a45996d8e8fd9e71c219f459c53647a04e70f1562b3dc757e7df0d64f15db1","arctic","arctic","3310","","EE5","6","","","","arctic-engagement","","","","","","","","","","","","","","7","emo-engage","",""
"html-button-response","47","964399","0.0-6.0-0.0-5.0-0.5","81a45996d8e8fd9e71c219f459c53647a04e70f1562b3dc757e7df0d64f15db1","arctic","arctic","2125","","A1","5","","","","arctic-engagement","","","","","","","","","","","","","","6","absorption","",""
"html-button-response","48","966602","0.0-6.0-0.0-5.0-0.6","81a45996d8e8fd9e71c219f459c53647a04e70f1562b3dc757e7df0d64f15db1","arctic","arctic","1951","","EE1","5","","","","arctic-engagement","","","","","","","","","","","","","","6","emo-engage","",""
"html-button-response","49","967724","0.0-6.0-0.0-5.0-0.7","81a45996d8e8fd9e71c219f459c53647a04e70f1562b3dc757e7df0d64f15db1","arctic","arctic","870","","A3","6","","","","arctic-engagement","","","","","","","","","","","","","","7","absorption","",""
"html-button-response","50","969130","0.0-6.0-0.0-5.0-0.8","81a45996d8e8fd9e71c219f459c53647a04e70f1562b3dc757e7df0d64f15db1","arctic","arctic","1155","","E10","6","","","","arctic-engagement","","","","","","","","","","","","","","7","enjoyment","",""
"html-button-response","51","971206","0.0-6.0-0.0-5.0-0.9","81a45996d8e8fd9e71c219f459c53647a04e70f1562b3dc757e7df0d64f15db1","arctic","arctic","1824","","E8","3","","","","arctic-engagement","","","","","","","","","","","","","","4","enjoyment","",""
"html-button-response","52","972400","0.0-6.0-0.0-5.0-0.10","81a45996d8e8fd9e71c219f459c53647a04e70f1562b3dc757e7df0d64f15db1","arctic","arctic","943","","A2","6","","","","arctic-engagement","","","","","","","","","","","","","","7","absorption","",""
"html-button-response","53","974249","0.0-6.0-0.0-5.0-0.11","81a45996d8e8fd9e71c219f459c53647a04e70f1562b3dc757e7df0d64f15db1","arctic","arctic","1597","","MS2","6","","","","arctic-engagement","","","","","","","","","","","","","","7","mental-sim","",""
"html-button-response","54","975801","0.0-6.0-0.0-5.0-0.12","81a45996d8e8fd9e71c219f459c53647a04e70f1562b3dc757e7df0d64f15db1","arctic","arctic","1300","","EE2","6","","","","arctic-engagement","","","","","","","","","","","","","","7","emo-engage","",""
"html-button-response","55","978135","0.0-6.0-0.0-5.0-0.13","81a45996d8e8fd9e71c219f459c53647a04e70f1562b3dc757e7df0d64f15db1","arctic","arctic","2083","","A5","6","","","","arctic-engagement","","","","","","","","","","","","","","7","absorption","",""
"html-button-response","56","979618","0.0-6.0-0.0-5.0-0.14","81a45996d8e8fd9e71c219f459c53647a04e70f1562b3dc757e7df0d64f15db1","arctic","arctic","1231","","MS1","6","","","","arctic-engagement","","","","","","","","","","","","","","7","mental-sim","",""
"html-button-response","57","981135","0.0-6.0-0.0-5.0-0.15","81a45996d8e8fd9e71c219f459c53647a04e70f1562b3dc757e7df0d64f15db1","arctic","arctic","1266","","A4","6","","","","arctic-engagement","","","","","","","","","","","","","","7","absorption","",""
"html-button-response","58","983362","0.0-6.0-0.0-5.0-0.16","81a45996d8e8fd9e71c219f459c53647a04e70f1562b3dc757e7df0d64f15db1","arctic","arctic","1975","","EE4","4","","","","arctic-engagement","","","","","","","","","","","","","","5","emo-engage","",""
"html-button-response","59","984589","0.0-6.0-0.0-5.0-0.17","81a45996d8e8fd9e71c219f459c53647a04e70f1562b3dc757e7df0d64f15db1","arctic","arctic","976","","E6","6","","","","arctic-engagement","","","","","","","","","","","","","","7","enjoyment","",""
"html-keyboard-response","60","1126268","0.0-6.0-1.0","81a45996d8e8fd9e71c219f459c53647a04e70f1562b3dc757e7df0d64f15db1","arctic","arctic","141427","","<p>Thank you for your responses. You will now listen to the second story.</p><p>Remember, as you listen to the story you will see letters appear on the screen.</br>As quickly as possible, press <b>&lt;x&gt;</b> if the letter is lowercase and <b>&lt;m&gt;</b> if the letter is uppercase.</p><p>Press <b>&lt;x&gt;</b> or <b>&lt;m&gt;</b> to begin listening!</p>","","88","","","","","","","","","","","","","","","","","","","",""
"html-keyboard-response","61","1126769","0.0-6.0-2.0-0.0","81a45996d8e8fd9e71c219f459c53647a04e70f1562b3dc757e7df0d64f15db1","arctic","arctic","null","","<div style=""font-size:60px;"" tabindex=""0"">+</div>","","null","","","","","","","","","","","","","","","","","","","",""
"dual-task","null","null","null","","arctic","arctic","1367.4000000003725","","g","null","88","88","1","swim-dual-task","","g","lowercase","16000","0","4","81a45996d8e8fd9e71c219f459c53647a04e70f1562b3dc757e7df0d64f15db1","16000.300000000745","1367.4000000003725","88","1","swim","","","","",""
"dual-task","null","null","null","","arctic","arctic","1082.800000000745","","g","null","88","88","1","swim-dual-task","","g","lowercase","22000","0","4","81a45996d8e8fd9e71c219f459c53647a04e70f1562b3dc757e7df0d64f15db1","22001.5","1082.800000000745","88","1","swim","","","","",""
"dual-task","null","null","null","","arctic","arctic","1283.7999999988824","","T","null","77","77","1","swim-dual-task","","T","uppercase","36000","0","4","81a45996d8e8fd9e71c219f459c53647a04e70f1562b3dc757e7df0d64f15db1","35999.90000000037","1283.7999999988824","77","1","swim","","","","",""
"dual-task","null","null","null","","arctic","arctic","NA","","F","null","NA","77","0","swim-dual-task","","F","uppercase","46000","1","4","81a45996d8e8fd9e71c219f459c53647a04e70f1562b3dc757e7df0d64f15db1","46000","NA","NA","0","swim","","","","",""
"dual-task","null","null","null","","arctic","arctic","1483.4000000003725","","r","null","88","88","1","swim-dual-task","","r","lowercase","52000","0","4","81a45996d8e8fd9e71c219f459c53647a04e70f1562b3dc757e7df0d64f15db1","52000.40000000037","1483.4000000003725","88","1","swim","","","","",""
"dual-task","null","null","null","","arctic","arctic","NA","","e","null","NA","88","0","swim-dual-task","","e","lowercase","60000","1","4","81a45996d8e8fd9e71c219f459c53647a04e70f1562b3dc757e7df0d64f15db1","60000.199999999255","NA","NA","0","swim","","","","",""
"dual-task","null","null","null","","arctic","arctic","1469.300000000745","","f","null","88","88","1","swim-dual-task","","f","lowercase","70000","0","4","81a45996d8e8fd9e71c219f459c53647a04e70f1562b3dc757e7df0d64f15db1","70001.5","1469.300000000745","88","1","swim","","","","",""
"dual-task","null","null","null","","arctic","arctic","625.8000000007451","","h","null","88","88","1","swim-dual-task","","h","lowercase","84000","0","4","81a45996d8e8fd9e71c219f459c53647a04e70f1562b3dc757e7df0d64f15db1","83999.90000000037","625.8000000007451","88","1","swim","","","","",""
"dual-task","null","null","null","","arctic","arctic","458.7999999988824","","h","null","88","88","1","swim-dual-task","","h","lowercase","90000","0","4","81a45996d8e8fd9e71c219f459c53647a04e70f1562b3dc757e7df0d64f15db1","90000.30000000075","458.7999999988824","88","1","swim","","","","",""
"dual-task","null","null","null","","arctic","arctic","534","","T","null","77","77","1","swim-dual-task","","T","uppercase","102000","0","4","81a45996d8e8fd9e71c219f459c53647a04e70f1562b3dc757e7df0d64f15db1","102001.5","534","77","1","swim","","","","",""
"dual-task","null","null","null","","arctic","arctic","553","","B","null","77","77","1","swim-dual-task","","B","uppercase","114000","0","4","81a45996d8e8fd9e71c219f459c53647a04e70f1562b3dc757e7df0d64f15db1","114000.59999999963","553","77","1","swim","","","","",""
"dual-task","null","null","null","","arctic","arctic","576.0999999996275","","q","null","88","88","1","swim-dual-task","","q","lowercase","122000","0","4","81a45996d8e8fd9e71c219f459c53647a04e70f1562b3dc757e7df0d64f15db1","122000.30000000075","576.0999999996275","88","1","swim","","","","",""
"dual-task","null","null","null","","arctic","arctic","593.7000000011176","","b","null","88","88","1","swim-dual-task","","b","lowercase","130000","0","4","81a45996d8e8fd9e71c219f459c53647a04e70f1562b3dc757e7df0d64f15db1","130000.09999999963","593.7000000011176","88","1","swim","","","","",""
"dual-task","null","null","null","","arctic","arctic","732.7000000011176","","B","null","77","77","1","swim-dual-task","","B","uppercase","142000","0","4","81a45996d8e8fd9e71c219f459c53647a04e70f1562b3dc757e7df0d64f15db1","142000","732.7000000011176","77","1","swim","","","","",""
"dual-task","null","null","null","","arctic","arctic","753.6999999992549","","R","null","77","77","1","swim-dual-task","","R","uppercase","148000","0","4","81a45996d8e8fd9e71c219f459c53647a04e70f1562b3dc757e7df0d64f15db1","148001.40000000037","753.6999999992549","77","1","swim","","","","",""
"dual-task","null","null","null","","arctic","arctic","1446","","h","null","88","88","1","swim-dual-task","","h","lowercase","158000","0","4","81a45996d8e8fd9e71c219f459c53647a04e70f1562b3dc757e7df0d64f15db1","158000.69999999925","1446","88","1","swim","","","","",""
"dual-task","null","null","null","","arctic","arctic","1741.5999999996275","","E","null","77","77","1","swim-dual-task","","E","uppercase","166000","0","4","81a45996d8e8fd9e71c219f459c53647a04e70f1562b3dc757e7df0d64f15db1","166000.5","1741.5999999996275","77","1","swim","","","","",""
"dual-task","null","null","null","","arctic","arctic","925.2000000011176","","a","null","88","88","1","swim-dual-task","","a","lowercase","180000","0","4","81a45996d8e8fd9e71c219f459c53647a04e70f1562b3dc757e7df0d64f15db1","180000.59999999963","925.2000000011176","88","1","swim","","","","",""
"dual-task","null","null","null","","arctic","arctic","448.59999999962747","","H","null","77","77","1","swim-dual-task","","H","uppercase","192000","0","4","81a45996d8e8fd9e71c219f459c53647a04e70f1562b3dc757e7df0d64f15db1","192000.09999999963","448.59999999962747","77","1","swim","","","","",""
"dual-task","null","null","null","","arctic","arctic","833.1999999992549","","Q","null","77","77","1","swim-dual-task","","Q","uppercase","200000","0","4","81a45996d8e8fd9e71c219f459c53647a04e70f1562b3dc757e7df0d64f15db1","200000","833.1999999992549","77","1","swim","","","","",""
"dual-task","null","null","null","","arctic","arctic","1918.7999999988824","","d","null","88","88","1","swim-dual-task","","d","lowercase","206000","0","4","81a45996d8e8fd9e71c219f459c53647a04e70f1562b3dc757e7df0d64f15db1","205999.90000000037","1918.7999999988824","88","1","swim","","","","",""
"dual-task","null","null","null","","arctic","arctic","628.0999999996275","","H","null","77","77","1","swim-dual-task","","H","uppercase","216000","0","4","81a45996d8e8fd9e71c219f459c53647a04e70f1562b3dc757e7df0d64f15db1","216000.09999999963","628.0999999996275","77","1","swim","","","","",""
"dual-task","null","null","null","","arctic","arctic","832.2999999988824","","E","null","77","77","1","swim-dual-task","","E","uppercase","222000","0","4","81a45996d8e8fd9e71c219f459c53647a04e70f1562b3dc757e7df0d64f15db1","222000.40000000037","832.2999999988824","77","1","swim","","","","",""
"dual-task","null","null","null","","arctic","arctic","913","","q","null","88","88","1","swim-dual-task","","q","lowercase","232000","0","4","81a45996d8e8fd9e71c219f459c53647a04e70f1562b3dc757e7df0d64f15db1","232000.69999999925","913","88","1","swim","","","","",""
"dual-task","null","null","null","","arctic","arctic","898.0999999996275","","Q","null","77","77","1","swim-dual-task","","Q","uppercase","244000","0","4","81a45996d8e8fd9e71c219f459c53647a04e70f1562b3dc757e7df0d64f15db1","244000.59999999963","898.0999999996275","77","1","swim","","","","",""
"dual-task","null","null","null","","arctic","arctic","1040.699999999255","","t","null","77","88","0","swim-dual-task","","t","lowercase","250000","0","4","81a45996d8e8fd9e71c219f459c53647a04e70f1562b3dc757e7df0d64f15db1","250000.30000000075","1040.699999999255","77","0","swim","","","","",""
"dual-task","null","null","null","","arctic","arctic","684.6999999992549","","q","null","88","88","1","swim-dual-task","","q","lowercase","262000","0","4","81a45996d8e8fd9e71c219f459c53647a04e70f1562b3dc757e7df0d64f15db1","261999.90000000037","684.6999999992549","88","1","swim","","","","",""
"dual-task","null","null","null","","arctic","arctic","714.1999999992549","","G","null","77","77","1","swim-dual-task","","G","uppercase","272000","0","4","81a45996d8e8fd9e71c219f459c53647a04e70f1562b3dc757e7df0d64f15db1","272000.5","714.1999999992549","77","1","swim","","","","",""
"dual-task","null","null","null","","arctic","arctic","1001.7999999988824","","B","null","77","77","1","swim-dual-task","","B","uppercase","278000","0","4","81a45996d8e8fd9e71c219f459c53647a04e70f1562b3dc757e7df0d64f15db1","278000.4000000004","1001.7999999988824","77","1","swim","","","","",""
"dual-task","null","null","null","","arctic","arctic","1040.199999999255","","A","null","77","77","1","swim-dual-task","","A","uppercase","292000","0","4","81a45996d8e8fd9e71c219f459c53647a04e70f1562b3dc757e7df0d64f15db1","292000.5","1040.199999999255","77","1","swim","","","","",""
"dual-task","null","null","null","","arctic","arctic","565.6999999992549","","N","null","77","77","1","swim-dual-task","","N","uppercase","304000","0","4","81a45996d8e8fd9e71c219f459c53647a04e70f1562b3dc757e7df0d64f15db1","303999.9000000004","565.6999999992549","77","1","swim","","","","",""
"dual-task","null","null","null","","arctic","arctic","521.4000000003725","","b","null","88","88","1","swim-dual-task","","b","lowercase","316000","0","4","81a45996d8e8fd9e71c219f459c53647a04e70f1562b3dc757e7df0d64f15db1","316000.0999999996","521.4000000003725","88","1","swim","","","","",""
"dual-task","null","null","null","","arctic","arctic","644.4000000003725","","Q","null","77","77","1","swim-dual-task","","Q","uppercase","324000","0","4","81a45996d8e8fd9e71c219f459c53647a04e70f1562b3dc757e7df0d64f15db1","324000.69999999925","644.4000000003725","77","1","swim","","","","",""
"dual-task","null","null","null","","arctic","arctic","520.0999999996275","","n","null","88","88","1","swim-dual-task","","n","lowercase","336000","0","4","81a45996d8e8fd9e71c219f459c53647a04e70f1562b3dc757e7df0d64f15db1","336000.4000000004","520.0999999996275","88","1","swim","","","","",""
"dual-task","null","null","null","","arctic","arctic","573.5","","F","null","77","77","1","swim-dual-task","","F","uppercase","346000","0","4","81a45996d8e8fd9e71c219f459c53647a04e70f1562b3dc757e7df0d64f15db1","346000","573.5","77","1","swim","","","","",""
"dual-task","null","null","null","","arctic","arctic","1986.2999999988824","","r","null","88","88","1","swim-dual-task","","r","lowercase","360000","0","4","81a45996d8e8fd9e71c219f459c53647a04e70f1562b3dc757e7df0d64f15db1","360001.30000000075","1986.2999999988824","88","1","swim","","","","",""
"dual-task","null","null","null","","arctic","arctic","614.5999999996275","","T","null","77","77","1","swim-dual-task","","T","uppercase","368000","0","4","81a45996d8e8fd9e71c219f459c53647a04e70f1562b3dc757e7df0d64f15db1","368000.5","614.5999999996275","77","1","swim","","","","",""
"dual-task","null","null","null","","arctic","arctic","744.9000000003725","","d","null","88","88","1","swim-dual-task","","d","lowercase","378000","0","4","81a45996d8e8fd9e71c219f459c53647a04e70f1562b3dc757e7df0d64f15db1","378000","744.9000000003725","88","1","swim","","","","",""
"dual-task","null","null","null","","arctic","arctic","452.5","","h","null","88","88","1","swim-dual-task","","h","lowercase","386000","0","4","81a45996d8e8fd9e71c219f459c53647a04e70f1562b3dc757e7df0d64f15db1","386000.5999999996","452.5","88","1","swim","","","","",""
"dual-task","null","null","null","","arctic","arctic","493.30000000074506","","d","null","88","88","1","swim-dual-task","","d","lowercase","398000","0","4","81a45996d8e8fd9e71c219f459c53647a04e70f1562b3dc757e7df0d64f15db1","398000.19999999925","493.30000000074506","88","1","swim","","","","",""
"dual-task","null","null","null","","arctic","arctic","505.69999999925494","","G","null","77","77","1","swim-dual-task","","G","uppercase","408000","0","4","81a45996d8e8fd9e71c219f459c53647a04e70f1562b3dc757e7df0d64f15db1","408000.9000000004","505.69999999925494","77","1","swim","","","","",""
"dual-task","null","null","null","","arctic","arctic","533","","g","null","88","88","1","swim-dual-task","","g","lowercase","418000","0","4","81a45996d8e8fd9e71c219f459c53647a04e70f1562b3dc757e7df0d64f15db1","418000.5","533","88","1","swim","","","","",""
"dual-task","null","null","null","","arctic","arctic","712.6999999992549","","n","null","88","88","1","swim-dual-task","","n","lowercase","426000","0","4","81a45996d8e8fd9e71c219f459c53647a04e70f1562b3dc757e7df0d64f15db1","426000.30000000075","712.6999999992549","88","1","swim","","","","",""
"dual-task","null","null","null","","arctic","arctic","667.8000000007451","","Q","null","77","77","1","swim-dual-task","","Q","uppercase","432000","0","4","81a45996d8e8fd9e71c219f459c53647a04e70f1562b3dc757e7df0d64f15db1","432000.69999999925","667.8000000007451","77","1","swim","","","","",""
"dual-task","null","null","null","","arctic","arctic","681.8000000007451","","a","null","88","88","1","swim-dual-task","","a","lowercase","440000","0","4","81a45996d8e8fd9e71c219f459c53647a04e70f1562b3dc757e7df0d64f15db1","440000.19999999925","681.8000000007451","88","1","swim","","","","",""
"dual-task","null","null","null","","arctic","arctic","555.9000000003725","","f","null","88","88","1","swim-dual-task","","f","lowercase","448000","0","4","81a45996d8e8fd9e71c219f459c53647a04e70f1562b3dc757e7df0d64f15db1","448000","555.9000000003725","88","1","swim","","","","",""
"dual-task","null","null","null","","arctic","arctic","615.6999999992549","","F","null","77","77","1","swim-dual-task","","F","uppercase","458000","0","4","81a45996d8e8fd9e71c219f459c53647a04e70f1562b3dc757e7df0d64f15db1","458000.9000000004","615.6999999992549","77","1","swim","","","","",""
"dual-task","null","null","null","","arctic","arctic","650.4000000003725","","D","null","77","77","1","swim-dual-task","","D","uppercase","472000","0","4","81a45996d8e8fd9e71c219f459c53647a04e70f1562b3dc757e7df0d64f15db1","472001.19999999925","650.4000000003725","77","1","swim","","","","",""
"dual-task","null","null","null","","arctic","arctic","583.9000000003725","","E","null","77","77","1","swim-dual-task","","E","uppercase","484000","0","4","81a45996d8e8fd9e71c219f459c53647a04e70f1562b3dc757e7df0d64f15db1","484000.5999999996","583.9000000003725","77","1","swim","","","","",""
"dual-task","null","null","null","","arctic","arctic","1484.5999999996275","","e","null","88","88","1","swim-dual-task","","e","lowercase","492000","0","4","81a45996d8e8fd9e71c219f459c53647a04e70f1562b3dc757e7df0d64f15db1","492000.4000000004","1484.5999999996275","88","1","swim","","","","",""
"dual-task","null","null","null","","arctic","arctic","840.7999999988824","","R","null","77","77","1","swim-dual-task","","R","uppercase","502000","0","4","81a45996d8e8fd9e71c219f459c53647a04e70f1562b3dc757e7df0d64f15db1","502000.69999999925","840.7999999988824","77","1","swim","","","","",""
"dual-task","null","null","null","","arctic","arctic","948.1999999992549","","r","null","88","88","1","swim-dual-task","","r","lowercase","514000","0","4","81a45996d8e8fd9e71c219f459c53647a04e70f1562b3dc757e7df0d64f15db1","514000.4000000004","948.1999999992549","88","1","swim","","","","",""
"dual-task","null","null","null","","arctic","arctic","909.7000000011176","","N","null","77","77","1","swim-dual-task","","N","uppercase","526000","0","4","81a45996d8e8fd9e71c219f459c53647a04e70f1562b3dc757e7df0d64f15db1","526000.6999999993","909.7000000011176","77","1","swim","","","","",""
"dual-task","null","null","null","","arctic","arctic","558.4000000003725","","T","null","77","77","1","swim-dual-task","","T","uppercase","538000","0","4","81a45996d8e8fd9e71c219f459c53647a04e70f1562b3dc757e7df0d64f15db1","538000.0999999996","558.4000000003725","77","1","swim","","","","",""
"dual-task","null","null","null","","arctic","arctic","521.6999999992549","","A","null","77","77","1","swim-dual-task","","A","uppercase","548000","0","4","81a45996d8e8fd9e71c219f459c53647a04e70f1562b3dc757e7df0d64f15db1","548000.3000000007","521.6999999992549","77","1","swim","","","","",""
"dual-task","null","null","null","","arctic","arctic","489.30000000074506","","G","null","77","77","1","swim-dual-task","","G","uppercase","560000","0","4","81a45996d8e8fd9e71c219f459c53647a04e70f1562b3dc757e7df0d64f15db1","560000.1999999993","489.30000000074506","77","1","swim","","","","",""
"dual-task","null","null","null","","arctic","arctic","616.2000000011176","","q","null","88","88","1","swim-dual-task","","q","lowercase","570000","0","4","81a45996d8e8fd9e71c219f459c53647a04e70f1562b3dc757e7df0d64f15db1","570000.0999999996","616.2000000011176","88","1","swim","","","","",""
"dual-task","null","null","null","","arctic","arctic","441.5","","A","null","77","77","1","swim-dual-task","","A","uppercase","576000","0","4","81a45996d8e8fd9e71c219f459c53647a04e70f1562b3dc757e7df0d64f15db1","576000.5","441.5","77","1","swim","","","","",""
"dual-task","null","null","null","","arctic","arctic","523.0999999996275","","D","null","77","77","1","swim-dual-task","","D","uppercase","584000","0","4","81a45996d8e8fd9e71c219f459c53647a04e70f1562b3dc757e7df0d64f15db1","584001.1999999993","523.0999999996275","77","1","swim","","","","",""
"dual-task","null","null","null","","arctic","arctic","819.6999999992549","","D","null","77","77","1","swim-dual-task","","D","uppercase","596000","0","4","81a45996d8e8fd9e71c219f459c53647a04e70f1562b3dc757e7df0d64f15db1","596000.8000000007","819.6999999992549","77","1","swim","","","","",""
"dual-task","null","null","null","","arctic","arctic","463.90000000037253","","R","null","77","77","1","swim-dual-task","","R","uppercase","608000","0","4","81a45996d8e8fd9e71c219f459c53647a04e70f1562b3dc757e7df0d64f15db1","608000.4000000004","463.90000000037253","77","1","swim","","","","",""
"dual-task","null","null","null","","arctic","arctic","511.5","","R","null","77","77","1","swim-dual-task","","R","uppercase","618000","0","4","81a45996d8e8fd9e71c219f459c53647a04e70f1562b3dc757e7df0d64f15db1","618000.9000000004","511.5","77","1","swim","","","","",""
"dual-task","null","null","null","","arctic","arctic","715.9000000003725","","t","null","88","88","1","swim-dual-task","","t","lowercase","626000","0","4","81a45996d8e8fd9e71c219f459c53647a04e70f1562b3dc757e7df0d64f15db1","626000.9000000004","715.9000000003725","88","1","swim","","","","",""
"dual-task","null","null","null","","arctic","arctic","621.2000000011176","","N","null","77","77","1","swim-dual-task","","N","uppercase","638000","0","4","81a45996d8e8fd9e71c219f459c53647a04e70f1562b3dc757e7df0d64f15db1","638000.0999999996","621.2000000011176","77","1","swim","","","","",""
"dual-task","null","null","null","","arctic","arctic","527.5","","b","null","88","88","1","swim-dual-task","","b","lowercase","644000","0","4","81a45996d8e8fd9e71c219f459c53647a04e70f1562b3dc757e7df0d64f15db1","644000.5","527.5","88","1","swim","","","","",""
"dual-task","null","null","null","","arctic","arctic","628.4000000003725","","a","null","88","88","1","swim-dual-task","","a","lowercase","658000","0","4","81a45996d8e8fd9e71c219f459c53647a04e70f1562b3dc757e7df0d64f15db1","658001","628.4000000003725","88","1","swim","","","","",""
"dual-task","null","null","null","","arctic","arctic","613.5999999996275","","t","null","88","88","1","swim-dual-task","","t","lowercase","668000","0","4","81a45996d8e8fd9e71c219f459c53647a04e70f1562b3dc757e7df0d64f15db1","668000.3000000007","613.5999999996275","88","1","swim","","","","",""
"dual-task","null","null","null","","arctic","arctic","666.2000000011176","","D","null","77","77","1","swim-dual-task","","D","uppercase","678000","0","4","81a45996d8e8fd9e71c219f459c53647a04e70f1562b3dc757e7df0d64f15db1","678001.0999999996","666.2000000011176","77","1","swim","","","","",""
"dual-task","null","null","null","","arctic","arctic","535.0999999996275","","d","null","88","88","1","swim-dual-task","","d","lowercase","686000","0","4","81a45996d8e8fd9e71c219f459c53647a04e70f1562b3dc757e7df0d64f15db1","686000.8000000007","535.0999999996275","88","1","swim","","","","",""
"dual-task","null","null","null","","arctic","arctic","525.9000000003725","","N","null","77","77","1","swim-dual-task","","N","uppercase","698000","0","4","81a45996d8e8fd9e71c219f459c53647a04e70f1562b3dc757e7df0d64f15db1","698000.4000000004","525.9000000003725","77","1","swim","","","","",""
"dual-task","null","null","null","","arctic","arctic","874.5999999996275","","a","null","88","88","1","swim-dual-task","","a","lowercase","706000","0","4","81a45996d8e8fd9e71c219f459c53647a04e70f1562b3dc757e7df0d64f15db1","706000.3000000007","874.5999999996275","88","1","swim","","","","",""
"dual-task","null","null","null","","arctic","arctic","499.80000000074506","","B","null","77","77","1","swim-dual-task","","B","uppercase","714000","0","4","81a45996d8e8fd9e71c219f459c53647a04e70f1562b3dc757e7df0d64f15db1","714001.6999999993","499.80000000074506","77","1","swim","","","","",""
"dual-task","null","null","null","","arctic","arctic","519.2000000011176","","H","null","77","77","1","swim-dual-task","","H","uppercase","728000","0","4","81a45996d8e8fd9e71c219f459c53647a04e70f1562b3dc757e7df0d64f15db1","728000.0999999996","519.2000000011176","77","1","swim","","","","",""
"dual-task","null","null","null","","arctic","arctic","661.8000000007451","","e","null","88","88","1","swim-dual-task","","e","lowercase","738000","0","4","81a45996d8e8fd9e71c219f459c53647a04e70f1562b3dc757e7df0d64f15db1","738000.5999999996","661.8000000007451","88","1","swim","","","","",""
"dual-task","null","null","null","","arctic","arctic","589.9000000003725","","n","null","88","88","1","swim-dual-task","","n","lowercase","750000","0","4","81a45996d8e8fd9e71c219f459c53647a04e70f1562b3dc757e7df0d64f15db1","750000.4000000004","589.9000000003725","88","1","swim","","","","",""
"dual-task","null","null","null","","arctic","arctic","592.5","","f","null","88","88","1","swim-dual-task","","f","lowercase","758000","0","4","81a45996d8e8fd9e71c219f459c53647a04e70f1562b3dc757e7df0d64f15db1","758001.3000000007","592.5","88","1","swim","","","","",""
"dual-task","null","null","null","","arctic","arctic","487.5","","n","null","88","88","1","swim-dual-task","","n","lowercase","764000","0","4","81a45996d8e8fd9e71c219f459c53647a04e70f1562b3dc757e7df0d64f15db1","764001","487.5","88","1","swim","","","","",""
"dual-task","null","null","null","","arctic","arctic","947.5","","g","null","77","88","0","swim-dual-task","","g","lowercase","774000","0","4","81a45996d8e8fd9e71c219f459c53647a04e70f1562b3dc757e7df0d64f15db1","774001.8000000007","947.5","77","0","swim","","","","",""
"dual-task","null","null","null","","arctic","arctic","1217.300000000745","","t","null","88","88","1","swim-dual-task","","t","lowercase","780000","0","4","81a45996d8e8fd9e71c219f459c53647a04e70f1562b3dc757e7df0d64f15db1","780001.5","1217.300000000745","88","1","swim","","","","",""
"dual-task","null","null","null","","arctic","arctic","517.5","","e","null","88","88","1","swim-dual-task","","e","lowercase","786000","0","4","81a45996d8e8fd9e71c219f459c53647a04e70f1562b3dc757e7df0d64f15db1","786001.9000000004","517.5","88","1","swim","","","","",""
"dual-task","null","null","null","","arctic","arctic","567","","G","null","77","77","1","swim-dual-task","","G","uppercase","796000","0","4","81a45996d8e8fd9e71c219f459c53647a04e70f1562b3dc757e7df0d64f15db1","796001.3000000007","567","77","1","swim","","","","",""
"audio-keyboard-response","62","1936822","0.0-6.0-2.0-1.0","81a45996d8e8fd9e71c219f459c53647a04e70f1562b3dc757e7df0d64f15db1","arctic","arctic","null","","audio/story_swim.mp3","","null","","","","","","","","","","","","","","","","","","","",""
"html-button-response","63","1941346","0.0-6.0-2.0-2.0","81a45996d8e8fd9e71c219f459c53647a04e70f1562b3dc757e7df0d64f15db1","arctic","arctic","4522","","<p>This concludes the story. Thank you for listening.</p><p>You will now answer some questions about the content of the story.</p>","0","","","","","","","","","","","","","","","","","","","","",""
"survey-multi-choice","64","1948960","0.0-6.0-2.0-3.0-0.0","81a45996d8e8fd9e71c219f459c53647a04e70f1562b3dc757e7df0d64f15db1","arctic","arctic","7613","","<b>What were the astronaut candidates trained to do at the naval air station?</b>","","","","1","swim-comprehension","","","","","","","","","","","","","{""Q0"":""Eject out of aircraft and survive in water long enough to be rescued""}","","","",""
"survey-multi-choice","65","1953506","0.0-6.0-2.0-3.0-0.1","81a45996d8e8fd9e71c219f459c53647a04e70f1562b3dc757e7df0d64f15db1","arctic","arctic","4294","","<b>How many astronaut candidates passed the first swim test?</b>","","","","1","swim-comprehension","","","","","","","","","","","","","{""Q0"":""All of them""}","","","",""
"survey-multi-choice","66","1959502","0.0-6.0-2.0-3.0-0.2","81a45996d8e8fd9e71c219f459c53647a04e70f1562b3dc757e7df0d64f15db1","arctic","arctic","5743","","<b>How many astronaut candidates reported for duty at the Johnson Space Center?</b>","","","","1","swim-comprehension","","","","","","","","","","","","","{""Q0"":""Forty-four""}","","","",""
"survey-multi-choice","67","1964775","0.0-6.0-2.0-3.0-0.3","81a45996d8e8fd9e71c219f459c53647a04e70f1562b3dc757e7df0d64f15db1","arctic","arctic","5019","","<b>What was the final step of the first swim test in the pool?</b>","","","","1","swim-comprehension","","","","","","","","","","","","","{""Q0"":""Tread water with hands above the water""}","","","",""
"survey-multi-choice","68","1969013","0.0-6.0-2.0-3.0-0.4","81a45996d8e8fd9e71c219f459c53647a04e70f1562b3dc757e7df0d64f15db1","arctic","arctic","3987","","<b>What gave the narrator his greatest feeling of accomplishment?</b>","","","","1","swim-comprehension","","","","","","","","","","","","","{""Q0"":""Passing the water survival course""}","","","",""
"survey-multi-choice","69","1973969","0.0-6.0-2.0-3.0-0.5","81a45996d8e8fd9e71c219f459c53647a04e70f1562b3dc757e7df0d64f15db1","arctic","arctic","4703","","<b>How many times did the astronaut candidates have to complete the final exercise to pass?</b>","","","","1","swim-comprehension","","","","","","","","","","","","","{""Q0"":""Two""}","","","",""
"survey-multi-choice","70","1978948","0.0-6.0-2.0-3.0-0.6","81a45996d8e8fd9e71c219f459c53647a04e70f1562b3dc757e7df0d64f15db1","arctic","arctic","4726","","<b>Where is the home of naval aviation?</b>","","","","1","swim-comprehension","","","","","","","","","","","","","{""Q0"":""Pensacola""}","","","",""
"survey-multi-choice","71","1982748","0.0-6.0-2.0-3.0-0.7","81a45996d8e8fd9e71c219f459c53647a04e70f1562b3dc757e7df0d64f15db1","arctic","arctic","3548","","<b>What is the narrator afraid of, aside from the water?</b>","","","","1","swim-comprehension","","","","","","","","","","","","","{""Q0"":""Heights""}","","","",""
"survey-multi-choice","72","1987181","0.0-6.0-2.0-3.0-0.8","81a45996d8e8fd9e71c219f459c53647a04e70f1562b3dc757e7df0d64f15db1","arctic","arctic","4181","","<b>How did the narrator train for his swim test?</b>","","","","1","swim-comprehension","","","","","","","","","","","","","{""Q0"":""Took his kids to the pool every day""}","","","",""
"survey-multi-choice","73","1990977","0.0-6.0-2.0-3.0-0.9","81a45996d8e8fd9e71c219f459c53647a04e70f1562b3dc757e7df0d64f15db1","arctic","arctic","3544","","<b>How often does the narrator swim, now that he is a good swimmer?</b>","","","","1","swim-comprehension","","","","","","","","","","","","","{""Q0"":""Never swam again in his life""}","","","",""
"html-button-response","74","1992246","0.0-6.0-2.0-4.0","81a45996d8e8fd9e71c219f459c53647a04e70f1562b3dc757e7df0d64f15db1","arctic","arctic","1018","","<p>Thank you for your responses.</p><p>You will now answer some questions about your impressions of the story.</p>","0","","","","","","","","","","","","","","","","","","","","",""
"html-button-response","75","1993360","0.0-6.0-2.0-5.0-0.0","81a45996d8e8fd9e71c219f459c53647a04e70f1562b3dc757e7df0d64f15db1","arctic","arctic","1112","","E1","6","","","","swim-engagement","","","","","","","","","","","","","","7","enjoyment","",""
"html-button-response","76","1995123","0.0-6.0-2.0-5.0-0.1","81a45996d8e8fd9e71c219f459c53647a04e70f1562b3dc757e7df0d64f15db1","arctic","arctic","1512","","A4","6","","","","swim-engagement","","","","","","","","","","","","","","7","absorption","",""
"html-button-response","77","1996225","0.0-6.0-2.0-5.0-0.2","81a45996d8e8fd9e71c219f459c53647a04e70f1562b3dc757e7df0d64f15db1","arctic","arctic","851","","A3","6","","","","swim-engagement","","","","","","","","","","","","","","7","absorption","",""
"html-button-response","78","1997352","0.0-6.0-2.0-5.0-0.3","81a45996d8e8fd9e71c219f459c53647a04e70f1562b3dc757e7df0d64f15db1","arctic","arctic","875","","A5","6","","","","swim-engagement","","","","","","","","","","","","","","7","absorption","",""
"html-button-response","79","1998613","0.0-6.0-2.0-5.0-0.4","81a45996d8e8fd9e71c219f459c53647a04e70f1562b3dc757e7df0d64f15db1","arctic","arctic","1009","","EE1","6","","","","swim-engagement","","","","","","","","","","","","","","7","emo-engage","",""
"html-button-response","80","2000064","0.0-6.0-2.0-5.0-0.5","81a45996d8e8fd9e71c219f459c53647a04e70f1562b3dc757e7df0d64f15db1","arctic","arctic","1200","","MS1","6","","","","swim-engagement","","","","","","","","","","","","","","7","mental-sim","",""
"html-button-response","81","2002436","0.0-6.0-2.0-5.0-0.6","81a45996d8e8fd9e71c219f459c53647a04e70f1562b3dc757e7df0d64f15db1","arctic","arctic","2120","","EE2","6","","","","swim-engagement","","","","","","","","","","","","","","7","emo-engage","",""
"html-button-response","82","2003557","0.0-6.0-2.0-5.0-0.7","81a45996d8e8fd9e71c219f459c53647a04e70f1562b3dc757e7df0d64f15db1","arctic","arctic","869","","E7","6","","","","swim-engagement","","","","","","","","","","","","","","7","enjoyment","",""
"html-button-response","83","2004428","0.0-6.0-2.0-5.0-0.8","81a45996d8e8fd9e71c219f459c53647a04e70f1562b3dc757e7df0d64f15db1","arctic","arctic","619","","E8","6","","","","swim-engagement","","","","","","","","","","","","","","7","enjoyment","",""
"html-button-response","84","2005644","0.0-6.0-2.0-5.0-0.9","81a45996d8e8fd9e71c219f459c53647a04e70f1562b3dc757e7df0d64f15db1","arctic","arctic","965","","E10","6","","","","swim-engagement","","","","","","","","","","","","","","7","enjoyment","",""
"html-button-response","85","2007094","0.0-6.0-2.0-5.0-0.10","81a45996d8e8fd9e71c219f459c53647a04e70f1562b3dc757e7df0d64f15db1","arctic","arctic","1199","","EE5","6","","","","swim-engagement","","","","","","","","","","","","","","7","emo-engage","",""
"html-button-response","86","2008366","0.0-6.0-2.0-5.0-0.11","81a45996d8e8fd9e71c219f459c53647a04e70f1562b3dc757e7df0d64f15db1","arctic","arctic","1021","","E6","6","","","","swim-engagement","","","","","","","","","","","","","","7","enjoyment","",""
"html-button-response","87","2009872","0.0-6.0-2.0-5.0-0.12","81a45996d8e8fd9e71c219f459c53647a04e70f1562b3dc757e7df0d64f15db1","arctic","arctic","1254","","MS3","6","","","","swim-engagement","","","","","","","","","","","","","","7","mental-sim","",""
"html-button-response","88","2011865","0.0-6.0-2.0-5.0-0.13","81a45996d8e8fd9e71c219f459c53647a04e70f1562b3dc757e7df0d64f15db1","arctic","arctic","1741","","MS2","6","","","","swim-engagement","","","","","","","","","","","","","","7","mental-sim","",""
"html-button-response","89","2013568","0.0-6.0-2.0-5.0-0.14","81a45996d8e8fd9e71c219f459c53647a04e70f1562b3dc757e7df0d64f15db1","arctic","arctic","1453","","A1","6","","","","swim-engagement","","","","","","","","","","","","","","7","absorption","",""
"html-button-response","90","2014803","0.0-6.0-2.0-5.0-0.15","81a45996d8e8fd9e71c219f459c53647a04e70f1562b3dc757e7df0d64f15db1","arctic","arctic","984","","EE4","6","","","","swim-engagement","","","","","","","","","","","","","","7","emo-engage","",""
"html-button-response","91","2015876","0.0-6.0-2.0-5.0-0.16","81a45996d8e8fd9e71c219f459c53647a04e70f1562b3dc757e7df0d64f15db1","arctic","arctic","822","","EE3","6","","","","swim-engagement","","","","","","","","","","","","","","7","emo-engage","",""
"html-button-response","92","2016615","0.0-6.0-2.0-5.0-0.17","81a45996d8e8fd9e71c219f459c53647a04e70f1562b3dc757e7df0d64f15db1","arctic","arctic","488","","A2","6","","","","swim-engagement","","","","","","","","","","","","","","7","absorption","",""
"html-button-response","93","2018740","0.0-8.0","81a45996d8e8fd9e71c219f459c53647a04e70f1562b3dc757e7df0d64f15db1","arctic","arctic","1873","","<p>Thank you for your responses.</p><p>You will now answer some demographic, hearing, and general health questions.</p>","0","","","","","","","","","","","","","","","","","","","","",""
"survey-multi-choice","94","2020381","0.0-9.0-0.0","81a45996d8e8fd9e71c219f459c53647a04e70f1562b3dc757e7df0d64f15db1","arctic","arctic","1640","","","","","","","survey","","","","","","","","","","","","","{""Q0"":""Chrome""}","","","browser",""
"survey-text","95","2023459","0.0-9.0-1.0","81a45996d8e8fd9e71c219f459c53647a04e70f1562b3dc757e7df0d64f15db1","arctic","arctic","2825.4000000003725","","","","","","","survey","","","","","","","","","","","","","{""AGE"":""25""}","","","age","25"
"survey-multi-choice","96","2025094","0.0-9.0-2.0","81a45996d8e8fd9e71c219f459c53647a04e70f1562b3dc757e7df0d64f15db1","arctic","arctic","1384","","","","","","","survey","","","","","","","","","","","","","{""Q0"":""Female""}","","","gender","Female"
"survey-multi-choice","97","2027140","0.0-9.0-4.0","81a45996d8e8fd9e71c219f459c53647a04e70f1562b3dc757e7df0d64f15db1","arctic","arctic","1794","","","","","","","survey","","","","","","","","","","","","","{""Q0"":""Right""}","","","handedness","Right"
"survey-multi-choice","98","2029071","0.0-9.0-5.0","81a45996d8e8fd9e71c219f459c53647a04e70f1562b3dc757e7df0d64f15db1","arctic","arctic","1679","","","","","","","survey","","","","","","","","","","","","","{""Q0"":""Bachelor's Degree""}","","","education","Bachelor's Degree"
"survey-text","99","2032145","0.0-10.0-0.0","81a45996d8e8fd9e71c219f459c53647a04e70f1562b3dc757e7df0d64f15db1","arctic","arctic","2821.800000000745","","","","","","","survey","","","","","","","","","","","","","{""L1"":""English""}","","","first-language","English"
"survey-text","100","2035833","0.0-10.0-1.0","81a45996d8e8fd9e71c219f459c53647a04e70f1562b3dc757e7df0d64f15db1","arctic","arctic","3431.7999999988824","","","","","","","survey","","","","","","","","","","","","","{""L2name"":"""",""L2fluency"":"""",""L3name"":"""",""L3fluency"":"""",""L4name"":"""",""L4fluency"":""""}","","","additional-languages","{""L2name"":"""",""L2fluency"":"""",""L3name"":"""",""L3fluency"":"""",""L4name"":"""",""L4fluency"":""""}"
"survey-multi-choice","101","2038229","0.0-10.0-2.0","81a45996d8e8fd9e71c219f459c53647a04e70f1562b3dc757e7df0d64f15db1","arctic","arctic","2144","","","","","","","survey","","","","","","","","","","","","","{""Q0"":""No""}","","","hearing-aid","No"
"survey-multi-choice","102","2040396","0.0-10.0-3.0","81a45996d8e8fd9e71c219f459c53647a04e70f1562b3dc757e7df0d64f15db1","arctic","arctic","1916","","","","","","","survey","","","","","","","","","","","","","{""Q0"":""Never""}","","","ringing-ears","Never"
"survey-multi-choice","103","2043208","0.0-10.0-5.0","81a45996d8e8fd9e71c219f459c53647a04e70f1562b3dc757e7df0d64f15db1","arctic","arctic","2560","","","","","","","survey","","","","","","","","","","","","","{""Q0"":""No""}","","","neuro-disease","No"
"survey-multi-choice","104","2046407","0.0-10.0-7.0","81a45996d8e8fd9e71c219f459c53647a04e70f1562b3dc757e7df0d64f15db1","arctic","arctic","2948","","","","","","","survey","","","","","","","","","","","","","{""Q0"":""No""}","","","take-meds","No"
"survey-text","105","2048400","0.0-10.0-9.0","81a45996d8e8fd9e71c219f459c53647a04e70f1562b3dc757e7df0d64f15db1","arctic","arctic","1737.7999999988824","","","","","","","survey","","","","","","","","","","","","","{""HC"":""""}","","","health-concerns",""
"html-button-response","106","2050261","0.0-11.0-0.0","81a45996d8e8fd9e71c219f459c53647a04e70f1562b3dc757e7df0d64f15db1","arctic","arctic","1610","","<p>How would you describe your musical skills/experiences?</p>","5","","","","survey","","","","","","","","","","","","","","","","music-skill","6"
"survey-multi-choice","107","2051989","0.0-11.0-1.0","81a45996d8e8fd9e71c219f459c53647a04e70f1562b3dc757e7df0d64f15db1","arctic","arctic","1476","","","","","","","survey","","","","","","","","","","","","","{""Q0"":""Yes""}","","","music-instrument","Yes"
"survey-text","108","2055364","0.0-11.0-2.0-0.0","81a45996d8e8fd9e71c219f459c53647a04e70f1562b3dc757e7df0d64f15db1","arctic","arctic","3123.4000000003725","","","","","","","survey","","","","","","","","","","","","","{""MEXP"":""16""}","","","music-training-yrs","16"
"html-button-response","109","2057010","0.0-12.0-0.0","81a45996d8e8fd9e71c219f459c53647a04e70f1562b3dc757e7df0d64f15db1","arctic","arctic","1395","","<p>How would you describe your general hearing abilities?</p>","5","","","","survey","","","","","","","","","","","","","","","","ssq-01","6"
"html-button-response","110","2061162","0.0-12.0-1.0","81a45996d8e8fd9e71c219f459c53647a04e70f1562b3dc757e7df0d64f15db1","arctic","arctic","3900","","<p>When you talk with someone at a place that strongly reverberates/echoes (e.g., in a church or train station),</br>can you understand what the person says?</p>","9","","","","survey","","","","","","","","","","","","","","","","ssq-02","9"
"html-button-response","111","2063171","0.0-12.0-2.0","81a45996d8e8fd9e71c219f459c53647a04e70f1562b3dc757e7df0d64f15db1","arctic","arctic","1757","","<p>When you are with a group (~5 people) in a lively restaurant, can you follow the group's conversation?</p>","10","","","","survey","","","","","","","","","","","","","","","","ssq-03","10"
"html-button-response","112","2065484","0.0-12.0-3.0","81a45996d8e8fd9e71c219f459c53647a04e70f1562b3dc757e7df0d64f15db1","arctic","arctic","2061","","<p>Based on the sound of a bus or truck, can you tell whether it is moving towards or away from you?</p>","10","","","","survey","","","","","","","","","","","","","","","","ssq-04","10"
"html-button-response","113","2068125","0.0-12.0-4.0","81a45996d8e8fd9e71c219f459c53647a04e70f1562b3dc757e7df0d64f15db1","arctic","arctic","2389","","<p>When you are in an unknown environment, can you tell from which direction a brief sound originates?</p>","10","","","","survey","","","","","","","","","","","","","","","","ssq-05","10"
"html-button-response","114","2072120","0.0-12.0-5.0","81a45996d8e8fd9e71c219f459c53647a04e70f1562b3dc757e7df0d64f15db1","arctic","arctic","3743","","<p>Are you able to ignore distracting sounds when you concentrate on a specific aspect of your acoustic surrounding?</p>","10","","","","survey","","","","","","","","","","","","","","","","ssq-06","10"
"fullscreen","115","2073372","0.0-13.0","81a45996d8e8fd9e71c219f459c53647a04e70f1562b3dc757e7df0d64f15db1","arctic","arctic","","","","","","","","","true","","","","","","","","","","","","","","","",""
