"trial_type","trial_index","time_elapsed","internal_node_id","ParticipantID","firstStory","scramStory","rt","url","stimulus","button_pressed","key_press","correctRESP","correct","designation","success","letterStim","letterType","ONSET","TIMEOUT","CONDITION","Participant","ONSET_ACTUAL","RT","RESP","ACC","STORY","responses","response","type","surveyQuestion","QRESP"
"pavlovia","0","3","0.0-0.0","2b5d3e1a8549dd0f4689da9e4eeaaa725f505adcd3ae7b60e77ccff946ca4559","arctic","arctic","","","","","","","","","","","","","","","","","","","","","","","","",""
"external-html","1","3989","0.0-1.0","2b5d3e1a8549dd0f4689da9e4eeaaa725f505adcd3ae7b60e77ccff946ca4559","arctic","arctic","3836","consent/consent_updated.html","","","","","","","","","","","","","","","","","","","","","","",""
"html-button-response","2","6109","0.0-2.0-0.0","2b5d3e1a8549dd0f4689da9e4eeaaa725f505adcd3ae7b60e77ccff946ca4559","arctic","arctic","2119","","<p>Before we begin the main task, you will complete a short volume calibration and headphone check.</p><p>Please make sure you are in a quiet listening environment, that you are wearing headphones, and that your computer's volume is turned on.<p></p>","0","","","","","","","","","","","","","","","","","","","","",""
"html-button-response","3","8589","0.0-2.0-1.0","2b5d3e1a8549dd0f4689da9e4eeaaa725f505adcd3ae7b60e77ccff946ca4559","arctic","arctic","2220","","<p>The volume calibration will be first.</p><p>You will hear a thirty-second noise. Please adjust your computer's volume so that this noise is being presented at a comfortable level.<p></p>","0","","","","","","","","","","","","","","","","","","","","",""
"audio-button-response","4","11781","0.0-2.0-2.0","2b5d3e1a8549dd0f4689da9e4eeaaa725f505adcd3ae7b60e77ccff946ca4559","arctic","arctic","2940","","audio/volumetest.mp3","0","","","","","","","","","","","","","","","","","","","","",""
"html-keyboard-response","5","18407","0.0-3.0-0.0","2b5d3e1a8549dd0f4689da9e4eeaaa725f505adcd3ae7b60e77ccff946ca4559","arctic","arctic","6625","","<p>You will now complete a short headphone check.</p><p>On each trial, you will hear three tones. One of these tones will be quieter than the others. Your task is to identify whether the quiet tone occurred first, second, or third.</p><p>There are six trials in total.<p></p><p></p>(Press SPACEBAR to begin)","","32","","","","","","","","","","","","","","","","","","","",""
"html-keyboard-response","6","19157","0.0-3.0-1.0-0.0","2b5d3e1a8549dd0f4689da9e4eeaaa725f505adcd3ae7b60e77ccff946ca4559","arctic","arctic","null","","<div style=""font-size:60px;"">+</div>","","null","","","","","","","","","","","","","","","","","","","",""
"audio-button-response","7","23429","0.0-3.0-1.0-1.0","2b5d3e1a8549dd0f4689da9e4eeaaa725f505adcd3ae7b60e77ccff946ca4559","arctic","arctic","4270","","audio/t3_1.mp3","2","","2","1","headphone-test","","","","","","","","","","","","","","","","",""
"html-keyboard-response","8","23930","0.0-3.0-1.0-2.0","2b5d3e1a8549dd0f4689da9e4eeaaa725f505adcd3ae7b60e77ccff946ca4559","arctic","arctic","null","","<p>Correct</p>","","null","","","","","","","","","","","","","","","","","","","",""
"html-keyboard-response","9","24430","0.0-3.0-1.0-0.1","2b5d3e1a8549dd0f4689da9e4eeaaa725f505adcd3ae7b60e77ccff946ca4559","arctic","arctic","null","","<div style=""font-size:60px;"">+</div>","","null","","","","","","","","","","","","","","","","","","","",""
"audio-button-response","10","28589","0.0-3.0-1.0-1.1","2b5d3e1a8549dd0f4689da9e4eeaaa725f505adcd3ae7b60e77ccff946ca4559","arctic","arctic","4158","","audio/t1_1.mp3","0","","0","1","headphone-test","","","","","","","","","","","","","","","","",""
"html-keyboard-response","11","29091","0.0-3.0-1.0-2.1","2b5d3e1a8549dd0f4689da9e4eeaaa725f505adcd3ae7b60e77ccff946ca4559","arctic","arctic","null","","<p>Correct</p>","","null","","","","","","","","","","","","","","","","","","","",""
"html-keyboard-response","12","29591","0.0-3.0-1.0-0.2","2b5d3e1a8549dd0f4689da9e4eeaaa725f505adcd3ae7b60e77ccff946ca4559","arctic","arctic","null","","<div style=""font-size:60px;"">+</div>","","null","","","","","","","","","","","","","","","","","","","",""
"audio-button-response","13","34045","0.0-3.0-1.0-1.2","2b5d3e1a8549dd0f4689da9e4eeaaa725f505adcd3ae7b60e77ccff946ca4559","arctic","arctic","4452","","audio/t1_2.mp3","0","","0","1","headphone-test","","","","","","","","","","","","","","","","",""
"html-keyboard-response","14","34547","0.0-3.0-1.0-2.2","2b5d3e1a8549dd0f4689da9e4eeaaa725f505adcd3ae7b60e77ccff946ca4559","arctic","arctic","null","","<p>Correct</p>","","null","","","","","","","","","","","","","","","","","","","",""
"html-keyboard-response","15","35047","0.0-3.0-1.0-0.3","2b5d3e1a8549dd0f4689da9e4eeaaa725f505adcd3ae7b60e77ccff946ca4559","arctic","arctic","null","","<div style=""font-size:60px;"">+</div>","","null","","","","","","","","","","","","","","","","","","","",""
"audio-button-response","16","39156","0.0-3.0-1.0-1.3","2b5d3e1a8549dd0f4689da9e4eeaaa725f505adcd3ae7b60e77ccff946ca4559","arctic","arctic","4108","","audio/t3_2.mp3","2","","2","1","headphone-test","","","","","","","","","","","","","","","","",""
"html-keyboard-response","17","39657","0.0-3.0-1.0-2.3","2b5d3e1a8549dd0f4689da9e4eeaaa725f505adcd3ae7b60e77ccff946ca4559","arctic","arctic","null","","<p>Correct</p>","","null","","","","","","","","","","","","","","","","","","","",""
"html-keyboard-response","18","40157","0.0-3.0-1.0-0.4","2b5d3e1a8549dd0f4689da9e4eeaaa725f505adcd3ae7b60e77ccff946ca4559","arctic","arctic","null","","<div style=""font-size:60px;"">+</div>","","null","","","","","","","","","","","","","","","","","","","",""
"audio-button-response","19","44365","0.0-3.0-1.0-1.4","2b5d3e1a8549dd0f4689da9e4eeaaa725f505adcd3ae7b60e77ccff946ca4559","arctic","arctic","4206","","audio/t2_2.mp3","1","","1","1","headphone-test","","","","","","","","","","","","","","","","",""
"html-keyboard-response","20","44866","0.0-3.0-1.0-2.4","2b5d3e1a8549dd0f4689da9e4eeaaa725f505adcd3ae7b60e77ccff946ca4559","arctic","arctic","null","","<p>Correct</p>","","null","","","","","","","","","","","","","","","","","","","",""
"html-keyboard-response","21","45366","0.0-3.0-1.0-0.5","2b5d3e1a8549dd0f4689da9e4eeaaa725f505adcd3ae7b60e77ccff946ca4559","arctic","arctic","null","","<div style=""font-size:60px;"">+</div>","","null","","","","","","","","","","","","","","","","","","","",""
"audio-button-response","22","49725","0.0-3.0-1.0-1.5","2b5d3e1a8549dd0f4689da9e4eeaaa725f505adcd3ae7b60e77ccff946ca4559","arctic","arctic","4357","","audio/t2_1.mp3","1","","1","1","headphone-test","","","","","","","","","","","","","","","","",""
"html-keyboard-response","23","50225","0.0-3.0-1.0-2.5","2b5d3e1a8549dd0f4689da9e4eeaaa725f505adcd3ae7b60e77ccff946ca4559","arctic","arctic","null","","<p>Correct</p>","","null","","","","","","","","","","","","","","","","","","","",""
"fullscreen","24","52645","0.0-4.0","2b5d3e1a8549dd0f4689da9e4eeaaa725f505adcd3ae7b60e77ccff946ca4559","arctic","arctic","","","","","","","","","true","","","","","","","","","","","","","","","",""
"html-button-response","25","59236","0.0-5.0-0.0","2b5d3e1a8549dd0f4689da9e4eeaaa725f505adcd3ae7b60e77ccff946ca4559","arctic","arctic","6590","","<p>There are two blocks to this experiment.</p><p>In each block, you will hear a ~13.5 minute story. One of the stories will be scrambled. Please listen carefully to both stories and understand them as best you can.</p><p>After each story, you will be asked some questions to assess your comprehension.</p>","0","","","","","","","","","","","","","","","","","","","","",""
"html-button-response","26","70117","0.0-5.0-1.0","2b5d3e1a8549dd0f4689da9e4eeaaa725f505adcd3ae7b60e77ccff946ca4559","arctic","arctic","10881","","<p>During each story, there will be an additional task.</p><p>A letter will occasionally appear on the screen.</br>Your job is to - as quickly as you can - decide whether the letter is lowercase or uppercase and press one of two keys on the keyboard:</p><p>If the letter is <b>lowercase</b>, press key &lt;<b>x</b>&gt;.</p><p>If the letter is <b>uppercase</b>, press key &lt;<b>m</b>&gt;.</p>","0","","","","","","","","","","","","","","","","","","","","",""
"html-keyboard-response","27","276847","0.0-5.0-2.0","2b5d3e1a8549dd0f4689da9e4eeaaa725f505adcd3ae7b60e77ccff946ca4559","arctic","arctic","206729","","<p>Because we want your responses to be as quick as possible, please keep your index fingers over the keys while listening.</p><p>Each block lasts about 20 minutes.</p><p><b>Press &lt;x&gt; or &lt;m&gt; to start the first block!</b></p>","","88","","","","","","","","","","","","","","","","","","","",""
"html-keyboard-response","28","277348","0.0-6.0-0.0-0.0","2b5d3e1a8549dd0f4689da9e4eeaaa725f505adcd3ae7b60e77ccff946ca4559","arctic","arctic","null","","<div style=""font-size:60px;"" tabindex=""0"">+</div>","","null","","","","","","","","","","","","","","","","","","","",""
"dual-task","null","null","null","","arctic","arctic","NA","","d","null","NA","88","0","arctic-dual-task","","d","lowercase","12000","1","2","2b5d3e1a8549dd0f4689da9e4eeaaa725f505adcd3ae7b60e77ccff946ca4559","12000.645000021905","NA","NA","0","arctic","","","","",""
"dual-task","null","null","null","","arctic","arctic","1064.0299998922274","","D","null","88","77","0","arctic-dual-task","","D","uppercase","20000","0","2","2b5d3e1a8549dd0f4689da9e4eeaaa725f505adcd3ae7b60e77ccff946ca4559","19999.720000079833","1064.0299998922274","88","0","arctic","","","","",""
"dual-task","null","null","null","","arctic","arctic","1921.5349999722093","","Q","null","88","77","0","arctic-dual-task","","Q","uppercase","26000","0","2","2b5d3e1a8549dd0f4689da9e4eeaaa725f505adcd3ae7b60e77ccff946ca4559","25999.71500004176","1921.5349999722093","88","0","arctic","","","","",""
"dual-task","null","null","null","","arctic","arctic","1944.8949999641627","","A","null","88","77","0","arctic-dual-task","","A","uppercase","36000","0","2","2b5d3e1a8549dd0f4689da9e4eeaaa725f505adcd3ae7b60e77ccff946ca4559","36000.32500002999","1944.8949999641627","88","0","arctic","","","","",""
"dual-task","null","null","null","","arctic","arctic","977.4749999633059","","G","null","88","77","0","arctic-dual-task","","G","uppercase","48000","0","2","2b5d3e1a8549dd0f4689da9e4eeaaa725f505adcd3ae7b60e77ccff946ca4559","47999.73999999929","977.4749999633059","88","0","arctic","","","","",""
"dual-task","null","null","null","","arctic","arctic","775.7449999917299","","B","null","88","77","0","arctic-dual-task","","B","uppercase","54000","0","2","2b5d3e1a8549dd0f4689da9e4eeaaa725f505adcd3ae7b60e77ccff946ca4559","54000.230000005104","775.7449999917299","88","0","arctic","","","","",""
"dual-task","null","null","null","","arctic","arctic","721.3749999646097","","F","null","88","77","0","arctic-dual-task","","F","uppercase","62000","0","2","2b5d3e1a8549dd0f4689da9e4eeaaa725f505adcd3ae7b60e77ccff946ca4559","62000.010000076145","721.3749999646097","88","0","arctic","","","","",""
"dual-task","null","null","null","","arctic","arctic","1041.5750000393018","","D","null","88","77","0","arctic-dual-task","","D","uppercase","72000","0","2","2b5d3e1a8549dd0f4689da9e4eeaaa725f505adcd3ae7b60e77ccff946ca4559","71999.64500009082","1041.5750000393018","88","0","arctic","","","","",""
"dual-task","null","null","null","","arctic","arctic","727.7849999954924","","n","null","77","88","0","arctic-dual-task","","n","lowercase","78000","0","2","2b5d3e1a8549dd0f4689da9e4eeaaa725f505adcd3ae7b60e77ccff946ca4559","78000.12000009883","727.7849999954924","77","0","arctic","","","","",""
"dual-task","null","null","null","","arctic","arctic","544.7550000390038","","F","null","88","77","0","arctic-dual-task","","F","uppercase","90000","0","2","2b5d3e1a8549dd0f4689da9e4eeaaa725f505adcd3ae7b60e77ccff946ca4559","90000.55500003509","544.7550000390038","88","0","arctic","","","","",""
"dual-task","null","null","null","","arctic","arctic","775.6450000451878","","q","null","77","88","0","arctic-dual-task","","q","lowercase","96000","0","2","2b5d3e1a8549dd0f4689da9e4eeaaa725f505adcd3ae7b60e77ccff946ca4559","96000.52000000142","775.6450000451878","77","0","arctic","","","","",""
"dual-task","null","null","null","","arctic","arctic","697.5249999668449","","r","null","77","88","0","arctic-dual-task","","r","lowercase","102000","0","2","2b5d3e1a8549dd0f4689da9e4eeaaa725f505adcd3ae7b60e77ccff946ca4559","101999.96500008274","697.5249999668449","77","0","arctic","","","","",""
"dual-task","null","null","null","","arctic","arctic","945.4550000373274","","N","null","88","77","0","arctic-dual-task","","N","uppercase","114000","0","2","2b5d3e1a8549dd0f4689da9e4eeaaa725f505adcd3ae7b60e77ccff946ca4559","113999.91000001319","945.4550000373274","88","0","arctic","","","","",""
"dual-task","null","null","null","","arctic","arctic","913.0100000184029","","A","null","88","77","0","arctic-dual-task","","A","uppercase","126000","0","2","2b5d3e1a8549dd0f4689da9e4eeaaa725f505adcd3ae7b60e77ccff946ca4559","126000.33500010613","913.0100000184029","88","0","arctic","","","","",""
"dual-task","null","null","null","","arctic","arctic","784.6000000135973","","G","null","88","77","0","arctic-dual-task","","G","uppercase","138000","0","2","2b5d3e1a8549dd0f4689da9e4eeaaa725f505adcd3ae7b60e77ccff946ca4559","138000.78000000212","784.6000000135973","88","0","arctic","","","","",""
"dual-task","null","null","null","","arctic","arctic","415.6600000569597","","E","null","88","77","0","arctic-dual-task","","E","uppercase","148000","0","2","2b5d3e1a8549dd0f4689da9e4eeaaa725f505adcd3ae7b60e77ccff946ca4559","148000.3850000212","415.6600000569597","88","0","arctic","","","","",""
"dual-task","null","null","null","","arctic","arctic","769.5149999344721","","F","null","88","77","0","arctic-dual-task","","F","uppercase","158000","0","2","2b5d3e1a8549dd0f4689da9e4eeaaa725f505adcd3ae7b60e77ccff946ca4559","158000.00500003807","769.5149999344721","88","0","arctic","","","","",""
"dual-task","null","null","null","","arctic","arctic","704.4499999610707","","f","null","77","88","0","arctic-dual-task","","f","lowercase","166000","0","2","2b5d3e1a8549dd0f4689da9e4eeaaa725f505adcd3ae7b60e77ccff946ca4559","165999.81500010472","704.4499999610707","77","0","arctic","","","","",""
"dual-task","null","null","null","","arctic","arctic","1145.3850000398234","","T","null","88","77","0","arctic-dual-task","","T","uppercase","174000","0","2","2b5d3e1a8549dd0f4689da9e4eeaaa725f505adcd3ae7b60e77ccff946ca4559","174000.09000010323","1145.3850000398234","88","0","arctic","","","","",""
"dual-task","null","null","null","","arctic","arctic","1400.2199999522418","","r","null","77","88","0","arctic-dual-task","","r","lowercase","182000","0","2","2b5d3e1a8549dd0f4689da9e4eeaaa725f505adcd3ae7b60e77ccff946ca4559","181999.88000001758","1400.2199999522418","77","0","arctic","","","","",""
"dual-task","null","null","null","","arctic","arctic","777.8450000332668","","N","null","88","77","0","arctic-dual-task","","N","uppercase","190000","0","2","2b5d3e1a8549dd0f4689da9e4eeaaa725f505adcd3ae7b60e77ccff946ca4559","189999.67000004835","777.8450000332668","88","0","arctic","","","","",""
"dual-task","null","null","null","","arctic","arctic","598.6450000200421","","g","null","77","88","0","arctic-dual-task","","g","lowercase","198000","0","2","2b5d3e1a8549dd0f4689da9e4eeaaa725f505adcd3ae7b60e77ccff946ca4559","198001.4600000577","598.6450000200421","77","0","arctic","","","","",""
"dual-task","null","null","null","","arctic","arctic","561.6500000469387","","R","null","88","77","0","arctic-dual-task","","R","uppercase","210000","0","2","2b5d3e1a8549dd0f4689da9e4eeaaa725f505adcd3ae7b60e77ccff946ca4559","209999.8950000154","561.6500000469387","88","0","arctic","","","","",""
"dual-task","null","null","null","","arctic","arctic","625.2099999692291","","N","null","88","77","0","arctic-dual-task","","N","uppercase","222000","0","2","2b5d3e1a8549dd0f4689da9e4eeaaa725f505adcd3ae7b60e77ccff946ca4559","222000.3550000256","625.2099999692291","88","0","arctic","","","","",""
"dual-task","null","null","null","","arctic","arctic","969.0049999626353","","H","null","88","77","0","arctic-dual-task","","H","uppercase","236000","0","2","2b5d3e1a8549dd0f4689da9e4eeaaa725f505adcd3ae7b60e77ccff946ca4559","236000.60500006657","969.0049999626353","88","0","arctic","","","","",""
"dual-task","null","null","null","","arctic","arctic","577.3649999173358","","r","null","77","88","0","arctic-dual-task","","r","lowercase","250000","0","2","2b5d3e1a8549dd0f4689da9e4eeaaa725f505adcd3ae7b60e77ccff946ca4559","250000.3550000256","577.3649999173358","77","0","arctic","","","","",""
"dual-task","null","null","null","","arctic","arctic","511.545000015758","","D","null","88","77","0","arctic-dual-task","","D","uppercase","258000","0","2","2b5d3e1a8549dd0f4689da9e4eeaaa725f505adcd3ae7b60e77ccff946ca4559","258000.6450000219","511.545000015758","88","0","arctic","","","","",""
"dual-task","null","null","null","","arctic","arctic","689.4249999895692","","t","null","77","88","0","arctic-dual-task","","t","lowercase","268000","0","2","2b5d3e1a8549dd0f4689da9e4eeaaa725f505adcd3ae7b60e77ccff946ca4559","268000.2350000432","689.4249999895692","77","0","arctic","","","","",""
"dual-task","null","null","null","","arctic","arctic","600.3450000425801","","R","null","88","77","0","arctic-dual-task","","R","uppercase","278000","0","2","2b5d3e1a8549dd0f4689da9e4eeaaa725f505adcd3ae7b60e77ccff946ca4559","277999.8750000959","600.3450000425801","88","0","arctic","","","","",""
"dual-task","null","null","null","","arctic","arctic","713.8700000941753","","f","null","77","88","0","arctic-dual-task","","f","lowercase","284000","0","2","2b5d3e1a8549dd0f4689da9e4eeaaa725f505adcd3ae7b60e77ccff946ca4559","283999.8450001003","713.8700000941753","77","0","arctic","","","","",""
"dual-task","null","null","null","","arctic","arctic","887.6949999248609","","e","null","77","88","0","arctic-dual-task","","e","lowercase","292000","0","2","2b5d3e1a8549dd0f4689da9e4eeaaa725f505adcd3ae7b60e77ccff946ca4559","292000.6450000219","887.6949999248609","77","0","arctic","","","","",""
"dual-task","null","null","null","","arctic","arctic","745.6350000575185","","T","null","88","77","0","arctic-dual-task","","T","uppercase","304000","0","2","2b5d3e1a8549dd0f4689da9e4eeaaa725f505adcd3ae7b60e77ccff946ca4559","304000.0900001032","745.6350000575185","88","0","arctic","","","","",""
"dual-task","null","null","null","","arctic","arctic","647.7899999590591","","t","null","77","88","0","arctic-dual-task","","t","lowercase","310000","0","2","2b5d3e1a8549dd0f4689da9e4eeaaa725f505adcd3ae7b60e77ccff946ca4559","310000.5400000373","647.7899999590591","77","0","arctic","","","","",""
"dual-task","null","null","null","","arctic","arctic","833.2449999870732","","t","null","77","88","0","arctic-dual-task","","t","lowercase","322000","0","2","2b5d3e1a8549dd0f4689da9e4eeaaa725f505adcd3ae7b60e77ccff946ca4559","322000.4900000058","833.2449999870732","77","0","arctic","","","","",""
"dual-task","null","null","null","","arctic","arctic","713.0099999485537","","d","null","77","88","0","arctic-dual-task","","d","lowercase","336000","0","2","2b5d3e1a8549dd0f4689da9e4eeaaa725f505adcd3ae7b60e77ccff946ca4559","336000.7350000087","713.0099999485537","77","0","arctic","","","","",""
"dual-task","null","null","null","","arctic","arctic","1711.8349999655038","","Q","null","77","77","1","arctic-dual-task","","Q","uppercase","344000","0","2","2b5d3e1a8549dd0f4689da9e4eeaaa725f505adcd3ae7b60e77ccff946ca4559","344000.5250000395","1711.8349999655038","77","1","arctic","","","","",""
"dual-task","null","null","null","","arctic","arctic","881.0199999716133","","T","null","88","77","0","arctic-dual-task","","T","uppercase","358000","0","2","2b5d3e1a8549dd0f4689da9e4eeaaa725f505adcd3ae7b60e77ccff946ca4559","358000.7800000021","881.0199999716133","88","0","arctic","","","","",""
"dual-task","null","null","null","","arctic","arctic","1401.5800000634044","","a","null","77","88","0","arctic-dual-task","","a","lowercase","370000","0","2","2b5d3e1a8549dd0f4689da9e4eeaaa725f505adcd3ae7b60e77ccff946ca4559","370000.2300000051","1401.5800000634044","77","0","arctic","","","","",""
"dual-task","null","null","null","","arctic","arctic","736.5699999500066","","G","null","88","77","0","arctic-dual-task","","G","uppercase","380000","0","2","2b5d3e1a8549dd0f4689da9e4eeaaa725f505adcd3ae7b60e77ccff946ca4559","379999.8300001025","736.5699999500066","88","0","arctic","","","","",""
"dual-task","null","null","null","","arctic","arctic","912.624999997206","","E","null","88","77","0","arctic-dual-task","","E","uppercase","392000","0","2","2b5d3e1a8549dd0f4689da9e4eeaaa725f505adcd3ae7b60e77ccff946ca4559","392001.2650000863","912.624999997206","88","0","arctic","","","","",""
"dual-task","null","null","null","","arctic","arctic","767.4000000115484","","b","null","77","88","0","arctic-dual-task","","b","lowercase","400000","0","2","2b5d3e1a8549dd0f4689da9e4eeaaa725f505adcd3ae7b60e77ccff946ca4559","400001.0600000387","767.4000000115484","77","0","arctic","","","","",""
"dual-task","null","null","null","","arctic","arctic","1417.2750000143424","","H","null","88","77","0","arctic-dual-task","","H","uppercase","408000","0","2","2b5d3e1a8549dd0f4689da9e4eeaaa725f505adcd3ae7b60e77ccff946ca4559","408000.85500010755","1417.2750000143424","88","0","arctic","","","","",""
"dual-task","null","null","null","","arctic","arctic","737.6400000648573","","b","null","77","88","0","arctic-dual-task","","b","lowercase","420000","0","2","2b5d3e1a8549dd0f4689da9e4eeaaa725f505adcd3ae7b60e77ccff946ca4559","420000.2750001149","737.6400000648573","77","0","arctic","","","","",""
"dual-task","null","null","null","","arctic","arctic","632.5850000139326","","B","null","88","77","0","arctic-dual-task","","B","uppercase","430000","0","2","2b5d3e1a8549dd0f4689da9e4eeaaa725f505adcd3ae7b60e77ccff946ca4559","429999.93000004906","632.5850000139326","88","0","arctic","","","","",""
"dual-task","null","null","null","","arctic","arctic","689.4949999405071","","t","null","77","88","0","arctic-dual-task","","t","lowercase","442000","0","2","2b5d3e1a8549dd0f4689da9e4eeaaa725f505adcd3ae7b60e77ccff946ca4559","442000.4900000058","689.4949999405071","77","0","arctic","","","","",""
"dual-task","null","null","null","","arctic","arctic","737.8049999242648","","d","null","77","88","0","arctic-dual-task","","d","lowercase","456000","0","2","2b5d3e1a8549dd0f4689da9e4eeaaa725f505adcd3ae7b60e77ccff946ca4559","456000.36500010174","737.8049999242648","77","0","arctic","","","","",""
"dual-task","null","null","null","","arctic","arctic","759.8299999954179","","A","null","88","77","0","arctic-dual-task","","A","uppercase","464000","0","2","2b5d3e1a8549dd0f4689da9e4eeaaa725f505adcd3ae7b60e77ccff946ca4559","464000.7350000087","759.8299999954179","88","0","arctic","","","","",""
"dual-task","null","null","null","","arctic","arctic","1010.9749999828637","","q","null","77","88","0","arctic-dual-task","","q","lowercase","470000","0","2","2b5d3e1a8549dd0f4689da9e4eeaaa725f505adcd3ae7b60e77ccff946ca4559","470000.79000007827","1010.9749999828637","77","0","arctic","","","","",""
"dual-task","null","null","null","","arctic","arctic","NA","","e","null","NA","88","0","arctic-dual-task","","e","lowercase","476000","1","2","2b5d3e1a8549dd0f4689da9e4eeaaa725f505adcd3ae7b60e77ccff946ca4559","476001.3100000797","NA","NA","0","arctic","","","","",""
"dual-task","null","null","null","","arctic","arctic","721.5399999404326","","e","null","77","88","0","arctic-dual-task","","e","lowercase","490000","0","2","2b5d3e1a8549dd0f4689da9e4eeaaa725f505adcd3ae7b60e77ccff946ca4559","490000.5700000329","721.5399999404326","77","0","arctic","","","","",""
"dual-task","null","null","null","","arctic","arctic","833.6099999723956","","a","null","77","88","0","arctic-dual-task","","a","lowercase","502000","0","2","2b5d3e1a8549dd0f4689da9e4eeaaa725f505adcd3ae7b60e77ccff946ca4559","502000.5100000417","833.6099999723956","77","0","arctic","","","","",""
"dual-task","null","null","null","","arctic","arctic","727.8500000247732","","r","null","77","88","0","arctic-dual-task","","r","lowercase","510000","0","2","2b5d3e1a8549dd0f4689da9e4eeaaa725f505adcd3ae7b60e77ccff946ca4559","510000.7850000402","727.8500000247732","77","0","arctic","","","","",""
"dual-task","null","null","null","","arctic","arctic","609.375","","T","null","88","77","0","arctic-dual-task","","T","uppercase","516000","0","2","2b5d3e1a8549dd0f4689da9e4eeaaa725f505adcd3ae7b60e77ccff946ca4559","516000.7400000468","609.375","88","0","arctic","","","","",""
"dual-task","null","null","null","","arctic","arctic","536.3299999153242","","b","null","77","88","0","arctic-dual-task","","b","lowercase","526000","0","2","2b5d3e1a8549dd0f4689da9e4eeaaa725f505adcd3ae7b60e77ccff946ca4559","526000.3950000973","536.3299999153242","77","0","arctic","","","","",""
"dual-task","null","null","null","","arctic","arctic","865.3100000228733","","h","null","77","88","0","arctic-dual-task","","h","lowercase","538000","0","2","2b5d3e1a8549dd0f4689da9e4eeaaa725f505adcd3ae7b60e77ccff946ca4559","538000.8100001141","865.3100000228733","77","0","arctic","","","","",""
"dual-task","null","null","null","","arctic","arctic","802.0649999380112","","Q","null","88","77","0","arctic-dual-task","","Q","uppercase","552000","0","2","2b5d3e1a8549dd0f4689da9e4eeaaa725f505adcd3ae7b60e77ccff946ca4559","552000.0750001054","802.0649999380112","88","0","arctic","","","","",""
"dual-task","null","null","null","","arctic","arctic","682.1599999675527","","b","null","77","88","0","arctic-dual-task","","b","lowercase","564000","0","2","2b5d3e1a8549dd0f4689da9e4eeaaa725f505adcd3ae7b60e77ccff946ca4559","564000.4900000058","682.1599999675527","77","0","arctic","","","","",""
"dual-task","null","null","null","","arctic","arctic","720.4999999376014","","n","null","77","88","0","arctic-dual-task","","n","lowercase","572000","0","2","2b5d3e1a8549dd0f4689da9e4eeaaa725f505adcd3ae7b60e77ccff946ca4559","572000.2750001149","720.4999999376014","77","0","arctic","","","","",""
"dual-task","null","null","null","","arctic","arctic","809.2900000046939","","f","null","77","88","0","arctic-dual-task","","f","lowercase","582000","0","2","2b5d3e1a8549dd0f4689da9e4eeaaa725f505adcd3ae7b60e77ccff946ca4559","582000.900000101","809.2900000046939","77","0","arctic","","","","",""
"dual-task","null","null","null","","arctic","arctic","664.2449999926612","","e","null","77","88","0","arctic-dual-task","","e","lowercase","590000","0","2","2b5d3e1a8549dd0f4689da9e4eeaaa725f505adcd3ae7b60e77ccff946ca4559","590000.7050000131","664.2449999926612","77","0","arctic","","","","",""
"dual-task","null","null","null","","arctic","arctic","841.5500000119209","","f","null","77","88","0","arctic-dual-task","","f","lowercase","596000","0","2","2b5d3e1a8549dd0f4689da9e4eeaaa725f505adcd3ae7b60e77ccff946ca4559","596000.6800000556","841.5500000119209","77","0","arctic","","","","",""
"dual-task","null","null","null","","arctic","arctic","769.1600000252947","","G","null","88","77","0","arctic-dual-task","","G","uppercase","604000","0","2","2b5d3e1a8549dd0f4689da9e4eeaaa725f505adcd3ae7b60e77ccff946ca4559","603999.9650000827","769.1600000252947","88","0","arctic","","","","",""
"dual-task","null","null","null","","arctic","arctic","849.5050000492483","","a","null","77","88","0","arctic-dual-task","","a","lowercase","612000","0","2","2b5d3e1a8549dd0f4689da9e4eeaaa725f505adcd3ae7b60e77ccff946ca4559","612000.7600000827","849.5050000492483","77","0","arctic","","","","",""
"dual-task","null","null","null","","arctic","arctic","681.2749999808148","","n","null","77","88","0","arctic-dual-task","","n","lowercase","624000","0","2","2b5d3e1a8549dd0f4689da9e4eeaaa725f505adcd3ae7b60e77ccff946ca4559","624001.200000057","681.2749999808148","77","0","arctic","","","","",""
"dual-task","null","null","null","","arctic","arctic","703.8650000467896","","H","null","88","77","0","arctic-dual-task","","H","uppercase","632000","0","2","2b5d3e1a8549dd0f4689da9e4eeaaa725f505adcd3ae7b60e77ccff946ca4559","632001.0000000475","703.8650000467896","88","0","arctic","","","","",""
"dual-task","null","null","null","","arctic","arctic","705.9000000590459","","E","null","88","77","0","arctic-dual-task","","E","uppercase","644000","0","2","2b5d3e1a8549dd0f4689da9e4eeaaa725f505adcd3ae7b60e77ccff946ca4559","644000.4100000951","705.9000000590459","88","0","arctic","","","","",""
"dual-task","null","null","null","","arctic","arctic","624.8849999392405","","N","null","88","77","0","arctic-dual-task","","N","uppercase","654000","0","2","2b5d3e1a8549dd0f4689da9e4eeaaa725f505adcd3ae7b60e77ccff946ca4559","654000.030000112","624.8849999392405","88","0","arctic","","","","",""
"dual-task","null","null","null","","arctic","arctic","769.8699999600649","","q","null","77","88","0","arctic-dual-task","","q","lowercase","664000","0","2","2b5d3e1a8549dd0f4689da9e4eeaaa725f505adcd3ae7b60e77ccff946ca4559","664000.6400001002","769.8699999600649","77","0","arctic","","","","",""
"dual-task","null","null","null","","arctic","arctic","792.4600000260398","","g","null","77","88","0","arctic-dual-task","","g","lowercase","672000","0","2","2b5d3e1a8549dd0f4689da9e4eeaaa725f505adcd3ae7b60e77ccff946ca4559","672000.4450000124","792.4600000260398","77","0","arctic","","","","",""
"dual-task","null","null","null","","arctic","arctic","586.1550000263378","","g","null","77","88","0","arctic-dual-task","","g","lowercase","678000","0","2","2b5d3e1a8549dd0f4689da9e4eeaaa725f505adcd3ae7b60e77ccff946ca4559","678000.900000101","586.1550000263378","77","0","arctic","","","","",""
"dual-task","null","null","null","","arctic","arctic","632.3500000871718","","a","null","77","88","0","arctic-dual-task","","a","lowercase","686000","0","2","2b5d3e1a8549dd0f4689da9e4eeaaa725f505adcd3ae7b60e77ccff946ca4559","686000.6950000534","632.3500000871718","77","0","arctic","","","","",""
"dual-task","null","null","null","","arctic","arctic","666.230000089854","","g","null","77","88","0","arctic-dual-task","","g","lowercase","698000","0","2","2b5d3e1a8549dd0f4689da9e4eeaaa725f505adcd3ae7b60e77ccff946ca4559","698000.1400000183","666.230000089854","77","0","arctic","","","","",""
"dual-task","null","null","null","","arctic","arctic","641.5200000628829","","B","null","88","77","0","arctic-dual-task","","B","uppercase","712000","0","2","2b5d3e1a8549dd0f4689da9e4eeaaa725f505adcd3ae7b60e77ccff946ca4559","712000.8950000629","641.5200000628829","88","0","arctic","","","","",""
"dual-task","null","null","null","","arctic","arctic","488.7149999849498","","h","null","77","88","0","arctic-dual-task","","h","lowercase","718000","0","2","2b5d3e1a8549dd0f4689da9e4eeaaa725f505adcd3ae7b60e77ccff946ca4559","718000.3450000659","488.7149999849498","77","0","arctic","","","","",""
"dual-task","null","null","null","","arctic","arctic","634.4249999383464","","D","null","88","77","0","arctic-dual-task","","D","uppercase","732000","0","2","2b5d3e1a8549dd0f4689da9e4eeaaa725f505adcd3ae7b60e77ccff946ca4559","732000.1250000205","634.4249999383464","88","0","arctic","","","","",""
"dual-task","null","null","null","","arctic","arctic","512.5250000273809","","n","null","77","88","0","arctic-dual-task","","n","lowercase","738000","0","2","2b5d3e1a8549dd0f4689da9e4eeaaa725f505adcd3ae7b60e77ccff946ca4559","738000.5900000688","512.5250000273809","77","0","arctic","","","","",""
"dual-task","null","null","null","","arctic","arctic","849.6599999489263","","R","null","88","77","0","arctic-dual-task","","R","uppercase","752000","0","2","2b5d3e1a8549dd0f4689da9e4eeaaa725f505adcd3ae7b60e77ccff946ca4559","752000.8400001097","849.6599999489263","88","0","arctic","","","","",""
"dual-task","null","null","null","","arctic","arctic","800.4300000611693","","d","null","77","88","0","arctic-dual-task","","d","lowercase","760000","0","2","2b5d3e1a8549dd0f4689da9e4eeaaa725f505adcd3ae7b60e77ccff946ca4559","760000.6350000622","800.4300000611693","77","0","arctic","","","","",""
"dual-task","null","null","null","","arctic","arctic","708.3600000478327","","h","null","77","88","0","arctic-dual-task","","h","lowercase","768000","0","2","2b5d3e1a8549dd0f4689da9e4eeaaa725f505adcd3ae7b60e77ccff946ca4559","768000.425000093","708.3600000478327","77","0","arctic","","","","",""
"dual-task","null","null","null","","arctic","arctic","681.8900000071153","","q","null","77","88","0","arctic-dual-task","","q","lowercase","780000","0","2","2b5d3e1a8549dd0f4689da9e4eeaaa725f505adcd3ae7b60e77ccff946ca4559","780000.8650000673","681.8900000071153","77","0","arctic","","","","",""
"audio-keyboard-response","29","1075374","0.0-6.0-0.0-1.0","2b5d3e1a8549dd0f4689da9e4eeaaa725f505adcd3ae7b60e77ccff946ca4559","arctic","arctic","null","","audio/story_arctic_scrambled.mp3","","null","","","","","","","","","","","","","","","","","","","",""
"html-button-response","30","1077662","0.0-6.0-0.0-2.0","2b5d3e1a8549dd0f4689da9e4eeaaa725f505adcd3ae7b60e77ccff946ca4559","arctic","arctic","2287","","<p>This concludes the story. Thank you for listening.</p><p>You will now answer some questions about the content of the story.</p>","0","","","","","","","","","","","","","","","","","","","","",""
"survey-multi-choice","31","1083486","0.0-6.0-0.0-3.0-0.0","2b5d3e1a8549dd0f4689da9e4eeaaa725f505adcd3ae7b60e77ccff946ca4559","arctic","arctic","5823","","<b>How many sponsorships did the narrator receive to support her expedition?</b>","","","","1","arctic-comprehension","","","","","","","","","","","","","{""Q0"":""None""}","","","",""
"survey-multi-choice","32","1097638","0.0-6.0-0.0-3.0-0.1","2b5d3e1a8549dd0f4689da9e4eeaaa725f505adcd3ae7b60e77ccff946ca4559","arctic","arctic","13900","","<b>How did the narrator&#39;s encounter with the polar bears end?</b>","","","","1","arctic-comprehension","","","","","","","","","","","","","{""Q0"":""The bears walked back to their den.""}","","","",""
"survey-multi-choice","33","1102662","0.0-6.0-0.0-3.0-0.2","2b5d3e1a8549dd0f4689da9e4eeaaa725f505adcd3ae7b60e77ccff946ca4559","arctic","arctic","4772","","<b>What did the narrator do for leisure while in her tent?</b>","","","","1","arctic-comprehension","","","","","","","","","","","","","{""Q0"":""Read""}","","","",""
"survey-multi-choice","34","1107334","0.0-6.0-0.0-3.0-0.3","2b5d3e1a8549dd0f4689da9e4eeaaa725f505adcd3ae7b60e77ccff946ca4559","arctic","arctic","4421","","<b>What was the objective of the narrator&#39;s expedition?</b>","","","","1","arctic-comprehension","","","","","","","","","","","","","{""Q0"":""Dogsled across Arctic America""}","","","",""
"survey-multi-choice","35","1114134","0.0-6.0-0.0-3.0-0.4","2b5d3e1a8549dd0f4689da9e4eeaaa725f505adcd3ae7b60e77ccff946ca4559","arctic","arctic","6548","","<b>What were the weather conditions in the Arctic like the winter of the narrator&#39;s expedition?</b>","","","","1","arctic-comprehension","","","","","","","","","","","","","{""Q0"":""There were more storms than any other winter in recorded history.""}","","","",""
"survey-multi-choice","36","1119798","0.0-6.0-0.0-3.0-0.5","2b5d3e1a8549dd0f4689da9e4eeaaa725f505adcd3ae7b60e77ccff946ca4559","arctic","arctic","5412","","<b>What is the name of the narrator&#39;s neighbour?</b>","","","","1","arctic-comprehension","","","","","","","","","","","","","{""Q0"":""Dave""}","","","",""
"survey-multi-choice","37","1123334","0.0-6.0-0.0-3.0-0.6","2b5d3e1a8549dd0f4689da9e4eeaaa725f505adcd3ae7b60e77ccff946ca4559","arctic","arctic","3284","","<b>Which dog on the narrator&#39;s dog team never followed instructions?</b>","","","","1","arctic-comprehension","","","","","","","","","","","","","{""Q0"":""Robert""}","","","",""
"survey-multi-choice","38","1132870","0.0-6.0-0.0-3.0-0.7","2b5d3e1a8549dd0f4689da9e4eeaaa725f505adcd3ae7b60e77ccff946ca4559","arctic","arctic","9285","","<b>How did the narrator&#39;s neighbour respond when she told him about her expedition?</b>","","","","1","arctic-comprehension","","","","","","","","","","","","","{""Q0"":""He said she was going to fail.""}","","","",""
"survey-multi-choice","39","1139198","0.0-6.0-0.0-3.0-0.8","2b5d3e1a8549dd0f4689da9e4eeaaa725f505adcd3ae7b60e77ccff946ca4559","arctic","arctic","6076","","<b>How did the narrator prepare for her expedition?</b>","","","","1","arctic-comprehension","","","","","","","","","","","","","{""Q0"":""Trained in Alaska learning how to dogsled""}","","","",""
"survey-multi-choice","40","1142966","0.0-6.0-0.0-3.0-0.9","2b5d3e1a8549dd0f4689da9e4eeaaa725f505adcd3ae7b60e77ccff946ca4559","arctic","arctic","3516","","<b>How did the dogs respond when they saw the bears?</b>","","","","1","arctic-comprehension","","","","","","","","","","","","","{""Q0"":""Approached them""}","","","",""
"html-button-response","41","1145238","0.0-6.0-0.0-4.0","2b5d3e1a8549dd0f4689da9e4eeaaa725f505adcd3ae7b60e77ccff946ca4559","arctic","arctic","2021","","<p>Thank you for your responses.</p><p>You will now answer some questions about your impressions of the story.</p>","0","","","","","","","","","","","","","","","","","","","","",""
"html-button-response","42","1147334","0.0-6.0-0.0-5.0-0.0","2b5d3e1a8549dd0f4689da9e4eeaaa725f505adcd3ae7b60e77ccff946ca4559","arctic","arctic","2095","","E7","6","","","","arctic-engagement","","","","","","","","","","","","","","7","enjoyment","",""
"html-button-response","43","1149230","0.0-6.0-0.0-5.0-0.1","2b5d3e1a8549dd0f4689da9e4eeaaa725f505adcd3ae7b60e77ccff946ca4559","arctic","arctic","1645","","E6","6","","","","arctic-engagement","","","","","","","","","","","","","","7","enjoyment","",""
"html-button-response","44","1151102","0.0-6.0-0.0-5.0-0.2","2b5d3e1a8549dd0f4689da9e4eeaaa725f505adcd3ae7b60e77ccff946ca4559","arctic","arctic","1621","","A2","6","","","","arctic-engagement","","","","","","","","","","","","","","7","absorption","",""
"html-button-response","45","1153566","0.0-6.0-0.0-5.0-0.3","2b5d3e1a8549dd0f4689da9e4eeaaa725f505adcd3ae7b60e77ccff946ca4559","arctic","arctic","2213","","EE1","6","","","","arctic-engagement","","","","","","","","","","","","","","7","emo-engage","",""
"html-button-response","46","1155326","0.0-6.0-0.0-5.0-0.4","2b5d3e1a8549dd0f4689da9e4eeaaa725f505adcd3ae7b60e77ccff946ca4559","arctic","arctic","1508","","EE4","6","","","","arctic-engagement","","","","","","","","","","","","","","7","emo-engage","",""
"html-button-response","47","1164862","0.0-6.0-0.0-5.0-0.5","2b5d3e1a8549dd0f4689da9e4eeaaa725f505adcd3ae7b60e77ccff946ca4559","arctic","arctic","9284","","E10","4","","","","arctic-engagement","","","","","","","","","","","","","","5","enjoyment","",""
"html-button-response","48","1166782","0.0-6.0-0.0-5.0-0.6","2b5d3e1a8549dd0f4689da9e4eeaaa725f505adcd3ae7b60e77ccff946ca4559","arctic","arctic","1668","","MS1","6","","","","arctic-engagement","","","","","","","","","","","","","","7","mental-sim","",""
"html-button-response","49","1168662","0.0-6.0-0.0-5.0-0.7","2b5d3e1a8549dd0f4689da9e4eeaaa725f505adcd3ae7b60e77ccff946ca4559","arctic","arctic","1628","","E8","3","","","","arctic-engagement","","","","","","","","","","","","","","4","enjoyment","",""
"html-button-response","50","1170726","0.0-6.0-0.0-5.0-0.8","2b5d3e1a8549dd0f4689da9e4eeaaa725f505adcd3ae7b60e77ccff946ca4559","arctic","arctic","1813","","MS3","6","","","","arctic-engagement","","","","","","","","","","","","","","7","mental-sim","",""
"html-button-response","51","1174254","0.0-6.0-0.0-5.0-0.9","2b5d3e1a8549dd0f4689da9e4eeaaa725f505adcd3ae7b60e77ccff946ca4559","arctic","arctic","3276","","A4","4","","","","arctic-engagement","","","","","","","","","","","","","","5","absorption","",""
"html-button-response","52","1176422","0.0-6.0-0.0-5.0-0.10","2b5d3e1a8549dd0f4689da9e4eeaaa725f505adcd3ae7b60e77ccff946ca4559","arctic","arctic","1918","","MS2","6","","","","arctic-engagement","","","","","","","","","","","","","","7","mental-sim","",""
"html-button-response","53","1178094","0.0-6.0-0.0-5.0-0.11","2b5d3e1a8549dd0f4689da9e4eeaaa725f505adcd3ae7b60e77ccff946ca4559","arctic","arctic","1421","","E1","5","","","","arctic-engagement","","","","","","","","","","","","","","6","enjoyment","",""
"html-button-response","54","1181462","0.0-6.0-0.0-5.0-0.12","2b5d3e1a8549dd0f4689da9e4eeaaa725f505adcd3ae7b60e77ccff946ca4559","arctic","arctic","3117","","A1","3","","","","arctic-engagement","","","","","","","","","","","","","","4","absorption","",""
"html-button-response","55","1183390","0.0-6.0-0.0-5.0-0.13","2b5d3e1a8549dd0f4689da9e4eeaaa725f505adcd3ae7b60e77ccff946ca4559","arctic","arctic","1677","","EE3","3","","","","arctic-engagement","","","","","","","","","","","","","","4","emo-engage","",""
"html-button-response","56","1185310","0.0-6.0-0.0-5.0-0.14","2b5d3e1a8549dd0f4689da9e4eeaaa725f505adcd3ae7b60e77ccff946ca4559","arctic","arctic","1669","","EE2","3","","","","arctic-engagement","","","","","","","","","","","","","","4","emo-engage","",""
"html-button-response","57","1187798","0.0-6.0-0.0-5.0-0.15","2b5d3e1a8549dd0f4689da9e4eeaaa725f505adcd3ae7b60e77ccff946ca4559","arctic","arctic","2237","","A5","3","","","","arctic-engagement","","","","","","","","","","","","","","4","absorption","",""
"html-button-response","58","1189294","0.0-6.0-0.0-5.0-0.16","2b5d3e1a8549dd0f4689da9e4eeaaa725f505adcd3ae7b60e77ccff946ca4559","arctic","arctic","1245","","A3","5","","","","arctic-engagement","","","","","","","","","","","","","","6","absorption","",""
"html-button-response","59","1191678","0.0-6.0-0.0-5.0-0.17","2b5d3e1a8549dd0f4689da9e4eeaaa725f505adcd3ae7b60e77ccff946ca4559","arctic","arctic","2134","","EE5","5","","","","arctic-engagement","","","","","","","","","","","","","","6","emo-engage","",""
"html-keyboard-response","60","1202502","0.0-6.0-1.0","2b5d3e1a8549dd0f4689da9e4eeaaa725f505adcd3ae7b60e77ccff946ca4559","arctic","arctic","10573","","<p>Thank you for your responses. You will now listen to the second story.</p><p>Remember, as you listen to the story you will see letters appear on the screen.</br>As quickly as possible, press <b>&lt;x&gt;</b> if the letter is lowercase and <b>&lt;m&gt;</b> if the letter is uppercase.</p><p>Press <b>&lt;x&gt;</b> or <b>&lt;m&gt;</b> to begin listening!</p>","","77","","","","","","","","","","","","","","","","","","","",""
"html-keyboard-response","61","1203003","0.0-6.0-2.0-0.0","2b5d3e1a8549dd0f4689da9e4eeaaa725f505adcd3ae7b60e77ccff946ca4559","arctic","arctic","null","","<div style=""font-size:60px;"" tabindex=""0"">+</div>","","null","","","","","","","","","","","","","","","","","","","",""
"dual-task","null","null","null","","arctic","arctic","953.8900000043213","","B","null","77","77","1","swim-dual-task","","B","uppercase","12000","0","2","2b5d3e1a8549dd0f4689da9e4eeaaa725f505adcd3ae7b60e77ccff946ca4559","12000.505000003614","953.8900000043213","77","1","swim","","","","",""
"dual-task","null","null","null","","arctic","arctic","1058.4550000494346","","N","null","77","77","1","swim-dual-task","","N","uppercase","24000","0","2","2b5d3e1a8549dd0f4689da9e4eeaaa725f505adcd3ae7b60e77ccff946ca4559","23999.739999999292","1058.4550000494346","77","1","swim","","","","",""
"dual-task","null","null","null","","arctic","arctic","672.4399999948218","","r","null","88","88","1","swim-dual-task","","r","lowercase","34000","0","2","2b5d3e1a8549dd0f4689da9e4eeaaa725f505adcd3ae7b60e77ccff946ca4559","34000.34999998752","672.4399999948218","88","1","swim","","","","",""
"dual-task","null","null","null","","arctic","arctic","602.1099999779835","","T","null","77","77","1","swim-dual-task","","T","uppercase","42000","0","2","2b5d3e1a8549dd0f4689da9e4eeaaa725f505adcd3ae7b60e77ccff946ca4559","42000.160000054166","602.1099999779835","77","1","swim","","","","",""
"dual-task","null","null","null","","arctic","arctic","472.35499997623265","","G","null","77","77","1","swim-dual-task","","G","uppercase","50000","0","2","2b5d3e1a8549dd0f4689da9e4eeaaa725f505adcd3ae7b60e77ccff946ca4559","50000.445000012405","472.35499997623265","77","1","swim","","","","",""
"dual-task","null","null","null","","arctic","arctic","530.0399999832734","","D","null","77","77","1","swim-dual-task","","D","uppercase","58000","0","2","2b5d3e1a8549dd0f4689da9e4eeaaa725f505adcd3ae7b60e77ccff946ca4559","58000.2150000073","530.0399999832734","77","1","swim","","","","",""
"dual-task","null","null","null","","arctic","arctic","610.4599999962375","","e","null","88","88","1","swim-dual-task","","e","lowercase","68000","0","2","2b5d3e1a8549dd0f4689da9e4eeaaa725f505adcd3ae7b60e77ccff946ca4559","67999.84000006225","610.4599999962375","88","1","swim","","","","",""
"dual-task","null","null","null","","arctic","arctic","665.8450000686571","","r","null","88","88","1","swim-dual-task","","r","lowercase","78000","0","2","2b5d3e1a8549dd0f4689da9e4eeaaa725f505adcd3ae7b60e77ccff946ca4559","78000.44000009075","665.8450000686571","88","1","swim","","","","",""
"dual-task","null","null","null","","arctic","arctic","896.6800000052899","","f","null","88","88","1","swim-dual-task","","f","lowercase","86000","0","2","2b5d3e1a8549dd0f4689da9e4eeaaa725f505adcd3ae7b60e77ccff946ca4559","86000.2450000029","896.6800000052899","88","1","swim","","","","",""
"dual-task","null","null","null","","arctic","arctic","601.6400000080466","","q","null","88","88","1","swim-dual-task","","q","lowercase","98000","0","2","2b5d3e1a8549dd0f4689da9e4eeaaa725f505adcd3ae7b60e77ccff946ca4559","98000.68000005558","601.6400000080466","88","1","swim","","","","",""
"dual-task","null","null","null","","arctic","arctic","625.2749999985099","","g","null","88","88","1","swim-dual-task","","g","lowercase","110000","0","2","2b5d3e1a8549dd0f4689da9e4eeaaa725f505adcd3ae7b60e77ccff946ca4559","110001.12500006799","625.2749999985099","88","1","swim","","","","",""
"dual-task","null","null","null","","arctic","arctic","424.01499999687076","","e","null","77","88","0","swim-dual-task","","e","lowercase","118000","0","2","2b5d3e1a8549dd0f4689da9e4eeaaa725f505adcd3ae7b60e77ccff946ca4559","118000.89999998454","424.01499999687076","77","0","swim","","","","",""
"dual-task","null","null","null","","arctic","arctic","569.3249999312684","","h","null","88","88","1","swim-dual-task","","h","lowercase","132000","0","2","2b5d3e1a8549dd0f4689da9e4eeaaa725f505adcd3ae7b60e77ccff946ca4559","132001.15000002552","569.3249999312684","88","1","swim","","","","",""
"dual-task","null","null","null","","arctic","arctic","506.49499997962266","","a","null","88","88","1","swim-dual-task","","a","lowercase","146000","0","2","2b5d3e1a8549dd0f4689da9e4eeaaa725f505adcd3ae7b60e77ccff946ca4559","145999.925000011","506.49499997962266","88","1","swim","","","","",""
"dual-task","null","null","null","","arctic","arctic","712.8050000173971","","D","null","77","77","1","swim-dual-task","","D","uppercase","154000","0","2","2b5d3e1a8549dd0f4689da9e4eeaaa725f505adcd3ae7b60e77ccff946ca4559","154000.2000000095","712.8050000173971","77","1","swim","","","","",""
"dual-task","null","null","null","","arctic","arctic","642.2849999507889","","H","null","77","77","1","swim-dual-task","","H","uppercase","160000","0","2","2b5d3e1a8549dd0f4689da9e4eeaaa725f505adcd3ae7b60e77ccff946ca4559","160000.16000005417","642.2849999507889","77","1","swim","","","","",""
"dual-task","null","null","null","","arctic","arctic","552.2499999497086","","Q","null","77","77","1","swim-dual-task","","Q","uppercase","170000","0","2","2b5d3e1a8549dd0f4689da9e4eeaaa725f505adcd3ae7b60e77ccff946ca4559","170000.77500008047","552.2499999497086","77","1","swim","","","","",""
"dual-task","null","null","null","","arctic","arctic","472.89999993517995","","B","null","77","77","1","swim-dual-task","","B","uppercase","182000","0","2","2b5d3e1a8549dd0f4689da9e4eeaaa725f505adcd3ae7b60e77ccff946ca4559","182000.1850000117","472.89999993517995","77","1","swim","","","","",""
"dual-task","null","null","null","","arctic","arctic","480.0149999791756","","B","null","77","77","1","swim-dual-task","","B","uppercase","190000","0","2","2b5d3e1a8549dd0f4689da9e4eeaaa725f505adcd3ae7b60e77ccff946ca4559","190001.02500000503","480.0149999791756","77","1","swim","","","","",""
"dual-task","null","null","null","","arctic","arctic","570.1300000073388","","b","null","88","88","1","swim-dual-task","","b","lowercase","202000","0","2","2b5d3e1a8549dd0f4689da9e4eeaaa725f505adcd3ae7b60e77ccff946ca4559","202000.45000005048","570.1300000073388","88","1","swim","","","","",""
"dual-task","null","null","null","","arctic","arctic","713.6950000422075","","G","null","77","77","1","swim-dual-task","","G","uppercase","214000","0","2","2b5d3e1a8549dd0f4689da9e4eeaaa725f505adcd3ae7b60e77ccff946ca4559","214000.88000006508","713.6950000422075","77","1","swim","","","","",""
"dual-task","null","null","null","","arctic","arctic","490.2700000675395","","A","null","77","77","1","swim-dual-task","","A","uppercase","226000","0","2","2b5d3e1a8549dd0f4689da9e4eeaaa725f505adcd3ae7b60e77ccff946ca4559","226000.31999999192","490.2700000675395","77","1","swim","","","","",""
"dual-task","null","null","null","","arctic","arctic","585.0249999202788","","H","null","77","77","1","swim-dual-task","","H","uppercase","234000","0","2","2b5d3e1a8549dd0f4689da9e4eeaaa725f505adcd3ae7b60e77ccff946ca4559","234000.14500005636","585.0249999202788","77","1","swim","","","","",""
"dual-task","null","null","null","","arctic","arctic","570.6650000065565","","d","null","88","88","1","swim-dual-task","","d","lowercase","242000","0","2","2b5d3e1a8549dd0f4689da9e4eeaaa725f505adcd3ae7b60e77ccff946ca4559","241999.91500005126","570.6650000065565","88","1","swim","","","","",""
"dual-task","null","null","null","","arctic","arctic","560.7950000558048","","E","null","77","77","1","swim-dual-task","","E","uppercase","248000","0","2","2b5d3e1a8549dd0f4689da9e4eeaaa725f505adcd3ae7b60e77ccff946ca4559","248000.34999998752","560.7950000558048","77","1","swim","","","","",""
"dual-task","null","null","null","","arctic","arctic","513.4799999650568","","f","null","88","88","1","swim-dual-task","","f","lowercase","256000","0","2","2b5d3e1a8549dd0f4689da9e4eeaaa725f505adcd3ae7b60e77ccff946ca4559","256001.1550000636","513.4799999650568","88","1","swim","","","","",""
"dual-task","null","null","null","","arctic","arctic","544.2599999951199","","E","null","77","77","1","swim-dual-task","","E","uppercase","264000","0","2","2b5d3e1a8549dd0f4689da9e4eeaaa725f505adcd3ae7b60e77ccff946ca4559","264000.9250000585","544.2599999951199","77","1","swim","","","","",""
"dual-task","null","null","null","","arctic","arctic","586.9449999881908","","f","null","88","88","1","swim-dual-task","","f","lowercase","270000","0","2","2b5d3e1a8549dd0f4689da9e4eeaaa725f505adcd3ae7b60e77ccff946ca4559","269999.9100000132","586.9449999881908","88","1","swim","","","","",""
"dual-task","null","null","null","","arctic","arctic","994.0450000576675","","d","null","77","88","0","swim-dual-task","","d","lowercase","280000","0","2","2b5d3e1a8549dd0f4689da9e4eeaaa725f505adcd3ae7b60e77ccff946ca4559","280000.549999997","994.0450000576675","77","0","swim","","","","",""
"dual-task","null","null","null","","arctic","arctic","753.2300000311807","","G","null","77","77","1","swim-dual-task","","G","uppercase","286000","0","2","2b5d3e1a8549dd0f4689da9e4eeaaa725f505adcd3ae7b60e77ccff946ca4559","285999.9850000022","753.2300000311807","77","1","swim","","","","",""
"dual-task","null","null","null","","arctic","arctic","722.9150000493973","","G","null","77","77","1","swim-dual-task","","G","uppercase","294000","0","2","2b5d3e1a8549dd0f4689da9e4eeaaa725f505adcd3ae7b60e77ccff946ca4559","293999.76500007324","722.9150000493973","77","1","swim","","","","",""
"dual-task","null","null","null","","arctic","arctic","562.4649999663234","","F","null","77","77","1","swim-dual-task","","F","uppercase","306000","0","2","2b5d3e1a8549dd0f4689da9e4eeaaa725f505adcd3ae7b60e77ccff946ca4559","306000.21000008564","562.4649999663234","77","1","swim","","","","",""
"dual-task","null","null","null","","arctic","arctic","576.2800000375137","","R","null","77","77","1","swim-dual-task","","R","uppercase","314000","0","2","2b5d3e1a8549dd0f4689da9e4eeaaa725f505adcd3ae7b60e77ccff946ca4559","314000.9950000094","576.2800000375137","77","1","swim","","","","",""
"dual-task","null","null","null","","arctic","arctic","578.3550000051036","","N","null","77","77","1","swim-dual-task","","N","uppercase","326000","0","2","2b5d3e1a8549dd0f4689da9e4eeaaa725f505adcd3ae7b60e77ccff946ca4559","326000.4350000527","578.3550000051036","77","1","swim","","","","",""
"dual-task","null","null","null","","arctic","arctic","578.8849999662489","","d","null","88","88","1","swim-dual-task","","d","lowercase","338000","0","2","2b5d3e1a8549dd0f4689da9e4eeaaa725f505adcd3ae7b60e77ccff946ca4559","337999.8599999817","578.8849999662489","88","1","swim","","","","",""
"dual-task","null","null","null","","arctic","arctic","520.9000000031665","","A","null","77","77","1","swim-dual-task","","A","uppercase","348000","0","2","2b5d3e1a8549dd0f4689da9e4eeaaa725f505adcd3ae7b60e77ccff946ca4559","348000.475000008","520.9000000031665","77","1","swim","","","","",""
"dual-task","null","null","null","","arctic","arctic","594.5099999662489","","B","null","77","77","1","swim-dual-task","","B","uppercase","356000","0","2","2b5d3e1a8549dd0f4689da9e4eeaaa725f505adcd3ae7b60e77ccff946ca4559","356000.2800000366","594.5099999662489","77","1","swim","","","","",""
"dual-task","null","null","null","","arctic","arctic","577.3200000403449","","q","null","88","88","1","swim-dual-task","","q","lowercase","364000","0","2","2b5d3e1a8549dd0f4689da9e4eeaaa725f505adcd3ae7b60e77ccff946ca4559","364000.0650000293","577.3200000403449","88","1","swim","","","","",""
"dual-task","null","null","null","","arctic","arctic","602.3450000211596","","R","null","77","77","1","swim-dual-task","","R","uppercase","376000","0","2","2b5d3e1a8549dd0f4689da9e4eeaaa725f505adcd3ae7b60e77ccff946ca4559","376000.50000008196","602.3450000211596","77","1","swim","","","","",""
"dual-task","null","null","null","","arctic","arctic","776.6849999316037","","h","null","88","88","1","swim-dual-task","","h","lowercase","384000","0","2","2b5d3e1a8549dd0f4689da9e4eeaaa725f505adcd3ae7b60e77ccff946ca4559","384000.7800000021","776.6849999316037","88","1","swim","","","","",""
"dual-task","null","null","null","","arctic","arctic","578.4850000636652","","Q","null","77","77","1","swim-dual-task","","Q","uppercase","394000","0","2","2b5d3e1a8549dd0f4689da9e4eeaaa725f505adcd3ae7b60e77ccff946ca4559","394000.39000005927","578.4850000636652","77","1","swim","","","","",""
"dual-task","null","null","null","","arctic","arctic","618.8900000415742","","t","null","88","88","1","swim-dual-task","","t","lowercase","404000","0","2","2b5d3e1a8549dd0f4689da9e4eeaaa725f505adcd3ae7b60e77ccff946ca4559","404000.0050000381","618.8900000415742","88","1","swim","","","","",""
"dual-task","null","null","null","","arctic","arctic","625.4400000907481","","g","null","88","88","1","swim-dual-task","","g","lowercase","410000","0","2","2b5d3e1a8549dd0f4689da9e4eeaaa725f505adcd3ae7b60e77ccff946ca4559","409999.96000004467","625.4400000907481","88","1","swim","","","","",""
"dual-task","null","null","null","","arctic","arctic","938.3399999933317","","r","null","88","88","1","swim-dual-task","","r","lowercase","420000","0","2","2b5d3e1a8549dd0f4689da9e4eeaaa725f505adcd3ae7b60e77ccff946ca4559","420000.5799999926","938.3399999933317","88","1","swim","","","","",""
"dual-task","null","null","null","","arctic","arctic","616.2800000747666","","F","null","77","77","1","swim-dual-task","","F","uppercase","430000","0","2","2b5d3e1a8549dd0f4689da9e4eeaaa725f505adcd3ae7b60e77ccff946ca4559","430001.2100000167","616.2800000747666","77","1","swim","","","","",""
"dual-task","null","null","null","","arctic","arctic","NA","","H","null","NA","77","0","swim-dual-task","","H","uppercase","436000","1","2","2b5d3e1a8549dd0f4689da9e4eeaaa725f505adcd3ae7b60e77ccff946ca4559","436000.67000009585","NA","NA","0","swim","","","","",""
"dual-task","null","null","null","","arctic","arctic","618.3299999684095","","q","null","88","88","1","swim-dual-task","","q","lowercase","442000","0","2","2b5d3e1a8549dd0f4689da9e4eeaaa725f505adcd3ae7b60e77ccff946ca4559","442000.63999998383","618.3299999684095","88","1","swim","","","","",""
"dual-task","null","null","null","","arctic","arctic","698.8949999213219","","e","null","88","88","1","swim-dual-task","","e","lowercase","454000","0","2","2b5d3e1a8549dd0f4689da9e4eeaaa725f505adcd3ae7b60e77ccff946ca4559","454000.0599999912","698.8949999213219","88","1","swim","","","","",""
"dual-task","null","null","null","","arctic","arctic","544.7149999672547","","t","null","88","88","1","swim-dual-task","","t","lowercase","462000","0","2","2b5d3e1a8549dd0f4689da9e4eeaaa725f505adcd3ae7b60e77ccff946ca4559","462000.8450000314","544.7149999672547","88","1","swim","","","","",""
"dual-task","null","null","null","","arctic","arctic","858.9050000300631","","n","null","88","88","1","swim-dual-task","","n","lowercase","476000","0","2","2b5d3e1a8549dd0f4689da9e4eeaaa725f505adcd3ae7b60e77ccff946ca4559","476000.1049999846","858.9050000300631","88","1","swim","","","","",""
"dual-task","null","null","null","","arctic","arctic","602.9799999669194","","b","null","88","88","1","swim-dual-task","","b","lowercase","490000","0","2","2b5d3e1a8549dd0f4689da9e4eeaaa725f505adcd3ae7b60e77ccff946ca4559","490000.0500000315","602.9799999669194","88","1","swim","","","","",""
"dual-task","null","null","null","","arctic","arctic","697.1049999119714","","E","null","77","77","1","swim-dual-task","","E","uppercase","496000","0","2","2b5d3e1a8549dd0f4689da9e4eeaaa725f505adcd3ae7b60e77ccff946ca4559","496000.549999997","697.1049999119714","77","1","swim","","","","",""
"dual-task","null","null","null","","arctic","arctic","762.6999999629334","","b","null","88","88","1","swim-dual-task","","b","lowercase","510000","0","2","2b5d3e1a8549dd0f4689da9e4eeaaa725f505adcd3ae7b60e77ccff946ca4559","510000.4950000439","762.6999999629334","88","1","swim","","","","",""
"dual-task","null","null","null","","arctic","arctic","648.9999999757856","","q","null","88","88","1","swim-dual-task","","q","lowercase","520000","0","2","2b5d3e1a8549dd0f4689da9e4eeaaa725f505adcd3ae7b60e77ccff946ca4559","520000.7100000512","648.9999999757856","88","1","swim","","","","",""
"dual-task","null","null","null","","arctic","arctic","673.6399999354035","","n","null","88","88","1","swim-dual-task","","n","lowercase","528000","0","2","2b5d3e1a8549dd0f4689da9e4eeaaa725f505adcd3ae7b60e77ccff946ca4559","528001.5450000064","673.6399999354035","88","1","swim","","","","",""
"dual-task","null","null","null","","arctic","arctic","554.6650000615045","","d","null","88","88","1","swim-dual-task","","d","lowercase","540000","0","2","2b5d3e1a8549dd0f4689da9e4eeaaa725f505adcd3ae7b60e77ccff946ca4559","540000.5349999992","554.6650000615045","88","1","swim","","","","",""
"dual-task","null","null","null","","arctic","arctic","529.1849999921396","","a","null","88","88","1","swim-dual-task","","a","lowercase","546000","0","2","2b5d3e1a8549dd0f4689da9e4eeaaa725f505adcd3ae7b60e77ccff946ca4559","546000.500000082","529.1849999921396","88","1","swim","","","","",""
"dual-task","null","null","null","","arctic","arctic","498.43999999575317","","t","null","88","88","1","swim-dual-task","","t","lowercase","554000","0","2","2b5d3e1a8549dd0f4689da9e4eeaaa725f505adcd3ae7b60e77ccff946ca4559","554000.7750000805","498.43999999575317","88","1","swim","","","","",""
"dual-task","null","null","null","","arctic","arctic","657.4499999405816","","r","null","88","88","1","swim-dual-task","","r","lowercase","566000","0","2","2b5d3e1a8549dd0f4689da9e4eeaaa725f505adcd3ae7b60e77ccff946ca4559","566001.7300000181","657.4499999405816","88","1","swim","","","","",""
"dual-task","null","null","null","","arctic","arctic","907.2900000028312","","R","null","77","77","1","swim-dual-task","","R","uppercase","578000","0","2","2b5d3e1a8549dd0f4689da9e4eeaaa725f505adcd3ae7b60e77ccff946ca4559","578000.1650000922","907.2900000028312","77","1","swim","","","","",""
"dual-task","null","null","null","","arctic","arctic","552.0000000251457","","e","null","88","88","1","swim-dual-task","","e","lowercase","588000","0","2","2b5d3e1a8549dd0f4689da9e4eeaaa725f505adcd3ae7b60e77ccff946ca4559","588001.7700000899","552.0000000251457","88","1","swim","","","","",""
"dual-task","null","null","null","","arctic","arctic","819.0450000111014","","t","null","88","88","1","swim-dual-task","","t","lowercase","600000","0","2","2b5d3e1a8549dd0f4689da9e4eeaaa725f505adcd3ae7b60e77ccff946ca4559","600000.2100000856","819.0450000111014","88","1","swim","","","","",""
"dual-task","null","null","null","","arctic","arctic","834.4050000887364","","a","null","88","88","1","swim-dual-task","","a","lowercase","610000","0","2","2b5d3e1a8549dd0f4689da9e4eeaaa725f505adcd3ae7b60e77ccff946ca4559","610000.8150000358","834.4050000887364","88","1","swim","","","","",""
"dual-task","null","null","null","","arctic","arctic","563.0450000753626","","A","null","77","77","1","swim-dual-task","","A","uppercase","622000","0","2","2b5d3e1a8549dd0f4689da9e4eeaaa725f505adcd3ae7b60e77ccff946ca4559","622000.250000041","563.0450000753626","77","1","swim","","","","",""
"dual-task","null","null","null","","arctic","arctic","706.6300000296906","","D","null","77","77","1","swim-dual-task","","D","uppercase","634000","0","2","2b5d3e1a8549dd0f4689da9e4eeaaa725f505adcd3ae7b60e77ccff946ca4559","634000.6850000937","706.6300000296906","77","1","swim","","","","",""
"dual-task","null","null","null","","arctic","arctic","648.1999999377877","","b","null","88","88","1","swim-dual-task","","b","lowercase","640000","0","2","2b5d3e1a8549dd0f4689da9e4eeaaa725f505adcd3ae7b60e77ccff946ca4559","640001.6499999911","648.1999999377877","88","1","swim","","","","",""
"dual-task","null","null","null","","arctic","arctic","690.2600000612438","","H","null","77","77","1","swim-dual-task","","H","uppercase","652000","0","2","2b5d3e1a8549dd0f4689da9e4eeaaa725f505adcd3ae7b60e77ccff946ca4559","652001.1050000321","690.2600000612438","77","1","swim","","","","",""
"dual-task","null","null","null","","arctic","arctic","673.1800000416115","","N","null","77","77","1","swim-dual-task","","N","uppercase","662000","0","2","2b5d3e1a8549dd0f4689da9e4eeaaa725f505adcd3ae7b60e77ccff946ca4559","662000.7150000893","673.1800000416115","77","1","swim","","","","",""
"dual-task","null","null","null","","arctic","arctic","642.0299999881536","","g","null","88","88","1","swim-dual-task","","g","lowercase","672000","0","2","2b5d3e1a8549dd0f4689da9e4eeaaa725f505adcd3ae7b60e77ccff946ca4559","672001.350000035","642.0299999881536","88","1","swim","","","","",""
"dual-task","null","null","null","","arctic","arctic","794.4149998947978","","h","null","88","88","1","swim-dual-task","","h","lowercase","682000","0","2","2b5d3e1a8549dd0f4689da9e4eeaaa725f505adcd3ae7b60e77ccff946ca4559","682000.9350000182","794.4149998947978","88","1","swim","","","","",""
"dual-task","null","null","null","","arctic","arctic","593.2449999963865","","n","null","88","88","1","swim-dual-task","","n","lowercase","690000","0","2","2b5d3e1a8549dd0f4689da9e4eeaaa725f505adcd3ae7b60e77ccff946ca4559","690000.7350000087","593.2449999963865","88","1","swim","","","","",""
"dual-task","null","null","null","","arctic","arctic","603.0750001082197","","N","null","77","77","1","swim-dual-task","","N","uppercase","700000","0","2","2b5d3e1a8549dd0f4689da9e4eeaaa725f505adcd3ae7b60e77ccff946ca4559","700000.3349999897","603.0750001082197","77","1","swim","","","","",""
"dual-task","null","null","null","","arctic","arctic","584.3749999767169","","n","null","88","88","1","swim-dual-task","","n","lowercase","708000","0","2","2b5d3e1a8549dd0f4689da9e4eeaaa725f505adcd3ae7b60e77ccff946ca4559","708001.6150000738","584.3749999767169","88","1","swim","","","","",""
"dual-task","null","null","null","","arctic","arctic","570.9799999604002","","Q","null","77","77","1","swim-dual-task","","Q","uppercase","716000","0","2","2b5d3e1a8549dd0f4689da9e4eeaaa725f505adcd3ae7b60e77ccff946ca4559","716000.425000093","570.9799999604002","77","1","swim","","","","",""
"dual-task","null","null","null","","arctic","arctic","585.8599999919534","","F","null","77","77","1","swim-dual-task","","F","uppercase","724000","0","2","2b5d3e1a8549dd0f4689da9e4eeaaa725f505adcd3ae7b60e77ccff946ca4559","724000.1950000878","585.8599999919534","77","1","swim","","","","",""
"dual-task","null","null","null","","arctic","arctic","826.814999920316","","T","null","77","77","1","swim-dual-task","","T","uppercase","736000","0","2","2b5d3e1a8549dd0f4689da9e4eeaaa725f505adcd3ae7b60e77ccff946ca4559","736000.6450000219","826.814999920316","77","1","swim","","","","",""
"dual-task","null","null","null","","arctic","arctic","673.6099999397993","","A","null","77","77","1","swim-dual-task","","A","uppercase","744000","0","2","2b5d3e1a8549dd0f4689da9e4eeaaa725f505adcd3ae7b60e77ccff946ca4559","744000.4550000886","673.6099999397993","77","1","swim","","","","",""
"dual-task","null","null","null","","arctic","arctic","642.61500001885","","R","null","77","77","1","swim-dual-task","","R","uppercase","756000","0","2","2b5d3e1a8549dd0f4689da9e4eeaaa725f505adcd3ae7b60e77ccff946ca4559","756000.8699999889","642.61500001885","77","1","swim","","","","",""
"dual-task","null","null","null","","arctic","arctic","667.1950001036748","","E","null","77","77","1","swim-dual-task","","E","uppercase","768000","0","2","2b5d3e1a8549dd0f4689da9e4eeaaa725f505adcd3ae7b60e77ccff946ca4559","768000.3100000322","667.1950001036748","77","1","swim","","","","",""
"dual-task","null","null","null","","arctic","arctic","675.0250000040978","","a","null","88","88","1","swim-dual-task","","a","lowercase","782000","0","2","2b5d3e1a8549dd0f4689da9e4eeaaa725f505adcd3ae7b60e77ccff946ca4559","782000.5600000732","675.0250000040978","88","1","swim","","","","",""
"dual-task","null","null","null","","arctic","arctic","657.8100000042468","","Q","null","77","77","1","swim-dual-task","","Q","uppercase","790000","0","2","2b5d3e1a8549dd0f4689da9e4eeaaa725f505adcd3ae7b60e77ccff946ca4559","790000.3550000256","657.8100000042468","77","1","swim","","","","",""
"audio-keyboard-response","62","2013052","0.0-6.0-2.0-1.0","2b5d3e1a8549dd0f4689da9e4eeaaa725f505adcd3ae7b60e77ccff946ca4559","arctic","arctic","null","","audio/story_swim.mp3","","null","","","","","","","","","","","","","","","","","","","",""
"html-button-response","63","2015328","0.0-6.0-2.0-2.0","2b5d3e1a8549dd0f4689da9e4eeaaa725f505adcd3ae7b60e77ccff946ca4559","arctic","arctic","2275","","<p>This concludes the story. Thank you for listening.</p><p>You will now answer some questions about the content of the story.</p>","0","","","","","","","","","","","","","","","","","","","","",""
"survey-multi-choice","64","2020792","0.0-6.0-2.0-3.0-0.0","2b5d3e1a8549dd0f4689da9e4eeaaa725f505adcd3ae7b60e77ccff946ca4559","arctic","arctic","5463","","<b>How many astronaut candidates reported for duty at the Johnson Space Center?</b>","","","","1","swim-comprehension","","","","","","","","","","","","","{""Q0"":""Forty-four""}","","","",""
"survey-multi-choice","65","2024784","0.0-6.0-2.0-3.0-0.1","2b5d3e1a8549dd0f4689da9e4eeaaa725f505adcd3ae7b60e77ccff946ca4559","arctic","arctic","3741","","<b>What is the narrator afraid of, aside from the water?</b>","","","","1","swim-comprehension","","","","","","","","","","","","","{""Q0"":""Heights""}","","","",""
"survey-multi-choice","66","2031880","0.0-6.0-2.0-3.0-0.2","2b5d3e1a8549dd0f4689da9e4eeaaa725f505adcd3ae7b60e77ccff946ca4559","arctic","arctic","6845","","<b>What was the final step of the first swim test in the pool?</b>","","","","1","swim-comprehension","","","","","","","","","","","","","{""Q0"":""Tread water with hands above the water""}","","","",""
"survey-multi-choice","67","2035344","0.0-6.0-2.0-3.0-0.3","2b5d3e1a8549dd0f4689da9e4eeaaa725f505adcd3ae7b60e77ccff946ca4559","arctic","arctic","3212","","<b>Where is the home of naval aviation?</b>","","","","1","swim-comprehension","","","","","","","","","","","","","{""Q0"":""Pensacola""}","","","",""
"survey-multi-choice","68","2039792","0.0-6.0-2.0-3.0-0.4","2b5d3e1a8549dd0f4689da9e4eeaaa725f505adcd3ae7b60e77ccff946ca4559","arctic","arctic","4197","","<b>How many astronaut candidates passed the first swim test?</b>","","","","1","swim-comprehension","","","","","","","","","","","","","{""Q0"":""All of them""}","","","",""
"survey-multi-choice","69","2045072","0.0-6.0-2.0-3.0-0.5","2b5d3e1a8549dd0f4689da9e4eeaaa725f505adcd3ae7b60e77ccff946ca4559","arctic","arctic","5027","","<b>What were the astronaut candidates trained to do at the naval air station?</b>","","","","1","swim-comprehension","","","","","","","","","","","","","{""Q0"":""Eject out of aircraft and survive in water long enough to be rescued""}","","","",""
"survey-multi-choice","70","2050080","0.0-6.0-2.0-3.0-0.6","2b5d3e1a8549dd0f4689da9e4eeaaa725f505adcd3ae7b60e77ccff946ca4559","arctic","arctic","4756","","<b>How did the narrator train for his swim test?</b>","","","","1","swim-comprehension","","","","","","","","","","","","","{""Q0"":""Took his kids to the pool every day""}","","","",""
"survey-multi-choice","71","2057408","0.0-6.0-2.0-3.0-0.7","2b5d3e1a8549dd0f4689da9e4eeaaa725f505adcd3ae7b60e77ccff946ca4559","arctic","arctic","7076","","<b>What gave the narrator his greatest feeling of accomplishment?</b>","","","","1","swim-comprehension","","","","","","","","","","","","","{""Q0"":""Passing the water survival course""}","","","",""
"survey-multi-choice","72","2062384","0.0-6.0-2.0-3.0-0.8","2b5d3e1a8549dd0f4689da9e4eeaaa725f505adcd3ae7b60e77ccff946ca4559","arctic","arctic","4723","","<b>How often does the narrator swim, now that he is a good swimmer?</b>","","","","1","swim-comprehension","","","","","","","","","","","","","{""Q0"":""Never swam again in his life""}","","","",""
"survey-multi-choice","73","2072696","0.0-6.0-2.0-3.0-0.9","2b5d3e1a8549dd0f4689da9e4eeaaa725f505adcd3ae7b60e77ccff946ca4559","arctic","arctic","10060","","<b>How many times did the astronaut candidates have to complete the final exercise to pass?</b>","","","","1","swim-comprehension","","","","","","","","","","","","","{""Q0"":""Two""}","","","",""
"html-button-response","74","2074200","0.0-6.0-2.0-4.0","2b5d3e1a8549dd0f4689da9e4eeaaa725f505adcd3ae7b60e77ccff946ca4559","arctic","arctic","1252","","<p>Thank you for your responses.</p><p>You will now answer some questions about your impressions of the story.</p>","0","","","","","","","","","","","","","","","","","","","","",""
"html-button-response","75","2075816","0.0-6.0-2.0-5.0-0.0","2b5d3e1a8549dd0f4689da9e4eeaaa725f505adcd3ae7b60e77ccff946ca4559","arctic","arctic","1615","","MS3","6","","","","swim-engagement","","","","","","","","","","","","","","7","mental-sim","",""
"html-button-response","76","2079320","0.0-6.0-2.0-5.0-0.1","2b5d3e1a8549dd0f4689da9e4eeaaa725f505adcd3ae7b60e77ccff946ca4559","arctic","arctic","3253","","A1","4","","","","swim-engagement","","","","","","","","","","","","","","5","absorption","",""
"html-button-response","77","2081184","0.0-6.0-2.0-5.0-0.2","2b5d3e1a8549dd0f4689da9e4eeaaa725f505adcd3ae7b60e77ccff946ca4559","arctic","arctic","1613","","EE4","6","","","","swim-engagement","","","","","","","","","","","","","","7","emo-engage","",""
"html-button-response","78","2083496","0.0-6.0-2.0-5.0-0.3","2b5d3e1a8549dd0f4689da9e4eeaaa725f505adcd3ae7b60e77ccff946ca4559","arctic","arctic","2060","","MS2","6","","","","swim-engagement","","","","","","","","","","","","","","7","mental-sim","",""
"html-button-response","79","2085600","0.0-6.0-2.0-5.0-0.4","2b5d3e1a8549dd0f4689da9e4eeaaa725f505adcd3ae7b60e77ccff946ca4559","arctic","arctic","1850","","EE3","5","","","","swim-engagement","","","","","","","","","","","","","","6","emo-engage","",""
"html-button-response","80","2088600","0.0-6.0-2.0-5.0-0.5","2b5d3e1a8549dd0f4689da9e4eeaaa725f505adcd3ae7b60e77ccff946ca4559","arctic","arctic","2747","","A4","5","","","","swim-engagement","","","","","","","","","","","","","","6","absorption","",""
"html-button-response","81","2091944","0.0-6.0-2.0-5.0-0.6","2b5d3e1a8549dd0f4689da9e4eeaaa725f505adcd3ae7b60e77ccff946ca4559","arctic","arctic","3093","","EE2","4","","","","swim-engagement","","","","","","","","","","","","","","5","emo-engage","",""
"html-button-response","82","2093792","0.0-6.0-2.0-5.0-0.7","2b5d3e1a8549dd0f4689da9e4eeaaa725f505adcd3ae7b60e77ccff946ca4559","arctic","arctic","1596","","E7","6","","","","swim-engagement","","","","","","","","","","","","","","7","enjoyment","",""
"html-button-response","83","2097368","0.0-6.0-2.0-5.0-0.8","2b5d3e1a8549dd0f4689da9e4eeaaa725f505adcd3ae7b60e77ccff946ca4559","arctic","arctic","3325","","E8","5","","","","swim-engagement","","","","","","","","","","","","","","6","enjoyment","",""
"html-button-response","84","2101160","0.0-6.0-2.0-5.0-0.9","2b5d3e1a8549dd0f4689da9e4eeaaa725f505adcd3ae7b60e77ccff946ca4559","arctic","arctic","3539","","A5","5","","","","swim-engagement","","","","","","","","","","","","","","6","absorption","",""
"html-button-response","85","2103760","0.0-6.0-2.0-5.0-0.10","2b5d3e1a8549dd0f4689da9e4eeaaa725f505adcd3ae7b60e77ccff946ca4559","arctic","arctic","2348","","EE5","6","","","","swim-engagement","","","","","","","","","","","","","","7","emo-engage","",""
"html-button-response","86","2105441","0.0-6.0-2.0-5.0-0.11","2b5d3e1a8549dd0f4689da9e4eeaaa725f505adcd3ae7b60e77ccff946ca4559","arctic","arctic","1429","","A2","6","","","","swim-engagement","","","","","","","","","","","","","","7","absorption","",""
"html-button-response","87","2106808","0.0-6.0-2.0-5.0-0.12","2b5d3e1a8549dd0f4689da9e4eeaaa725f505adcd3ae7b60e77ccff946ca4559","arctic","arctic","1116","","E1","6","","","","swim-engagement","","","","","","","","","","","","","","7","enjoyment","",""
"html-button-response","88","2108137","0.0-6.0-2.0-5.0-0.13","2b5d3e1a8549dd0f4689da9e4eeaaa725f505adcd3ae7b60e77ccff946ca4559","arctic","arctic","1077","","A3","6","","","","swim-engagement","","","","","","","","","","","","","","7","absorption","",""
"html-button-response","89","2111433","0.0-6.0-2.0-5.0-0.14","2b5d3e1a8549dd0f4689da9e4eeaaa725f505adcd3ae7b60e77ccff946ca4559","arctic","arctic","3044","","E10","6","","","","swim-engagement","","","","","","","","","","","","","","7","enjoyment","",""
"html-button-response","90","2114585","0.0-6.0-2.0-5.0-0.15","2b5d3e1a8549dd0f4689da9e4eeaaa725f505adcd3ae7b60e77ccff946ca4559","arctic","arctic","2900","","EE1","6","","","","swim-engagement","","","","","","","","","","","","","","7","emo-engage","",""
"html-button-response","91","2116648","0.0-6.0-2.0-5.0-0.16","2b5d3e1a8549dd0f4689da9e4eeaaa725f505adcd3ae7b60e77ccff946ca4559","arctic","arctic","1812","","MS1","6","","","","swim-engagement","","","","","","","","","","","","","","7","mental-sim","",""
"html-button-response","92","2118809","0.0-6.0-2.0-5.0-0.17","2b5d3e1a8549dd0f4689da9e4eeaaa725f505adcd3ae7b60e77ccff946ca4559","arctic","arctic","1908","","E6","6","","","","swim-engagement","","","","","","","","","","","","","","7","enjoyment","",""
"html-button-response","93","2120313","0.0-8.0","2b5d3e1a8549dd0f4689da9e4eeaaa725f505adcd3ae7b60e77ccff946ca4559","arctic","arctic","1253","","<p>Thank you for your responses.</p><p>You will now answer some demographic, hearing, and general health questions.</p>","0","","","","","","","","","","","","","","","","","","","","",""
"survey-multi-choice","94","2122640","0.0-9.0-0.0","2b5d3e1a8549dd0f4689da9e4eeaaa725f505adcd3ae7b60e77ccff946ca4559","arctic","arctic","2326","","","","","","","survey","","","","","","","","","","","","","{""Q0"":""Chrome""}","","","browser",""
"survey-text","95","2126161","0.0-9.0-1.0","2b5d3e1a8549dd0f4689da9e4eeaaa725f505adcd3ae7b60e77ccff946ca4559","arctic","arctic","3267.4600000027567","","","","","","","survey","","","","","","","","","","","","","{""AGE"":""28""}","","","age","28"
"survey-multi-choice","96","2127864","0.0-9.0-2.0","2b5d3e1a8549dd0f4689da9e4eeaaa725f505adcd3ae7b60e77ccff946ca4559","arctic","arctic","1452","","","","","","","survey","","","","","","","","","","","","","{""Q0"":""Male""}","","","gender","Male"
"survey-multi-choice","97","2130200","0.0-9.0-4.0","2b5d3e1a8549dd0f4689da9e4eeaaa725f505adcd3ae7b60e77ccff946ca4559","arctic","arctic","2084","","","","","","","survey","","","","","","","","","","","","","{""Q0"":""Right""}","","","handedness","Right"
"survey-multi-choice","98","2132504","0.0-9.0-5.0","2b5d3e1a8549dd0f4689da9e4eeaaa725f505adcd3ae7b60e77ccff946ca4559","arctic","arctic","2051","","","","","","","survey","","","","","","","","","","","","","{""Q0"":""High school""}","","","education","High school"
"survey-text","99","2135777","0.0-10.0-0.0","2b5d3e1a8549dd0f4689da9e4eeaaa725f505adcd3ae7b60e77ccff946ca4559","arctic","arctic","3019.6900001028553","","","","","","","survey","","","","","","","","","","","","","{""L1"":""English""}","","","first-language","English"
"survey-text","100","2140161","0.0-10.0-1.0","2b5d3e1a8549dd0f4689da9e4eeaaa725f505adcd3ae7b60e77ccff946ca4559","arctic","arctic","4129.3050000676885","","","","","","","survey","","","","","","","","","","","","","{""L2name"":"""",""L2fluency"":"""",""L3name"":"""",""L3fluency"":"""",""L4name"":"""",""L4fluency"":""""}","","","additional-languages","{""L2name"":"""",""L2fluency"":"""",""L3name"":"""",""L3fluency"":"""",""L4name"":"""",""L4fluency"":""""}"
"survey-multi-choice","101","2142785","0.0-10.0-2.0","2b5d3e1a8549dd0f4689da9e4eeaaa725f505adcd3ae7b60e77ccff946ca4559","arctic","arctic","2372","","","","","","","survey","","","","","","","","","","","","","{""Q0"":""No""}","","","hearing-aid","No"
"survey-multi-choice","102","2150304","0.0-10.0-3.0","2b5d3e1a8549dd0f4689da9e4eeaaa725f505adcd3ae7b60e77ccff946ca4559","arctic","arctic","7268","","","","","","","survey","","","","","","","","","","","","","{""Q0"":""Sometimes""}","","","ringing-ears","Sometimes"
"survey-multi-choice","103","2152408","0.0-10.0-4.0-0.0","2b5d3e1a8549dd0f4689da9e4eeaaa725f505adcd3ae7b60e77ccff946ca4559","arctic","arctic","1852","","","","","","","survey","","","","","","","","","","","","","{""Q0"":""Both Ears""}","","","ringing-ear-loc","Both Ears"
"survey-multi-choice","104","2154656","0.0-10.0-5.0","2b5d3e1a8549dd0f4689da9e4eeaaa725f505adcd3ae7b60e77ccff946ca4559","arctic","arctic","1996","","","","","","","survey","","","","","","","","","","","","","{""Q0"":""No""}","","","neuro-disease","No"
"survey-multi-choice","105","2157497","0.0-10.0-7.0","2b5d3e1a8549dd0f4689da9e4eeaaa725f505adcd3ae7b60e77ccff946ca4559","arctic","arctic","2589","","","","","","","survey","","","","","","","","","","","","","{""Q0"":""No""}","","","take-meds","No"
"survey-text","106","2160504","0.0-10.0-9.0","2b5d3e1a8549dd0f4689da9e4eeaaa725f505adcd3ae7b60e77ccff946ca4559","arctic","arctic","2748.4849999891594","","","","","","","survey","","","","","","","","","","","","","{""HC"":""""}","","","health-concerns",""
"html-button-response","107","2164104","0.0-11.0-0.0","2b5d3e1a8549dd0f4689da9e4eeaaa725f505adcd3ae7b60e77ccff946ca4559","arctic","arctic","3348","","<p>How would you describe your musical skills/experiences?</p>","1","","","","survey","","","","","","","","","","","","","","","","music-skill","2"
"survey-multi-choice","108","2165800","0.0-11.0-1.0","2b5d3e1a8549dd0f4689da9e4eeaaa725f505adcd3ae7b60e77ccff946ca4559","arctic","arctic","1444","","","","","","","survey","","","","","","","","","","","","","{""Q0"":""No""}","","","music-instrument","No"
"html-button-response","109","2168121","0.0-12.0-0.0","2b5d3e1a8549dd0f4689da9e4eeaaa725f505adcd3ae7b60e77ccff946ca4559","arctic","arctic","2069","","<p>How would you describe your general hearing abilities?</p>","4","","","","survey","","","","","","","","","","","","","","","","ssq-01","5"
"html-button-response","110","2172593","0.0-12.0-1.0","2b5d3e1a8549dd0f4689da9e4eeaaa725f505adcd3ae7b60e77ccff946ca4559","arctic","arctic","4221","","<p>When you talk with someone at a place that strongly reverberates/echoes (e.g., in a church or train station),</br>can you understand what the person says?</p>","7","","","","survey","","","","","","","","","","","","","","","","ssq-02","7"
"html-button-response","111","2175696","0.0-12.0-2.0","2b5d3e1a8549dd0f4689da9e4eeaaa725f505adcd3ae7b60e77ccff946ca4559","arctic","arctic","2852","","<p>When you are with a group (~5 people) in a lively restaurant, can you follow the group's conversation?</p>","6","","","","survey","","","","","","","","","","","","","","","","ssq-03","6"
"html-button-response","112","2178929","0.0-12.0-3.0","2b5d3e1a8549dd0f4689da9e4eeaaa725f505adcd3ae7b60e77ccff946ca4559","arctic","arctic","2981","","<p>Based on the sound of a bus or truck, can you tell whether it is moving towards or away from you?</p>","7","","","","survey","","","","","","","","","","","","","","","","ssq-04","7"
"html-button-response","113","2183585","0.0-12.0-4.0","2b5d3e1a8549dd0f4689da9e4eeaaa725f505adcd3ae7b60e77ccff946ca4559","arctic","arctic","4404","","<p>When you are in an unknown environment, can you tell from which direction a brief sound originates?</p>","6","","","","survey","","","","","","","","","","","","","","","","ssq-05","6"
"html-button-response","114","2187480","0.0-12.0-5.0","2b5d3e1a8549dd0f4689da9e4eeaaa725f505adcd3ae7b60e77ccff946ca4559","arctic","arctic","3644","","<p>Are you able to ignore distracting sounds when you concentrate on a specific aspect of your acoustic surrounding?</p>","6","","","","survey","","","","","","","","","","","","","","","","ssq-06","6"
"fullscreen","115","2188732","0.0-13.0","2b5d3e1a8549dd0f4689da9e4eeaaa725f505adcd3ae7b60e77ccff946ca4559","arctic","arctic","","","","","","","","","true","","","","","","","","","","","","","","","",""
