"trial_type","trial_index","time_elapsed","internal_node_id","ParticipantID","firstStory","scramStory","rt","url","stimulus","button_pressed","key_press","correctRESP","correct","designation","success","letterStim","letterType","ONSET","TIMEOUT","CONDITION","Participant","ONSET_ACTUAL","RT","RESP","ACC","STORY","responses","response","type","surveyQuestion","QRESP"
"pavlovia","0","20","0.0-0.0","f612ab79159890898a64e419187dedcaa0018d17adf9b3260b6e8b3b3c42b28f","swim","arctic","","","","","","","","","","","","","","","","","","","","","","","","",""
"external-html","1","70217","0.0-1.0","f612ab79159890898a64e419187dedcaa0018d17adf9b3260b6e8b3b3c42b28f","swim","arctic","68872","consent/consent_updated.html","","","","","","","","","","","","","","","","","","","","","","",""
"html-button-response","2","128291","0.0-2.0-0.0","f612ab79159890898a64e419187dedcaa0018d17adf9b3260b6e8b3b3c42b28f","swim","arctic","58071","","<p>Before we begin the main task, you will complete a short volume calibration and headphone check.</p><p>Please make sure you are in a quiet listening environment, that you are wearing headphones, and that your computer's volume is turned on.<p></p>","0","","","","","","","","","","","","","","","","","","","","",""
"html-button-response","3","133422","0.0-2.0-1.0","f612ab79159890898a64e419187dedcaa0018d17adf9b3260b6e8b3b3c42b28f","swim","arctic","4875","","<p>The volume calibration will be first.</p><p>You will hear a thirty-second noise. Please adjust your computer's volume so that this noise is being presented at a comfortable level.<p></p>","0","","","","","","","","","","","","","","","","","","","","",""
"audio-button-response","4","141462","0.0-2.0-2.0","f612ab79159890898a64e419187dedcaa0018d17adf9b3260b6e8b3b3c42b28f","swim","arctic","7757","","audio/volumetest.mp3","0","","","","","","","","","","","","","","","","","","","","",""
"html-keyboard-response","5","148762","0.0-3.0-0.0","f612ab79159890898a64e419187dedcaa0018d17adf9b3260b6e8b3b3c42b28f","swim","arctic","7297","","<p>You will now complete a short headphone check.</p><p>On each trial, you will hear three tones. One of these tones will be quieter than the others. Your task is to identify whether the quiet tone occurred first, second, or third.</p><p>There are six trials in total.<p></p><p></p>(Press SPACEBAR to begin)","","32","","","","","","","","","","","","","","","","","","","",""
"html-keyboard-response","6","149543","0.0-3.0-1.0-0.0","f612ab79159890898a64e419187dedcaa0018d17adf9b3260b6e8b3b3c42b28f","swim","arctic","null","","<div style=""font-size:60px;"">+</div>","","null","","","","","","","","","","","","","","","","","","","",""
"audio-button-response","7","154614","0.0-3.0-1.0-1.0","f612ab79159890898a64e419187dedcaa0018d17adf9b3260b6e8b3b3c42b28f","swim","arctic","5061","","audio/t3_2.mp3","2","","2","1","headphone-test","","","","","","","","","","","","","","","","",""
"html-keyboard-response","8","155133","0.0-3.0-1.0-2.0","f612ab79159890898a64e419187dedcaa0018d17adf9b3260b6e8b3b3c42b28f","swim","arctic","null","","<p>Correct</p>","","null","","","","","","","","","","","","","","","","","","","",""
"html-keyboard-response","9","155653","0.0-3.0-1.0-0.1","f612ab79159890898a64e419187dedcaa0018d17adf9b3260b6e8b3b3c42b28f","swim","arctic","null","","<div style=""font-size:60px;"">+</div>","","null","","","","","","","","","","","","","","","","","","","",""
"audio-button-response","10","160734","0.0-3.0-1.0-1.1","f612ab79159890898a64e419187dedcaa0018d17adf9b3260b6e8b3b3c42b28f","swim","arctic","5077","","audio/t1_2.mp3","0","","0","1","headphone-test","","","","","","","","","","","","","","","","",""
"html-keyboard-response","11","161239","0.0-3.0-1.0-2.1","f612ab79159890898a64e419187dedcaa0018d17adf9b3260b6e8b3b3c42b28f","swim","arctic","null","","<p>Correct</p>","","null","","","","","","","","","","","","","","","","","","","",""
"html-keyboard-response","12","161753","0.0-3.0-1.0-0.2","f612ab79159890898a64e419187dedcaa0018d17adf9b3260b6e8b3b3c42b28f","swim","arctic","null","","<div style=""font-size:60px;"">+</div>","","null","","","","","","","","","","","","","","","","","","","",""
"audio-button-response","13","168863","0.0-3.0-1.0-1.2","f612ab79159890898a64e419187dedcaa0018d17adf9b3260b6e8b3b3c42b28f","swim","arctic","7107","","audio/t2_2.mp3","1","","1","1","headphone-test","","","","","","","","","","","","","","","","",""
"html-keyboard-response","14","169392","0.0-3.0-1.0-2.2","f612ab79159890898a64e419187dedcaa0018d17adf9b3260b6e8b3b3c42b28f","swim","arctic","null","","<p>Correct</p>","","null","","","","","","","","","","","","","","","","","","","",""
"html-keyboard-response","15","169903","0.0-3.0-1.0-0.3","f612ab79159890898a64e419187dedcaa0018d17adf9b3260b6e8b3b3c42b28f","swim","arctic","null","","<div style=""font-size:60px;"">+</div>","","null","","","","","","","","","","","","","","","","","","","",""
"audio-button-response","16","174526","0.0-3.0-1.0-1.3","f612ab79159890898a64e419187dedcaa0018d17adf9b3260b6e8b3b3c42b28f","swim","arctic","4620","","audio/t2_1.mp3","1","","1","1","headphone-test","","","","","","","","","","","","","","","","",""
"html-keyboard-response","17","175033","0.0-3.0-1.0-2.3","f612ab79159890898a64e419187dedcaa0018d17adf9b3260b6e8b3b3c42b28f","swim","arctic","null","","<p>Correct</p>","","null","","","","","","","","","","","","","","","","","","","",""
"html-keyboard-response","18","175543","0.0-3.0-1.0-0.4","f612ab79159890898a64e419187dedcaa0018d17adf9b3260b6e8b3b3c42b28f","swim","arctic","null","","<div style=""font-size:60px;"">+</div>","","null","","","","","","","","","","","","","","","","","","","",""
"audio-button-response","19","180815","0.0-3.0-1.0-1.4","f612ab79159890898a64e419187dedcaa0018d17adf9b3260b6e8b3b3c42b28f","swim","arctic","5269","","audio/t3_1.mp3","2","","2","1","headphone-test","","","","","","","","","","","","","","","","",""
"html-keyboard-response","20","181323","0.0-3.0-1.0-2.4","f612ab79159890898a64e419187dedcaa0018d17adf9b3260b6e8b3b3c42b28f","swim","arctic","null","","<p>Correct</p>","","null","","","","","","","","","","","","","","","","","","","",""
"html-keyboard-response","21","181830","0.0-3.0-1.0-0.5","f612ab79159890898a64e419187dedcaa0018d17adf9b3260b6e8b3b3c42b28f","swim","arctic","null","","<div style=""font-size:60px;"">+</div>","","null","","","","","","","","","","","","","","","","","","","",""
"audio-button-response","22","187702","0.0-3.0-1.0-1.5","f612ab79159890898a64e419187dedcaa0018d17adf9b3260b6e8b3b3c42b28f","swim","arctic","5868","","audio/t1_1.mp3","0","","0","1","headphone-test","","","","","","","","","","","","","","","","",""
"html-keyboard-response","23","188209","0.0-3.0-1.0-2.5","f612ab79159890898a64e419187dedcaa0018d17adf9b3260b6e8b3b3c42b28f","swim","arctic","null","","<p>Correct</p>","","null","","","","","","","","","","","","","","","","","","","",""
"fullscreen","24","194968","0.0-4.0","f612ab79159890898a64e419187dedcaa0018d17adf9b3260b6e8b3b3c42b28f","swim","arctic","","","","","","","","","true","","","","","","","","","","","","","","","",""
"html-button-response","25","202522","0.0-5.0-0.0","f612ab79159890898a64e419187dedcaa0018d17adf9b3260b6e8b3b3c42b28f","swim","arctic","7551","","<p>There are two blocks to this experiment.</p><p>In each block, you will hear a ~13.5 minute story. One of the stories will be scrambled. Please listen carefully to both stories and understand them as best you can.</p><p>After each story, you will be asked some questions to assess your comprehension.</p>","0","","","","","","","","","","","","","","","","","","","","",""
"html-button-response","26","217505","0.0-5.0-1.0","f612ab79159890898a64e419187dedcaa0018d17adf9b3260b6e8b3b3c42b28f","swim","arctic","14981","","<p>During each story, there will be an additional task.</p><p>A letter will occasionally appear on the screen.</br>Your job is to - as quickly as you can - decide whether the letter is lowercase or uppercase and press one of two keys on the keyboard:</p><p>If the letter is <b>lowercase</b>, press key &lt;<b>x</b>&gt;.</p><p>If the letter is <b>uppercase</b>, press key &lt;<b>m</b>&gt;.</p>","0","","","","","","","","","","","","","","","","","","","","",""
"html-keyboard-response","27","227021","0.0-5.0-2.0","f612ab79159890898a64e419187dedcaa0018d17adf9b3260b6e8b3b3c42b28f","swim","arctic","9513","","<p>Because we want your responses to be as quick as possible, please keep your index fingers over the keys while listening.</p><p>Each block lasts about 20 minutes.</p><p><b>Press &lt;x&gt; or &lt;m&gt; to start the first block!</b></p>","","88","","","","","","","","","","","","","","","","","","","",""
"html-keyboard-response","28","227531","0.0-7.0-0.0-0.0","f612ab79159890898a64e419187dedcaa0018d17adf9b3260b6e8b3b3c42b28f","swim","arctic","null","","<div style=""font-size:60px;"" tabindex=""0"">+</div>","","null","","","","","","","","","","","","","","","","","","","",""
"dual-task","null","null","null","","swim","arctic","549.3000001907349","","g","null","88","88","1","swim-dual-task","","g","lowercase","14000","0","3","f612ab79159890898a64e419187dedcaa0018d17adf9b3260b6e8b3b3c42b28f","14016.300000190735","549.3000001907349","88","1","swim","","","","",""
"dual-task","null","null","null","","swim","arctic","470.19999980926514","","F","null","77","77","1","swim-dual-task","","F","uppercase","20000","0","3","f612ab79159890898a64e419187dedcaa0018d17adf9b3260b6e8b3b3c42b28f","20002.800000190735","470.19999980926514","77","1","swim","","","","",""
"dual-task","null","null","null","","swim","arctic","481.59999990463257","","G","null","77","77","1","swim-dual-task","","G","uppercase","32000","0","3","f612ab79159890898a64e419187dedcaa0018d17adf9b3260b6e8b3b3c42b28f","32003.10000014305","481.59999990463257","77","1","swim","","","","",""
"dual-task","null","null","null","","swim","arctic","763.7000000476837","","B","null","77","77","1","swim-dual-task","","B","uppercase","44000","0","3","f612ab79159890898a64e419187dedcaa0018d17adf9b3260b6e8b3b3c42b28f","43997.700000047684","763.7000000476837","77","1","swim","","","","",""
"dual-task","null","null","null","","swim","arctic","568.2000000476837","","T","null","77","77","1","swim-dual-task","","T","uppercase","56000","0","3","f612ab79159890898a64e419187dedcaa0018d17adf9b3260b6e8b3b3c42b28f","56015.200000047684","568.2000000476837","77","1","swim","","","","",""
"dual-task","null","null","null","","swim","arctic","519.6000001430511","","b","null","88","88","1","swim-dual-task","","b","lowercase","66000","0","3","f612ab79159890898a64e419187dedcaa0018d17adf9b3260b6e8b3b3c42b28f","66005.10000014305","519.6000001430511","88","1","swim","","","","",""
"dual-task","null","null","null","","swim","arctic","611.4000000953674","","f","null","88","88","1","swim-dual-task","","f","lowercase","80000","0","3","f612ab79159890898a64e419187dedcaa0018d17adf9b3260b6e8b3b3c42b28f","80015.10000014305","611.4000000953674","88","1","swim","","","","",""
"dual-task","null","null","null","","swim","arctic","1043.9000000953674","","B","null","77","77","1","swim-dual-task","","B","uppercase","88000","0","3","f612ab79159890898a64e419187dedcaa0018d17adf9b3260b6e8b3b3c42b28f","88003","1043.9000000953674","77","1","swim","","","","",""
"dual-task","null","null","null","","swim","arctic","394","","A","null","88","77","0","swim-dual-task","","A","uppercase","96000","0","3","f612ab79159890898a64e419187dedcaa0018d17adf9b3260b6e8b3b3c42b28f","96006.40000009537","394","88","0","swim","","","","",""
"dual-task","null","null","null","","swim","arctic","495.5","","d","null","88","88","1","swim-dual-task","","d","lowercase","106000","0","3","f612ab79159890898a64e419187dedcaa0018d17adf9b3260b6e8b3b3c42b28f","106004.5","495.5","88","1","swim","","","","",""
"dual-task","null","null","null","","swim","arctic","506.90000009536743","","q","null","88","88","1","swim-dual-task","","q","lowercase","112000","0","3","f612ab79159890898a64e419187dedcaa0018d17adf9b3260b6e8b3b3c42b28f","112025.40000009537","506.90000009536743","88","1","swim","","","","",""
"dual-task","null","null","null","","swim","arctic","550.6999998092651","","d","null","88","88","1","swim-dual-task","","d","lowercase","120000","0","3","f612ab79159890898a64e419187dedcaa0018d17adf9b3260b6e8b3b3c42b28f","120005","550.6999998092651","88","1","swim","","","","",""
"dual-task","null","null","null","","swim","arctic","519.5","","r","null","88","88","1","swim-dual-task","","r","lowercase","134000","0","3","f612ab79159890898a64e419187dedcaa0018d17adf9b3260b6e8b3b3c42b28f","134015.40000009537","519.5","88","1","swim","","","","",""
"dual-task","null","null","null","","swim","arctic","488.90000009536743","","q","null","88","88","1","swim-dual-task","","q","lowercase","144000","0","3","f612ab79159890898a64e419187dedcaa0018d17adf9b3260b6e8b3b3c42b28f","144005.60000014305","488.90000009536743","88","1","swim","","","","",""
"dual-task","null","null","null","","swim","arctic","451.80000019073486","","G","null","77","77","1","swim-dual-task","","G","uppercase","152000","0","3","f612ab79159890898a64e419187dedcaa0018d17adf9b3260b6e8b3b3c42b28f","152005.70000004768","451.80000019073486","77","1","swim","","","","",""
"dual-task","null","null","null","","swim","arctic","579","","R","null","77","77","1","swim-dual-task","","R","uppercase","164000","0","3","f612ab79159890898a64e419187dedcaa0018d17adf9b3260b6e8b3b3c42b28f","164005","579","77","1","swim","","","","",""
"dual-task","null","null","null","","swim","arctic","708","","Q","null","77","77","1","swim-dual-task","","Q","uppercase","176000","0","3","f612ab79159890898a64e419187dedcaa0018d17adf9b3260b6e8b3b3c42b28f","176005.40000009537","708","77","1","swim","","","","",""
"dual-task","null","null","null","","swim","arctic","908.7000000476837","","t","null","88","88","1","swim-dual-task","","t","lowercase","188000","0","3","f612ab79159890898a64e419187dedcaa0018d17adf9b3260b6e8b3b3c42b28f","188013.40000009537","908.7000000476837","88","1","swim","","","","",""
"dual-task","null","null","null","","swim","arctic","467.09999990463257","","a","null","88","88","1","swim-dual-task","","a","lowercase","198000","0","3","f612ab79159890898a64e419187dedcaa0018d17adf9b3260b6e8b3b3c42b28f","198015.20000004768","467.09999990463257","88","1","swim","","","","",""
"dual-task","null","null","null","","swim","arctic","1413.0999999046326","","e","null","88","88","1","swim-dual-task","","e","lowercase","208000","0","3","f612ab79159890898a64e419187dedcaa0018d17adf9b3260b6e8b3b3c42b28f","208029.20000004768","1413.0999999046326","88","1","swim","","","","",""
"dual-task","null","null","null","","swim","arctic","433.2999999523163","","Q","null","77","77","1","swim-dual-task","","Q","uppercase","218000","0","3","f612ab79159890898a64e419187dedcaa0018d17adf9b3260b6e8b3b3c42b28f","218005.10000014305","433.2999999523163","77","1","swim","","","","",""
"dual-task","null","null","null","","swim","arctic","517.5999999046326","","D","null","77","77","1","swim-dual-task","","D","uppercase","228000","0","3","f612ab79159890898a64e419187dedcaa0018d17adf9b3260b6e8b3b3c42b28f","228014.80000019073","517.5999999046326","77","1","swim","","","","",""
"dual-task","null","null","null","","swim","arctic","492.40000009536743","","R","null","77","77","1","swim-dual-task","","R","uppercase","240000","0","3","f612ab79159890898a64e419187dedcaa0018d17adf9b3260b6e8b3b3c42b28f","240015.20000004768","492.40000009536743","77","1","swim","","","","",""
"dual-task","null","null","null","","swim","arctic","658.5","","a","null","88","88","1","swim-dual-task","","a","lowercase","252000","0","3","f612ab79159890898a64e419187dedcaa0018d17adf9b3260b6e8b3b3c42b28f","252015.80000019073","658.5","88","1","swim","","","","",""
"dual-task","null","null","null","","swim","arctic","462.40000009536743","","B","null","77","77","1","swim-dual-task","","B","uppercase","260000","0","3","f612ab79159890898a64e419187dedcaa0018d17adf9b3260b6e8b3b3c42b28f","260005.70000004768","462.40000009536743","77","1","swim","","","","",""
"dual-task","null","null","null","","swim","arctic","579.5","","R","null","77","77","1","swim-dual-task","","R","uppercase","274000","0","3","f612ab79159890898a64e419187dedcaa0018d17adf9b3260b6e8b3b3c42b28f","274014.90000009537","579.5","77","1","swim","","","","",""
"dual-task","null","null","null","","swim","arctic","596","","g","null","88","88","1","swim-dual-task","","g","lowercase","284000","0","3","f612ab79159890898a64e419187dedcaa0018d17adf9b3260b6e8b3b3c42b28f","284005.5","596","88","1","swim","","","","",""
"dual-task","null","null","null","","swim","arctic","503.2999999523163","","h","null","88","88","1","swim-dual-task","","h","lowercase","296000","0","3","f612ab79159890898a64e419187dedcaa0018d17adf9b3260b6e8b3b3c42b28f","296005.80000019073","503.2999999523163","88","1","swim","","","","",""
"dual-task","null","null","null","","swim","arctic","484.69999980926514","","F","null","77","77","1","swim-dual-task","","F","uppercase","310000","0","3","f612ab79159890898a64e419187dedcaa0018d17adf9b3260b6e8b3b3c42b28f","310015.40000009537","484.69999980926514","77","1","swim","","","","",""
"dual-task","null","null","null","","swim","arctic","1028.8000001907349","","b","null","88","88","1","swim-dual-task","","b","lowercase","318000","0","3","f612ab79159890898a64e419187dedcaa0018d17adf9b3260b6e8b3b3c42b28f","318015.2000000477","1028.8000001907349","88","1","swim","","","","",""
"dual-task","null","null","null","","swim","arctic","529.2999999523163","","q","null","88","88","1","swim-dual-task","","q","lowercase","328000","0","3","f612ab79159890898a64e419187dedcaa0018d17adf9b3260b6e8b3b3c42b28f","328015.40000009537","529.2999999523163","88","1","swim","","","","",""
"dual-task","null","null","null","","swim","arctic","445.09999990463257","","T","null","77","77","1","swim-dual-task","","T","uppercase","334000","0","3","f612ab79159890898a64e419187dedcaa0018d17adf9b3260b6e8b3b3c42b28f","334006","445.09999990463257","77","1","swim","","","","",""
"dual-task","null","null","null","","swim","arctic","464.09999990463257","","D","null","77","77","1","swim-dual-task","","D","uppercase","344000","0","3","f612ab79159890898a64e419187dedcaa0018d17adf9b3260b6e8b3b3c42b28f","344004.80000019073","464.09999990463257","77","1","swim","","","","",""
"dual-task","null","null","null","","swim","arctic","557.7000000476837","","Q","null","77","77","1","swim-dual-task","","Q","uppercase","352000","0","3","f612ab79159890898a64e419187dedcaa0018d17adf9b3260b6e8b3b3c42b28f","352004.7000000477","557.7000000476837","77","1","swim","","","","",""
"dual-task","null","null","null","","swim","arctic","712.1000001430511","","E","null","77","77","1","swim-dual-task","","E","uppercase","366000","0","3","f612ab79159890898a64e419187dedcaa0018d17adf9b3260b6e8b3b3c42b28f","366015.5","712.1000001430511","77","1","swim","","","","",""
"dual-task","null","null","null","","swim","arctic","NA","","E","null","NA","77","0","swim-dual-task","","E","uppercase","374000","1","3","f612ab79159890898a64e419187dedcaa0018d17adf9b3260b6e8b3b3c42b28f","374015.40000009537","NA","NA","0","swim","","","","",""
"dual-task","null","null","null","","swim","arctic","704.4000000953674","","f","null","77","88","0","swim-dual-task","","f","lowercase","382000","0","3","f612ab79159890898a64e419187dedcaa0018d17adf9b3260b6e8b3b3c42b28f","382005.40000009537","704.4000000953674","77","0","swim","","","","",""
"dual-task","null","null","null","","swim","arctic","743.2000000476837","","d","null","88","88","1","swim-dual-task","","d","lowercase","392000","0","3","f612ab79159890898a64e419187dedcaa0018d17adf9b3260b6e8b3b3c42b28f","392005.90000009537","743.2000000476837","88","1","swim","","","","",""
"dual-task","null","null","null","","swim","arctic","596.5","","n","null","77","88","0","swim-dual-task","","n","lowercase","400000","0","3","f612ab79159890898a64e419187dedcaa0018d17adf9b3260b6e8b3b3c42b28f","400015.40000009537","596.5","77","0","swim","","","","",""
"dual-task","null","null","null","","swim","arctic","493.2999999523163","","d","null","88","88","1","swim-dual-task","","d","lowercase","414000","0","3","f612ab79159890898a64e419187dedcaa0018d17adf9b3260b6e8b3b3c42b28f","414005.7000000477","493.2999999523163","88","1","swim","","","","",""
"dual-task","null","null","null","","swim","arctic","1515","","t","null","77","88","0","swim-dual-task","","t","lowercase","424000","0","3","f612ab79159890898a64e419187dedcaa0018d17adf9b3260b6e8b3b3c42b28f","424004.80000019073","1515","77","0","swim","","","","",""
"dual-task","null","null","null","","swim","arctic","717.2999999523163","","b","null","88","88","1","swim-dual-task","","b","lowercase","434000","0","3","f612ab79159890898a64e419187dedcaa0018d17adf9b3260b6e8b3b3c42b28f","434015.7000000477","717.2999999523163","88","1","swim","","","","",""
"dual-task","null","null","null","","swim","arctic","555.7999999523163","","G","null","77","77","1","swim-dual-task","","G","uppercase","446000","0","3","f612ab79159890898a64e419187dedcaa0018d17adf9b3260b6e8b3b3c42b28f","446015.80000019073","555.7999999523163","77","1","swim","","","","",""
"dual-task","null","null","null","","swim","arctic","1104.4000000953674","","Q","null","77","77","1","swim-dual-task","","Q","uppercase","456000","0","3","f612ab79159890898a64e419187dedcaa0018d17adf9b3260b6e8b3b3c42b28f","456015.7000000477","1104.4000000953674","77","1","swim","","","","",""
"dual-task","null","null","null","","swim","arctic","1852.3999998569489","","a","null","88","88","1","swim-dual-task","","a","lowercase","466000","0","3","f612ab79159890898a64e419187dedcaa0018d17adf9b3260b6e8b3b3c42b28f","466014.80000019073","1852.3999998569489","88","1","swim","","","","",""
"dual-task","null","null","null","","swim","arctic","579.5999999046326","","a","null","88","88","1","swim-dual-task","","a","lowercase","478000","0","3","f612ab79159890898a64e419187dedcaa0018d17adf9b3260b6e8b3b3c42b28f","478005.80000019073","579.5999999046326","88","1","swim","","","","",""
"dual-task","null","null","null","","swim","arctic","1734.3999998569489","","h","null","88","88","1","swim-dual-task","","h","lowercase","488000","0","3","f612ab79159890898a64e419187dedcaa0018d17adf9b3260b6e8b3b3c42b28f","488005.7000000477","1734.3999998569489","88","1","swim","","","","",""
"dual-task","null","null","null","","swim","arctic","548.3999998569489","","r","null","88","88","1","swim-dual-task","","r","lowercase","498000","0","3","f612ab79159890898a64e419187dedcaa0018d17adf9b3260b6e8b3b3c42b28f","498005.90000009537","548.3999998569489","88","1","swim","","","","",""
"dual-task","null","null","null","","swim","arctic","495.59999990463257","","H","null","77","77","1","swim-dual-task","","H","uppercase","512000","0","3","f612ab79159890898a64e419187dedcaa0018d17adf9b3260b6e8b3b3c42b28f","512015.7000000477","495.59999990463257","77","1","swim","","","","",""
"dual-task","null","null","null","","swim","arctic","1465.0999999046326","","h","null","88","88","1","swim-dual-task","","h","lowercase","518000","0","3","f612ab79159890898a64e419187dedcaa0018d17adf9b3260b6e8b3b3c42b28f","518015.7000000477","1465.0999999046326","88","1","swim","","","","",""
"dual-task","null","null","null","","swim","arctic","1513","","g","null","88","88","1","swim-dual-task","","g","lowercase","524000","0","3","f612ab79159890898a64e419187dedcaa0018d17adf9b3260b6e8b3b3c42b28f","524015.90000009537","1513","88","1","swim","","","","",""
"dual-task","null","null","null","","swim","arctic","463.60000014305115","","q","null","88","88","1","swim-dual-task","","q","lowercase","536000","0","3","f612ab79159890898a64e419187dedcaa0018d17adf9b3260b6e8b3b3c42b28f","536005.9000000954","463.60000014305115","88","1","swim","","","","",""
"dual-task","null","null","null","","swim","arctic","1090","","t","null","88","88","1","swim-dual-task","","t","lowercase","550000","0","3","f612ab79159890898a64e419187dedcaa0018d17adf9b3260b6e8b3b3c42b28f","550005.8000001907","1090","88","1","swim","","","","",""
"dual-task","null","null","null","","swim","arctic","1257.2999999523163","","G","null","77","77","1","swim-dual-task","","G","uppercase","556000","0","3","f612ab79159890898a64e419187dedcaa0018d17adf9b3260b6e8b3b3c42b28f","556006.2000000477","1257.2999999523163","77","1","swim","","","","",""
"dual-task","null","null","null","","swim","arctic","473.60000014305115","","h","null","88","88","1","swim-dual-task","","h","lowercase","562000","0","3","f612ab79159890898a64e419187dedcaa0018d17adf9b3260b6e8b3b3c42b28f","562016.100000143","473.60000014305115","88","1","swim","","","","",""
"dual-task","null","null","null","","swim","arctic","541.0999999046326","","N","null","77","77","1","swim-dual-task","","N","uppercase","568000","0","3","f612ab79159890898a64e419187dedcaa0018d17adf9b3260b6e8b3b3c42b28f","568005.7000000477","541.0999999046326","77","1","swim","","","","",""
"dual-task","null","null","null","","swim","arctic","920.2000000476837","","A","null","88","77","0","swim-dual-task","","A","uppercase","580000","0","3","f612ab79159890898a64e419187dedcaa0018d17adf9b3260b6e8b3b3c42b28f","580016.100000143","920.2000000476837","88","0","swim","","","","",""
"dual-task","null","null","null","","swim","arctic","571.2999999523163","","N","null","77","77","1","swim-dual-task","","N","uppercase","590000","0","3","f612ab79159890898a64e419187dedcaa0018d17adf9b3260b6e8b3b3c42b28f","590013.2000000477","571.2999999523163","77","1","swim","","","","",""
"dual-task","null","null","null","","swim","arctic","562.3999998569489","","b","null","88","88","1","swim-dual-task","","b","lowercase","604000","0","3","f612ab79159890898a64e419187dedcaa0018d17adf9b3260b6e8b3b3c42b28f","604006.4000000954","562.3999998569489","88","1","swim","","","","",""
"dual-task","null","null","null","","swim","arctic","947.9000000953674","","E","null","77","77","1","swim-dual-task","","E","uppercase","614000","0","3","f612ab79159890898a64e419187dedcaa0018d17adf9b3260b6e8b3b3c42b28f","614008.8000001907","947.9000000953674","77","1","swim","","","","",""
"dual-task","null","null","null","","swim","arctic","568.0999999046326","","N","null","77","77","1","swim-dual-task","","N","uppercase","624000","0","3","f612ab79159890898a64e419187dedcaa0018d17adf9b3260b6e8b3b3c42b28f","624006.100000143","568.0999999046326","77","1","swim","","","","",""
"dual-task","null","null","null","","swim","arctic","521.7999999523163","","D","null","77","77","1","swim-dual-task","","D","uppercase","632000","0","3","f612ab79159890898a64e419187dedcaa0018d17adf9b3260b6e8b3b3c42b28f","632006.600000143","521.7999999523163","77","1","swim","","","","",""
"dual-task","null","null","null","","swim","arctic","486.90000009536743","","g","null","88","88","1","swim-dual-task","","g","lowercase","642000","0","3","f612ab79159890898a64e419187dedcaa0018d17adf9b3260b6e8b3b3c42b28f","642005.5","486.90000009536743","88","1","swim","","","","",""
"dual-task","null","null","null","","swim","arctic","547.0999999046326","","e","null","88","88","1","swim-dual-task","","e","lowercase","648000","0","3","f612ab79159890898a64e419187dedcaa0018d17adf9b3260b6e8b3b3c42b28f","648006.100000143","547.0999999046326","88","1","swim","","","","",""
"dual-task","null","null","null","","swim","arctic","588.7999999523163","","H","null","77","77","1","swim-dual-task","","H","uppercase","660000","0","3","f612ab79159890898a64e419187dedcaa0018d17adf9b3260b6e8b3b3c42b28f","660016.3000001907","588.7999999523163","77","1","swim","","","","",""
"dual-task","null","null","null","","swim","arctic","1120.7999999523163","","F","null","77","77","1","swim-dual-task","","F","uppercase","670000","0","3","f612ab79159890898a64e419187dedcaa0018d17adf9b3260b6e8b3b3c42b28f","670005.5","1120.7999999523163","77","1","swim","","","","",""
"dual-task","null","null","null","","swim","arctic","509.5","","H","null","77","77","1","swim-dual-task","","H","uppercase","680000","0","3","f612ab79159890898a64e419187dedcaa0018d17adf9b3260b6e8b3b3c42b28f","680005.5","509.5","77","1","swim","","","","",""
"dual-task","null","null","null","","swim","arctic","609.7000000476837","","T","null","77","77","1","swim-dual-task","","T","uppercase","692000","0","3","f612ab79159890898a64e419187dedcaa0018d17adf9b3260b6e8b3b3c42b28f","692005.5","609.7000000476837","77","1","swim","","","","",""
"dual-task","null","null","null","","swim","arctic","1524.3999998569489","","r","null","88","88","1","swim-dual-task","","r","lowercase","702000","0","3","f612ab79159890898a64e419187dedcaa0018d17adf9b3260b6e8b3b3c42b28f","702006.600000143","1524.3999998569489","88","1","swim","","","","",""
"dual-task","null","null","null","","swim","arctic","512.8000001907349","","r","null","88","88","1","swim-dual-task","","r","lowercase","710000","0","3","f612ab79159890898a64e419187dedcaa0018d17adf9b3260b6e8b3b3c42b28f","710015.9000000954","512.8000001907349","88","1","swim","","","","",""
"dual-task","null","null","null","","swim","arctic","1085.7000000476837","","H","null","77","77","1","swim-dual-task","","H","uppercase","718000","0","3","f612ab79159890898a64e419187dedcaa0018d17adf9b3260b6e8b3b3c42b28f","718016","1085.7000000476837","77","1","swim","","","","",""
"dual-task","null","null","null","","swim","arctic","613.4000000953674","","B","null","88","77","0","swim-dual-task","","B","uppercase","730000","0","3","f612ab79159890898a64e419187dedcaa0018d17adf9b3260b6e8b3b3c42b28f","730006.2000000477","613.4000000953674","88","0","swim","","","","",""
"dual-task","null","null","null","","swim","arctic","549.2999999523163","","E","null","77","77","1","swim-dual-task","","E","uppercase","742000","0","3","f612ab79159890898a64e419187dedcaa0018d17adf9b3260b6e8b3b3c42b28f","742016.100000143","549.2999999523163","77","1","swim","","","","",""
"dual-task","null","null","null","","swim","arctic","799.8999998569489","","f","null","88","88","1","swim-dual-task","","f","lowercase","748000","0","3","f612ab79159890898a64e419187dedcaa0018d17adf9b3260b6e8b3b3c42b28f","748006.100000143","799.8999998569489","88","1","swim","","","","",""
"dual-task","null","null","null","","swim","arctic","635.7999999523163","","A","null","77","77","1","swim-dual-task","","A","uppercase","762000","0","3","f612ab79159890898a64e419187dedcaa0018d17adf9b3260b6e8b3b3c42b28f","762004.4000000954","635.7999999523163","77","1","swim","","","","",""
"dual-task","null","null","null","","swim","arctic","390.39999985694885","","A","null","77","77","1","swim-dual-task","","A","uppercase","772000","0","3","f612ab79159890898a64e419187dedcaa0018d17adf9b3260b6e8b3b3c42b28f","772016.2000000477","390.39999985694885","77","1","swim","","","","",""
"dual-task","null","null","null","","swim","arctic","579.0999999046326","","f","null","88","88","1","swim-dual-task","","f","lowercase","784000","0","3","f612ab79159890898a64e419187dedcaa0018d17adf9b3260b6e8b3b3c42b28f","784006.3000001907","579.0999999046326","88","1","swim","","","","",""
"dual-task","null","null","null","","swim","arctic","498.7000000476837","","N","null","77","77","1","swim-dual-task","","N","uppercase","792000","0","3","f612ab79159890898a64e419187dedcaa0018d17adf9b3260b6e8b3b3c42b28f","792006.8000001907","498.7000000476837","77","1","swim","","","","",""
"audio-keyboard-response","29","1037742","0.0-7.0-0.0-1.0","f612ab79159890898a64e419187dedcaa0018d17adf9b3260b6e8b3b3c42b28f","swim","arctic","null","","audio/story_swim.mp3","","null","","","","","","","","","","","","","","","","","","","",""
"html-button-response","30","1040725","0.0-7.0-0.0-2.0","f612ab79159890898a64e419187dedcaa0018d17adf9b3260b6e8b3b3c42b28f","swim","arctic","2980","","<p>This concludes the story. Thank you for listening.</p><p>You will now answer some questions about the content of the story.</p>","0","","","","","","","","","","","","","","","","","","","","",""
"survey-multi-choice","31","1050928","0.0-7.0-0.0-3.0-0.0","f612ab79159890898a64e419187dedcaa0018d17adf9b3260b6e8b3b3c42b28f","swim","arctic","10190","","<b>What were the astronaut candidates trained to do at the naval air station?</b>","","","","1","swim-comprehension","","","","","","","","","","","","","{""Q0"":""Eject out of aircraft and survive in water long enough to be rescued""}","","","",""
"survey-multi-choice","32","1053873","0.0-7.0-0.0-3.0-0.1","f612ab79159890898a64e419187dedcaa0018d17adf9b3260b6e8b3b3c42b28f","swim","arctic","2665","","<b>Where is the home of naval aviation?</b>","","","","1","swim-comprehension","","","","","","","","","","","","","{""Q0"":""Pensacola""}","","","",""
"survey-multi-choice","33","1057405","0.0-7.0-0.0-3.0-0.2","f612ab79159890898a64e419187dedcaa0018d17adf9b3260b6e8b3b3c42b28f","swim","arctic","3257","","<b>How many astronaut candidates reported for duty at the Johnson Space Center?</b>","","","","1","swim-comprehension","","","","","","","","","","","","","{""Q0"":""Forty-four""}","","","",""
"survey-multi-choice","34","1061223","0.0-7.0-0.0-3.0-0.3","f612ab79159890898a64e419187dedcaa0018d17adf9b3260b6e8b3b3c42b28f","swim","arctic","3545","","<b>How did the narrator train for his swim test?</b>","","","","1","swim-comprehension","","","","","","","","","","","","","{""Q0"":""Took his kids to the pool every day""}","","","",""
"survey-multi-choice","35","1068871","0.0-7.0-0.0-3.0-0.4","f612ab79159890898a64e419187dedcaa0018d17adf9b3260b6e8b3b3c42b28f","swim","arctic","7374","","<b>What gave the narrator his greatest feeling of accomplishment?</b>","","","","1","swim-comprehension","","","","","","","","","","","","","{""Q0"":""Passing the water survival course""}","","","",""
"survey-multi-choice","36","1072438","0.0-7.0-0.0-3.0-0.5","f612ab79159890898a64e419187dedcaa0018d17adf9b3260b6e8b3b3c42b28f","swim","arctic","3304","","<b>How many astronaut candidates passed the first swim test?</b>","","","","1","swim-comprehension","","","","","","","","","","","","","{""Q0"":""All of them""}","","","",""
"survey-multi-choice","37","1082876","0.0-7.0-0.0-3.0-0.6","f612ab79159890898a64e419187dedcaa0018d17adf9b3260b6e8b3b3c42b28f","swim","arctic","10172","","<b>How many times did the astronaut candidates have to complete the final exercise to pass?</b>","","","","0","swim-comprehension","","","","","","","","","","","","","{""Q0"":""Five""}","","","",""
"survey-multi-choice","38","1086836","0.0-7.0-0.0-3.0-0.7","f612ab79159890898a64e419187dedcaa0018d17adf9b3260b6e8b3b3c42b28f","swim","arctic","3699","","<b>How often does the narrator swim, now that he is a good swimmer?</b>","","","","1","swim-comprehension","","","","","","","","","","","","","{""Q0"":""Never swam again in his life""}","","","",""
"survey-multi-choice","39","1090335","0.0-7.0-0.0-3.0-0.8","f612ab79159890898a64e419187dedcaa0018d17adf9b3260b6e8b3b3c42b28f","swim","arctic","3242","","<b>What is the narrator afraid of, aside from the water?</b>","","","","1","swim-comprehension","","","","","","","","","","","","","{""Q0"":""Heights""}","","","",""
"survey-multi-choice","40","1096531","0.0-7.0-0.0-3.0-0.9","f612ab79159890898a64e419187dedcaa0018d17adf9b3260b6e8b3b3c42b28f","swim","arctic","5929","","<b>What was the final step of the first swim test in the pool?</b>","","","","1","swim-comprehension","","","","","","","","","","","","","{""Q0"":""Tread water with hands above the water""}","","","",""
"html-button-response","41","1098472","0.0-7.0-0.0-4.0","f612ab79159890898a64e419187dedcaa0018d17adf9b3260b6e8b3b3c42b28f","swim","arctic","1686","","<p>Thank you for your responses.</p><p>You will now answer some questions about your impressions of the story.</p>","0","","","","","","","","","","","","","","","","","","","","",""
"html-button-response","42","1100965","0.0-7.0-0.0-5.0-0.0","f612ab79159890898a64e419187dedcaa0018d17adf9b3260b6e8b3b3c42b28f","swim","arctic","2490","","A2","6","","","","swim-engagement","","","","","","","","","","","","","","7","absorption","",""
"html-button-response","43","1102957","0.0-7.0-0.0-5.0-0.1","f612ab79159890898a64e419187dedcaa0018d17adf9b3260b6e8b3b3c42b28f","swim","arctic","1731","","EE4","6","","","","swim-engagement","","","","","","","","","","","","","","7","emo-engage","",""
"html-button-response","44","1104611","0.0-7.0-0.0-5.0-0.2","f612ab79159890898a64e419187dedcaa0018d17adf9b3260b6e8b3b3c42b28f","swim","arctic","1394","","EE3","6","","","","swim-engagement","","","","","","","","","","","","","","7","emo-engage","",""
"html-button-response","45","1106863","0.0-7.0-0.0-5.0-0.3","f612ab79159890898a64e419187dedcaa0018d17adf9b3260b6e8b3b3c42b28f","swim","arctic","1994","","A1","6","","","","swim-engagement","","","","","","","","","","","","","","7","absorption","",""
"html-button-response","46","1109345","0.0-7.0-0.0-5.0-0.4","f612ab79159890898a64e419187dedcaa0018d17adf9b3260b6e8b3b3c42b28f","swim","arctic","2221","","MS3","6","","","","swim-engagement","","","","","","","","","","","","","","7","mental-sim","",""
"html-button-response","47","1111373","0.0-7.0-0.0-5.0-0.5","f612ab79159890898a64e419187dedcaa0018d17adf9b3260b6e8b3b3c42b28f","swim","arctic","1764","","E8","5","","","","swim-engagement","","","","","","","","","","","","","","6","enjoyment","",""
"html-button-response","48","1112863","0.0-7.0-0.0-5.0-0.6","f612ab79159890898a64e419187dedcaa0018d17adf9b3260b6e8b3b3c42b28f","swim","arctic","1236","","A3","6","","","","swim-engagement","","","","","","","","","","","","","","7","absorption","",""
"html-button-response","49","1115027","0.0-7.0-0.0-5.0-0.7","f612ab79159890898a64e419187dedcaa0018d17adf9b3260b6e8b3b3c42b28f","swim","arctic","1909","","EE1","6","","","","swim-engagement","","","","","","","","","","","","","","7","emo-engage","",""
"html-button-response","50","1116980","0.0-7.0-0.0-5.0-0.8","f612ab79159890898a64e419187dedcaa0018d17adf9b3260b6e8b3b3c42b28f","swim","arctic","1697","","EE5","6","","","","swim-engagement","","","","","","","","","","","","","","7","emo-engage","",""
"html-button-response","51","1118801","0.0-7.0-0.0-5.0-0.9","f612ab79159890898a64e419187dedcaa0018d17adf9b3260b6e8b3b3c42b28f","swim","arctic","1564","","E7","6","","","","swim-engagement","","","","","","","","","","","","","","7","enjoyment","",""
"html-button-response","52","1120465","0.0-7.0-0.0-5.0-0.10","f612ab79159890898a64e419187dedcaa0018d17adf9b3260b6e8b3b3c42b28f","swim","arctic","1407","","E10","6","","","","swim-engagement","","","","","","","","","","","","","","7","enjoyment","",""
"html-button-response","53","1123916","0.0-7.0-0.0-5.0-0.11","f612ab79159890898a64e419187dedcaa0018d17adf9b3260b6e8b3b3c42b28f","swim","arctic","3189","","MS2","6","","","","swim-engagement","","","","","","","","","","","","","","7","mental-sim","",""
"html-button-response","54","1128629","0.0-7.0-0.0-5.0-0.12","f612ab79159890898a64e419187dedcaa0018d17adf9b3260b6e8b3b3c42b28f","swim","arctic","4453","","E6","6","","","","swim-engagement","","","","","","","","","","","","","","7","enjoyment","",""
"html-button-response","55","1137802","0.0-7.0-0.0-5.0-0.13","f612ab79159890898a64e419187dedcaa0018d17adf9b3260b6e8b3b3c42b28f","swim","arctic","8919","","E1","6","","","","swim-engagement","","","","","","","","","","","","","","7","enjoyment","",""
"html-button-response","56","1141270","0.0-7.0-0.0-5.0-0.14","f612ab79159890898a64e419187dedcaa0018d17adf9b3260b6e8b3b3c42b28f","swim","arctic","3211","","MS1","6","","","","swim-engagement","","","","","","","","","","","","","","7","mental-sim","",""
"html-button-response","57","1144169","0.0-7.0-0.0-5.0-0.15","f612ab79159890898a64e419187dedcaa0018d17adf9b3260b6e8b3b3c42b28f","swim","arctic","2635","","A5","5","","","","swim-engagement","","","","","","","","","","","","","","6","absorption","",""
"html-button-response","58","1147394","0.0-7.0-0.0-5.0-0.16","f612ab79159890898a64e419187dedcaa0018d17adf9b3260b6e8b3b3c42b28f","swim","arctic","2964","","EE2","3","","","","swim-engagement","","","","","","","","","","","","","","4","emo-engage","",""
"html-button-response","59","1150220","0.0-7.0-0.0-5.0-0.17","f612ab79159890898a64e419187dedcaa0018d17adf9b3260b6e8b3b3c42b28f","swim","arctic","2567","","A4","4","","","","swim-engagement","","","","","","","","","","","","","","5","absorption","",""
"html-keyboard-response","60","1166238","0.0-7.0-1.0","f612ab79159890898a64e419187dedcaa0018d17adf9b3260b6e8b3b3c42b28f","swim","arctic","15766","","<p>Thank you for your responses. You will now listen to the second story.</p><p>Remember, as you listen to the story you will see letters appear on the screen.</br>As quickly as possible, press <b>&lt;x&gt;</b> if the letter is lowercase and <b>&lt;m&gt;</b> if the letter is uppercase.</p><p>Press <b>&lt;x&gt;</b> or <b>&lt;m&gt;</b> to begin listening!</p>","","88","","","","","","","","","","","","","","","","","","","",""
"html-keyboard-response","61","1166743","0.0-7.0-2.0-0.0","f612ab79159890898a64e419187dedcaa0018d17adf9b3260b6e8b3b3c42b28f","swim","arctic","null","","<div style=""font-size:60px;"" tabindex=""0"">+</div>","","null","","","","","","","","","","","","","","","","","","","",""
"dual-task","null","null","null","","swim","arctic","1130.0999999046326","","t","null","77","88","0","arctic-dual-task","","t","lowercase","14000","0","3","f612ab79159890898a64e419187dedcaa0018d17adf9b3260b6e8b3b3c42b28f","14014.899999856949","1130.0999999046326","77","0","arctic","","","","",""
"dual-task","null","null","null","","swim","arctic","487.7000000476837","","E","null","77","77","1","arctic-dual-task","","E","uppercase","28000","0","3","f612ab79159890898a64e419187dedcaa0018d17adf9b3260b6e8b3b3c42b28f","28003.5","487.7000000476837","77","1","arctic","","","","",""
"dual-task","null","null","null","","swim","arctic","555.6000001430511","","f","null","88","88","1","arctic-dual-task","","f","lowercase","38000","0","3","f612ab79159890898a64e419187dedcaa0018d17adf9b3260b6e8b3b3c42b28f","38012.89999985695","555.6000001430511","88","1","arctic","","","","",""
"dual-task","null","null","null","","swim","arctic","502.60000014305115","","D","null","77","77","1","arctic-dual-task","","D","uppercase","50000","0","3","f612ab79159890898a64e419187dedcaa0018d17adf9b3260b6e8b3b3c42b28f","50018","502.60000014305115","77","1","arctic","","","","",""
"dual-task","null","null","null","","swim","arctic","589.7000000476837","","g","null","88","88","1","arctic-dual-task","","g","lowercase","58000","0","3","f612ab79159890898a64e419187dedcaa0018d17adf9b3260b6e8b3b3c42b28f","58012.299999952316","589.7000000476837","88","1","arctic","","","","",""
"dual-task","null","null","null","","swim","arctic","485.5","","q","null","88","88","1","arctic-dual-task","","q","lowercase","70000","0","3","f612ab79159890898a64e419187dedcaa0018d17adf9b3260b6e8b3b3c42b28f","70003.29999995232","485.5","88","1","arctic","","","","",""
"dual-task","null","null","null","","swim","arctic","619.2999999523163","","d","null","88","88","1","arctic-dual-task","","d","lowercase","84000","0","3","f612ab79159890898a64e419187dedcaa0018d17adf9b3260b6e8b3b3c42b28f","84012.59999990463","619.2999999523163","88","1","arctic","","","","",""
"dual-task","null","null","null","","swim","arctic","847.5","","d","null","88","88","1","arctic-dual-task","","d","lowercase","98000","0","3","f612ab79159890898a64e419187dedcaa0018d17adf9b3260b6e8b3b3c42b28f","98003.89999985695","847.5","88","1","arctic","","","","",""
"dual-task","null","null","null","","swim","arctic","827.8999998569489","","g","null","88","88","1","arctic-dual-task","","g","lowercase","112000","0","3","f612ab79159890898a64e419187dedcaa0018d17adf9b3260b6e8b3b3c42b28f","112002.89999985695","827.8999998569489","88","1","arctic","","","","",""
"dual-task","null","null","null","","swim","arctic","1229.0999999046326","","D","null","77","77","1","arctic-dual-task","","D","uppercase","120000","0","3","f612ab79159890898a64e419187dedcaa0018d17adf9b3260b6e8b3b3c42b28f","120012.79999995232","1229.0999999046326","77","1","arctic","","","","",""
"dual-task","null","null","null","","swim","arctic","539","","n","null","88","88","1","arctic-dual-task","","n","lowercase","132000","0","3","f612ab79159890898a64e419187dedcaa0018d17adf9b3260b6e8b3b3c42b28f","132014.09999990463","539","88","1","arctic","","","","",""
"dual-task","null","null","null","","swim","arctic","626","","b","null","88","88","1","arctic-dual-task","","b","lowercase","146000","0","3","f612ab79159890898a64e419187dedcaa0018d17adf9b3260b6e8b3b3c42b28f","146014.39999985695","626","88","1","arctic","","","","",""
"dual-task","null","null","null","","swim","arctic","431.2000000476837","","G","null","77","77","1","arctic-dual-task","","G","uppercase","154000","0","3","f612ab79159890898a64e419187dedcaa0018d17adf9b3260b6e8b3b3c42b28f","154013.59999990463","431.2000000476837","77","1","arctic","","","","",""
"dual-task","null","null","null","","swim","arctic","902.8000001907349","","A","null","77","77","1","arctic-dual-task","","A","uppercase","164000","0","3","f612ab79159890898a64e419187dedcaa0018d17adf9b3260b6e8b3b3c42b28f","164012.79999995232","902.8000001907349","77","1","arctic","","","","",""
"dual-task","null","null","null","","swim","arctic","927.5","","G","null","77","77","1","arctic-dual-task","","G","uppercase","178000","0","3","f612ab79159890898a64e419187dedcaa0018d17adf9b3260b6e8b3b3c42b28f","178004","927.5","77","1","arctic","","","","",""
"dual-task","null","null","null","","swim","arctic","440.7000000476837","","B","null","77","77","1","arctic-dual-task","","B","uppercase","186000","0","3","f612ab79159890898a64e419187dedcaa0018d17adf9b3260b6e8b3b3c42b28f","186004.5","440.7000000476837","77","1","arctic","","","","",""
"dual-task","null","null","null","","swim","arctic","419.5","","H","null","88","77","0","arctic-dual-task","","H","uppercase","200000","0","3","f612ab79159890898a64e419187dedcaa0018d17adf9b3260b6e8b3b3c42b28f","200003.70000004768","419.5","88","0","arctic","","","","",""
"dual-task","null","null","null","","swim","arctic","558","","b","null","88","88","1","arctic-dual-task","","b","lowercase","212000","0","3","f612ab79159890898a64e419187dedcaa0018d17adf9b3260b6e8b3b3c42b28f","212004.09999990463","558","88","1","arctic","","","","",""
"dual-task","null","null","null","","swim","arctic","1308.7999999523163","","A","null","77","77","1","arctic-dual-task","","A","uppercase","220000","0","3","f612ab79159890898a64e419187dedcaa0018d17adf9b3260b6e8b3b3c42b28f","220003.89999985695","1308.7999999523163","77","1","arctic","","","","",""
"dual-task","null","null","null","","swim","arctic","707.9000000953674","","q","null","88","88","1","arctic-dual-task","","q","lowercase","234000","0","3","f612ab79159890898a64e419187dedcaa0018d17adf9b3260b6e8b3b3c42b28f","234013.89999985695","707.9000000953674","88","1","arctic","","","","",""
"dual-task","null","null","null","","swim","arctic","850.3999998569489","","H","null","77","77","1","arctic-dual-task","","H","uppercase","246000","0","3","f612ab79159890898a64e419187dedcaa0018d17adf9b3260b6e8b3b3c42b28f","246003.09999990463","850.3999998569489","77","1","arctic","","","","",""
"dual-task","null","null","null","","swim","arctic","513.0999999046326","","R","null","77","77","1","arctic-dual-task","","R","uppercase","256000","0","3","f612ab79159890898a64e419187dedcaa0018d17adf9b3260b6e8b3b3c42b28f","256003.89999985695","513.0999999046326","77","1","arctic","","","","",""
"dual-task","null","null","null","","swim","arctic","540.7999999523163","","D","null","77","77","1","arctic-dual-task","","D","uppercase","264000","0","3","f612ab79159890898a64e419187dedcaa0018d17adf9b3260b6e8b3b3c42b28f","264002.7999999523","540.7999999523163","77","1","arctic","","","","",""
"dual-task","null","null","null","","swim","arctic","855.5999999046326","","f","null","88","88","1","arctic-dual-task","","f","lowercase","274000","0","3","f612ab79159890898a64e419187dedcaa0018d17adf9b3260b6e8b3b3c42b28f","274004.2999999523","855.5999999046326","88","1","arctic","","","","",""
"dual-task","null","null","null","","swim","arctic","602.7000000476837","","h","null","88","88","1","arctic-dual-task","","h","lowercase","286000","0","3","f612ab79159890898a64e419187dedcaa0018d17adf9b3260b6e8b3b3c42b28f","286013.39999985695","602.7000000476837","88","1","arctic","","","","",""
"dual-task","null","null","null","","swim","arctic","846.3999998569489","","Q","null","77","77","1","arctic-dual-task","","Q","uppercase","296000","0","3","f612ab79159890898a64e419187dedcaa0018d17adf9b3260b6e8b3b3c42b28f","296004.39999985695","846.3999998569489","77","1","arctic","","","","",""
"dual-task","null","null","null","","swim","arctic","520.5","","g","null","88","88","1","arctic-dual-task","","g","lowercase","306000","0","3","f612ab79159890898a64e419187dedcaa0018d17adf9b3260b6e8b3b3c42b28f","306013.2999999523","520.5","88","1","arctic","","","","",""
"dual-task","null","null","null","","swim","arctic","1297.5","","r","null","88","88","1","arctic-dual-task","","r","lowercase","314000","0","3","f612ab79159890898a64e419187dedcaa0018d17adf9b3260b6e8b3b3c42b28f","314003.5","1297.5","88","1","arctic","","","","",""
"dual-task","null","null","null","","swim","arctic","567.3999998569489","","r","null","88","88","1","arctic-dual-task","","r","lowercase","326000","0","3","f612ab79159890898a64e419187dedcaa0018d17adf9b3260b6e8b3b3c42b28f","326013.7000000477","567.3999998569489","88","1","arctic","","","","",""
"dual-task","null","null","null","","swim","arctic","1599.6999998092651","","R","null","77","77","1","arctic-dual-task","","R","uppercase","334000","0","3","f612ab79159890898a64e419187dedcaa0018d17adf9b3260b6e8b3b3c42b28f","334011.89999985695","1599.6999998092651","77","1","arctic","","","","",""
"dual-task","null","null","null","","swim","arctic","473.2999999523163","","A","null","77","77","1","arctic-dual-task","","A","uppercase","346000","0","3","f612ab79159890898a64e419187dedcaa0018d17adf9b3260b6e8b3b3c42b28f","346014","473.2999999523163","77","1","arctic","","","","",""
"dual-task","null","null","null","","swim","arctic","401.7999999523163","","Q","null","77","77","1","arctic-dual-task","","Q","uppercase","356000","0","3","f612ab79159890898a64e419187dedcaa0018d17adf9b3260b6e8b3b3c42b28f","356004","401.7999999523163","77","1","arctic","","","","",""
"dual-task","null","null","null","","swim","arctic","543.7000000476837","","T","null","77","77","1","arctic-dual-task","","T","uppercase","366000","0","3","f612ab79159890898a64e419187dedcaa0018d17adf9b3260b6e8b3b3c42b28f","366004.2000000477","543.7000000476837","77","1","arctic","","","","",""
"dual-task","null","null","null","","swim","arctic","1221.2000000476837","","f","null","77","88","0","arctic-dual-task","","f","lowercase","376000","0","3","f612ab79159890898a64e419187dedcaa0018d17adf9b3260b6e8b3b3c42b28f","376004.09999990463","1221.2000000476837","77","0","arctic","","","","",""
"dual-task","null","null","null","","swim","arctic","460","","N","null","77","77","1","arctic-dual-task","","N","uppercase","386000","0","3","f612ab79159890898a64e419187dedcaa0018d17adf9b3260b6e8b3b3c42b28f","386014.2000000477","460","77","1","arctic","","","","",""
"dual-task","null","null","null","","swim","arctic","1079.2999999523163","","F","null","77","77","1","arctic-dual-task","","F","uppercase","398000","0","3","f612ab79159890898a64e419187dedcaa0018d17adf9b3260b6e8b3b3c42b28f","398014.2000000477","1079.2999999523163","77","1","arctic","","","","",""
"dual-task","null","null","null","","swim","arctic","1357.8000001907349","","T","null","77","77","1","arctic-dual-task","","T","uppercase","404000","0","3","f612ab79159890898a64e419187dedcaa0018d17adf9b3260b6e8b3b3c42b28f","404003.89999985695","1357.8000001907349","77","1","arctic","","","","",""
"dual-task","null","null","null","","swim","arctic","492.40000009536743","","Q","null","77","77","1","arctic-dual-task","","Q","uppercase","418000","0","3","f612ab79159890898a64e419187dedcaa0018d17adf9b3260b6e8b3b3c42b28f","418003.89999985695","492.40000009536743","77","1","arctic","","","","",""
"dual-task","null","null","null","","swim","arctic","1571.5999999046326","","N","null","88","77","0","arctic-dual-task","","N","uppercase","424000","0","3","f612ab79159890898a64e419187dedcaa0018d17adf9b3260b6e8b3b3c42b28f","424014","1571.5999999046326","88","0","arctic","","","","",""
"dual-task","null","null","null","","swim","arctic","791.5999999046326","","B","null","77","77","1","arctic-dual-task","","B","uppercase","436000","0","3","f612ab79159890898a64e419187dedcaa0018d17adf9b3260b6e8b3b3c42b28f","436003.7999999523","791.5999999046326","77","1","arctic","","","","",""
"dual-task","null","null","null","","swim","arctic","673.2999999523163","","d","null","88","88","1","arctic-dual-task","","d","lowercase","446000","0","3","f612ab79159890898a64e419187dedcaa0018d17adf9b3260b6e8b3b3c42b28f","446014.39999985695","673.2999999523163","88","1","arctic","","","","",""
"dual-task","null","null","null","","swim","arctic","674.0999999046326","","a","null","77","88","0","arctic-dual-task","","a","lowercase","452000","0","3","f612ab79159890898a64e419187dedcaa0018d17adf9b3260b6e8b3b3c42b28f","452013.7000000477","674.0999999046326","77","0","arctic","","","","",""
"dual-task","null","null","null","","swim","arctic","439.60000014305115","","B","null","77","77","1","arctic-dual-task","","B","uppercase","460000","0","3","f612ab79159890898a64e419187dedcaa0018d17adf9b3260b6e8b3b3c42b28f","460002.2000000477","439.60000014305115","77","1","arctic","","","","",""
"dual-task","null","null","null","","swim","arctic","615.7999999523163","","f","null","88","88","1","arctic-dual-task","","f","lowercase","468000","0","3","f612ab79159890898a64e419187dedcaa0018d17adf9b3260b6e8b3b3c42b28f","468004.2999999523","615.7999999523163","88","1","arctic","","","","",""
"dual-task","null","null","null","","swim","arctic","NA","","e","null","NA","88","0","arctic-dual-task","","e","lowercase","474000","1","3","f612ab79159890898a64e419187dedcaa0018d17adf9b3260b6e8b3b3c42b28f","474003.7999999523","NA","NA","0","arctic","","","","",""
"dual-task","null","null","null","","swim","arctic","976.7000000476837","","q","null","88","88","1","arctic-dual-task","","q","lowercase","484000","0","3","f612ab79159890898a64e419187dedcaa0018d17adf9b3260b6e8b3b3c42b28f","484013.39999985695","976.7000000476837","88","1","arctic","","","","",""
"dual-task","null","null","null","","swim","arctic","602.1000001430511","","q","null","88","88","1","arctic-dual-task","","q","lowercase","498000","0","3","f612ab79159890898a64e419187dedcaa0018d17adf9b3260b6e8b3b3c42b28f","498023.7999999523","602.1000001430511","88","1","arctic","","","","",""
"dual-task","null","null","null","","swim","arctic","488.2999999523163","","t","null","88","88","1","arctic-dual-task","","t","lowercase","504000","0","3","f612ab79159890898a64e419187dedcaa0018d17adf9b3260b6e8b3b3c42b28f","504004.5","488.2999999523163","88","1","arctic","","","","",""
"dual-task","null","null","null","","swim","arctic","901.2000000476837","","t","null","88","88","1","arctic-dual-task","","t","lowercase","512000","0","3","f612ab79159890898a64e419187dedcaa0018d17adf9b3260b6e8b3b3c42b28f","512014.5","901.2000000476837","88","1","arctic","","","","",""
"dual-task","null","null","null","","swim","arctic","982.2000000476837","","e","null","88","88","1","arctic-dual-task","","e","lowercase","518000","0","3","f612ab79159890898a64e419187dedcaa0018d17adf9b3260b6e8b3b3c42b28f","518014.2999999523","982.2000000476837","88","1","arctic","","","","",""
"dual-task","null","null","null","","swim","arctic","824","","Q","null","77","77","1","arctic-dual-task","","Q","uppercase","528000","0","3","f612ab79159890898a64e419187dedcaa0018d17adf9b3260b6e8b3b3c42b28f","528004.2999999523","824","77","1","arctic","","","","",""
"dual-task","null","null","null","","swim","arctic","NA","","A","null","NA","77","0","arctic-dual-task","","A","uppercase","536000","1","3","f612ab79159890898a64e419187dedcaa0018d17adf9b3260b6e8b3b3c42b28f","536004.7999999523","NA","NA","0","arctic","","","","",""
"dual-task","null","null","null","","swim","arctic","1065.2000000476837","","F","null","88","77","0","arctic-dual-task","","F","uppercase","548000","0","3","f612ab79159890898a64e419187dedcaa0018d17adf9b3260b6e8b3b3c42b28f","548014.7000000477","1065.2000000476837","88","0","arctic","","","","",""
"dual-task","null","null","null","","swim","arctic","768.1000001430511","","n","null","88","88","1","arctic-dual-task","","n","lowercase","556000","0","3","f612ab79159890898a64e419187dedcaa0018d17adf9b3260b6e8b3b3c42b28f","556013.7999999523","768.1000001430511","88","1","arctic","","","","",""
"dual-task","null","null","null","","swim","arctic","751.6000001430511","","g","null","88","88","1","arctic-dual-task","","g","lowercase","568000","0","3","f612ab79159890898a64e419187dedcaa0018d17adf9b3260b6e8b3b3c42b28f","568013.899999857","751.6000001430511","88","1","arctic","","","","",""
"dual-task","null","null","null","","swim","arctic","895","","H","null","77","77","1","arctic-dual-task","","H","uppercase","576000","0","3","f612ab79159890898a64e419187dedcaa0018d17adf9b3260b6e8b3b3c42b28f","576014.5999999046","895","77","1","arctic","","","","",""
"dual-task","null","null","null","","swim","arctic","745.7999999523163","","E","null","77","77","1","arctic-dual-task","","E","uppercase","584000","0","3","f612ab79159890898a64e419187dedcaa0018d17adf9b3260b6e8b3b3c42b28f","584013.899999857","745.7999999523163","77","1","arctic","","","","",""
"dual-task","null","null","null","","swim","arctic","752.5","","R","null","77","77","1","arctic-dual-task","","R","uppercase","592000","0","3","f612ab79159890898a64e419187dedcaa0018d17adf9b3260b6e8b3b3c42b28f","592004.399999857","752.5","77","1","arctic","","","","",""
"dual-task","null","null","null","","swim","arctic","519","","e","null","88","88","1","arctic-dual-task","","e","lowercase","600000","0","3","f612ab79159890898a64e419187dedcaa0018d17adf9b3260b6e8b3b3c42b28f","600004.5","519","88","1","arctic","","","","",""
"dual-task","null","null","null","","swim","arctic","1387.4000000953674","","T","null","77","77","1","arctic-dual-task","","T","uppercase","614000","0","3","f612ab79159890898a64e419187dedcaa0018d17adf9b3260b6e8b3b3c42b28f","614004.399999857","1387.4000000953674","77","1","arctic","","","","",""
"dual-task","null","null","null","","swim","arctic","1051","","d","null","88","88","1","arctic-dual-task","","d","lowercase","622000","0","3","f612ab79159890898a64e419187dedcaa0018d17adf9b3260b6e8b3b3c42b28f","622005","1051","88","1","arctic","","","","",""
"dual-task","null","null","null","","swim","arctic","531.4000000953674","","e","null","88","88","1","arctic-dual-task","","e","lowercase","628000","0","3","f612ab79159890898a64e419187dedcaa0018d17adf9b3260b6e8b3b3c42b28f","628013.7999999523","531.4000000953674","88","1","arctic","","","","",""
"dual-task","null","null","null","","swim","arctic","619.7999999523163","","N","null","77","77","1","arctic-dual-task","","N","uppercase","636000","0","3","f612ab79159890898a64e419187dedcaa0018d17adf9b3260b6e8b3b3c42b28f","636004.5999999046","619.7999999523163","77","1","arctic","","","","",""
"dual-task","null","null","null","","swim","arctic","750.5","","T","null","77","77","1","arctic-dual-task","","T","uppercase","642000","0","3","f612ab79159890898a64e419187dedcaa0018d17adf9b3260b6e8b3b3c42b28f","642004","750.5","77","1","arctic","","","","",""
"dual-task","null","null","null","","swim","arctic","710.2000000476837","","F","null","77","77","1","arctic-dual-task","","F","uppercase","650000","0","3","f612ab79159890898a64e419187dedcaa0018d17adf9b3260b6e8b3b3c42b28f","650014.0999999046","710.2000000476837","77","1","arctic","","","","",""
"dual-task","null","null","null","","swim","arctic","739.2999999523163","","G","null","77","77","1","arctic-dual-task","","G","uppercase","662000","0","3","f612ab79159890898a64e419187dedcaa0018d17adf9b3260b6e8b3b3c42b28f","662004.5","739.2999999523163","77","1","arctic","","","","",""
"dual-task","null","null","null","","swim","arctic","550.5999999046326","","r","null","88","88","1","arctic-dual-task","","r","lowercase","668000","0","3","f612ab79159890898a64e419187dedcaa0018d17adf9b3260b6e8b3b3c42b28f","668014.7000000477","550.5999999046326","88","1","arctic","","","","",""
"dual-task","null","null","null","","swim","arctic","621.0999999046326","","h","null","88","88","1","arctic-dual-task","","h","lowercase","674000","0","3","f612ab79159890898a64e419187dedcaa0018d17adf9b3260b6e8b3b3c42b28f","674015.399999857","621.0999999046326","88","1","arctic","","","","",""
"dual-task","null","null","null","","swim","arctic","490.60000014305115","","H","null","77","77","1","arctic-dual-task","","H","uppercase","682000","0","3","f612ab79159890898a64e419187dedcaa0018d17adf9b3260b6e8b3b3c42b28f","682005","490.60000014305115","77","1","arctic","","","","",""
"dual-task","null","null","null","","swim","arctic","1085.7999999523163","","r","null","88","88","1","arctic-dual-task","","r","lowercase","696000","0","3","f612ab79159890898a64e419187dedcaa0018d17adf9b3260b6e8b3b3c42b28f","696005.0999999046","1085.7999999523163","88","1","arctic","","","","",""
"dual-task","null","null","null","","swim","arctic","531.7000000476837","","F","null","77","77","1","arctic-dual-task","","F","uppercase","704000","0","3","f612ab79159890898a64e419187dedcaa0018d17adf9b3260b6e8b3b3c42b28f","704004.2999999523","531.7000000476837","77","1","arctic","","","","",""
"dual-task","null","null","null","","swim","arctic","825.7000000476837","","t","null","88","88","1","arctic-dual-task","","t","lowercase","710000","0","3","f612ab79159890898a64e419187dedcaa0018d17adf9b3260b6e8b3b3c42b28f","710014.7000000477","825.7000000476837","88","1","arctic","","","","",""
"dual-task","null","null","null","","swim","arctic","509.7000000476837","","b","null","88","88","1","arctic-dual-task","","b","lowercase","722000","0","3","f612ab79159890898a64e419187dedcaa0018d17adf9b3260b6e8b3b3c42b28f","722004.7999999523","509.7000000476837","88","1","arctic","","","","",""
"dual-task","null","null","null","","swim","arctic","582.3000001907349","","R","null","77","77","1","arctic-dual-task","","R","uppercase","730000","0","3","f612ab79159890898a64e419187dedcaa0018d17adf9b3260b6e8b3b3c42b28f","730004.399999857","582.3000001907349","77","1","arctic","","","","",""
"dual-task","null","null","null","","swim","arctic","494.7000000476837","","D","null","77","77","1","arctic-dual-task","","D","uppercase","740000","0","3","f612ab79159890898a64e419187dedcaa0018d17adf9b3260b6e8b3b3c42b28f","740005","494.7000000476837","77","1","arctic","","","","",""
"dual-task","null","null","null","","swim","arctic","1127.5","","E","null","77","77","1","arctic-dual-task","","E","uppercase","750000","0","3","f612ab79159890898a64e419187dedcaa0018d17adf9b3260b6e8b3b3c42b28f","750004.5999999046","1127.5","77","1","arctic","","","","",""
"dual-task","null","null","null","","swim","arctic","965.7999999523163","","a","null","88","88","1","arctic-dual-task","","a","lowercase","758000","0","3","f612ab79159890898a64e419187dedcaa0018d17adf9b3260b6e8b3b3c42b28f","758004.399999857","965.7999999523163","88","1","arctic","","","","",""
"dual-task","null","null","null","","swim","arctic","839.4000000953674","","E","null","77","77","1","arctic-dual-task","","E","uppercase","772000","0","3","f612ab79159890898a64e419187dedcaa0018d17adf9b3260b6e8b3b3c42b28f","772017.899999857","839.4000000953674","77","1","arctic","","","","",""
"dual-task","null","null","null","","swim","arctic","386.40000009536743","","h","null","88","88","1","arctic-dual-task","","h","lowercase","782000","0","3","f612ab79159890898a64e419187dedcaa0018d17adf9b3260b6e8b3b3c42b28f","782071.5999999046","386.40000009536743","88","1","arctic","","","","",""
"audio-keyboard-response","62","1965285","0.0-7.0-2.0-1.0","f612ab79159890898a64e419187dedcaa0018d17adf9b3260b6e8b3b3c42b28f","swim","arctic","null","","audio/story_arctic_scrambled.mp3","","null","","","","","","","","","","","","","","","","","","","",""
"html-button-response","63","1968823","0.0-7.0-2.0-2.0","f612ab79159890898a64e419187dedcaa0018d17adf9b3260b6e8b3b3c42b28f","swim","arctic","3535","","<p>This concludes the story. Thank you for listening.</p><p>You will now answer some questions about the content of the story.</p>","0","","","","","","","","","","","","","","","","","","","","",""
"survey-multi-choice","64","1981308","0.0-7.0-2.0-3.0-0.0","f612ab79159890898a64e419187dedcaa0018d17adf9b3260b6e8b3b3c42b28f","swim","arctic","12476","","<b>What did the narrator do for leisure while in her tent?</b>","","","","0","arctic-comprehension","","","","","","","","","","","","","{""Q0"":""Take photos""}","","","",""
"survey-multi-choice","65","1989620","0.0-7.0-2.0-3.0-0.1","f612ab79159890898a64e419187dedcaa0018d17adf9b3260b6e8b3b3c42b28f","swim","arctic","8031","","<b>Which dog on the narrator&#39;s dog team never followed instructions?</b>","","","","1","arctic-comprehension","","","","","","","","","","","","","{""Q0"":""Robert""}","","","",""
"survey-multi-choice","66","1995529","0.0-7.0-2.0-3.0-0.2","f612ab79159890898a64e419187dedcaa0018d17adf9b3260b6e8b3b3c42b28f","swim","arctic","5641","","<b>How did the narrator prepare for her expedition?</b>","","","","1","arctic-comprehension","","","","","","","","","","","","","{""Q0"":""Trained in Alaska learning how to dogsled""}","","","",""
"survey-multi-choice","67","1999117","0.0-7.0-2.0-3.0-0.3","f612ab79159890898a64e419187dedcaa0018d17adf9b3260b6e8b3b3c42b28f","swim","arctic","3319","","<b>What is the name of the narrator&#39;s neighbour?</b>","","","","1","arctic-comprehension","","","","","","","","","","","","","{""Q0"":""Dave""}","","","",""
"survey-multi-choice","68","2006556","0.0-7.0-2.0-3.0-0.4","f612ab79159890898a64e419187dedcaa0018d17adf9b3260b6e8b3b3c42b28f","swim","arctic","7177","","<b>What were the weather conditions in the Arctic like the winter of the narrator&#39;s expedition?</b>","","","","0","arctic-comprehension","","","","","","","","","","","","","{""Q0"":""It was the coldest winter in recorded history.""}","","","",""
"survey-multi-choice","69","2011627","0.0-7.0-2.0-3.0-0.5","f612ab79159890898a64e419187dedcaa0018d17adf9b3260b6e8b3b3c42b28f","swim","arctic","4804","","<b>What was the objective of the narrator&#39;s expedition?</b>","","","","1","arctic-comprehension","","","","","","","","","","","","","{""Q0"":""Dogsled across Arctic America""}","","","",""
"survey-multi-choice","70","2019578","0.0-7.0-2.0-3.0-0.6","f612ab79159890898a64e419187dedcaa0018d17adf9b3260b6e8b3b3c42b28f","swim","arctic","7678","","<b>How did the narrator&#39;s encounter with the polar bears end?</b>","","","","1","arctic-comprehension","","","","","","","","","","","","","{""Q0"":""The bears walked back to their den.""}","","","",""
"survey-multi-choice","71","2027153","0.0-7.0-2.0-3.0-0.7","f612ab79159890898a64e419187dedcaa0018d17adf9b3260b6e8b3b3c42b28f","swim","arctic","7301","","<b>How did the dogs respond when they saw the bears?</b>","","","","1","arctic-comprehension","","","","","","","","","","","","","{""Q0"":""Approached them""}","","","",""
"survey-multi-choice","72","2034815","0.0-7.0-2.0-3.0-0.8","f612ab79159890898a64e419187dedcaa0018d17adf9b3260b6e8b3b3c42b28f","swim","arctic","7387","","<b>How did the narrator&#39;s neighbour respond when she told him about her expedition?</b>","","","","1","arctic-comprehension","","","","","","","","","","","","","{""Q0"":""He said she was going to fail.""}","","","",""
"survey-multi-choice","73","2038738","0.0-7.0-2.0-3.0-0.9","f612ab79159890898a64e419187dedcaa0018d17adf9b3260b6e8b3b3c42b28f","swim","arctic","3659","","<b>How many sponsorships did the narrator receive to support her expedition?</b>","","","","1","arctic-comprehension","","","","","","","","","","","","","{""Q0"":""None""}","","","",""
"html-button-response","74","2040114","0.0-7.0-2.0-4.0","f612ab79159890898a64e419187dedcaa0018d17adf9b3260b6e8b3b3c42b28f","swim","arctic","1121","","<p>Thank you for your responses.</p><p>You will now answer some questions about your impressions of the story.</p>","0","","","","","","","","","","","","","","","","","","","","",""
"html-button-response","75","2043431","0.0-7.0-2.0-5.0-0.0","f612ab79159890898a64e419187dedcaa0018d17adf9b3260b6e8b3b3c42b28f","swim","arctic","3313","","EE1","1","","","","arctic-engagement","","","","","","","","","","","","","","2","emo-engage","",""
"html-button-response","76","2045650","0.0-7.0-2.0-5.0-0.1","f612ab79159890898a64e419187dedcaa0018d17adf9b3260b6e8b3b3c42b28f","swim","arctic","1955","","A4","0","","","","arctic-engagement","","","","","","","","","","","","","","1","absorption","",""
"html-button-response","77","2047263","0.0-7.0-2.0-5.0-0.2","f612ab79159890898a64e419187dedcaa0018d17adf9b3260b6e8b3b3c42b28f","swim","arctic","1349","","MS1","0","","","","arctic-engagement","","","","","","","","","","","","","","1","mental-sim","",""
"html-button-response","78","2049599","0.0-7.0-2.0-5.0-0.3","f612ab79159890898a64e419187dedcaa0018d17adf9b3260b6e8b3b3c42b28f","swim","arctic","2058","","E6","0","","","","arctic-engagement","","","","","","","","","","","","","","1","enjoyment","",""
"html-button-response","79","2052327","0.0-7.0-2.0-5.0-0.4","f612ab79159890898a64e419187dedcaa0018d17adf9b3260b6e8b3b3c42b28f","swim","arctic","2469","","E8","0","","","","arctic-engagement","","","","","","","","","","","","","","1","enjoyment","",""
"html-button-response","80","2053938","0.0-7.0-2.0-5.0-0.5","f612ab79159890898a64e419187dedcaa0018d17adf9b3260b6e8b3b3c42b28f","swim","arctic","1357","","EE3","0","","","","arctic-engagement","","","","","","","","","","","","","","1","emo-engage","",""
"html-button-response","81","2056214","0.0-7.0-2.0-5.0-0.6","f612ab79159890898a64e419187dedcaa0018d17adf9b3260b6e8b3b3c42b28f","swim","arctic","2017","","EE2","0","","","","arctic-engagement","","","","","","","","","","","","","","1","emo-engage","",""
"html-button-response","82","2058435","0.0-7.0-2.0-5.0-0.7","f612ab79159890898a64e419187dedcaa0018d17adf9b3260b6e8b3b3c42b28f","swim","arctic","1966","","EE5","0","","","","arctic-engagement","","","","","","","","","","","","","","1","emo-engage","",""
"html-button-response","83","2061329","0.0-7.0-2.0-5.0-0.8","f612ab79159890898a64e419187dedcaa0018d17adf9b3260b6e8b3b3c42b28f","swim","arctic","2638","","MS2","0","","","","arctic-engagement","","","","","","","","","","","","","","1","mental-sim","",""
"html-button-response","84","2064478","0.0-7.0-2.0-5.0-0.9","f612ab79159890898a64e419187dedcaa0018d17adf9b3260b6e8b3b3c42b28f","swim","arctic","2887","","A5","0","","","","arctic-engagement","","","","","","","","","","","","","","1","absorption","",""
"html-button-response","85","2066398","0.0-7.0-2.0-5.0-0.10","f612ab79159890898a64e419187dedcaa0018d17adf9b3260b6e8b3b3c42b28f","swim","arctic","1660","","E10","0","","","","arctic-engagement","","","","","","","","","","","","","","1","enjoyment","",""
"html-button-response","86","2071220","0.0-7.0-2.0-5.0-0.11","f612ab79159890898a64e419187dedcaa0018d17adf9b3260b6e8b3b3c42b28f","swim","arctic","4564","","EE4","0","","","","arctic-engagement","","","","","","","","","","","","","","1","emo-engage","",""
"html-button-response","87","2078507","0.0-7.0-2.0-5.0-0.12","f612ab79159890898a64e419187dedcaa0018d17adf9b3260b6e8b3b3c42b28f","swim","arctic","7027","","A2","0","","","","arctic-engagement","","","","","","","","","","","","","","1","absorption","",""
"html-button-response","88","2083655","0.0-7.0-2.0-5.0-0.13","f612ab79159890898a64e419187dedcaa0018d17adf9b3260b6e8b3b3c42b28f","swim","arctic","4887","","E7","0","","","","arctic-engagement","","","","","","","","","","","","","","1","enjoyment","",""
"html-button-response","89","2087598","0.0-7.0-2.0-5.0-0.14","f612ab79159890898a64e419187dedcaa0018d17adf9b3260b6e8b3b3c42b28f","swim","arctic","3672","","MS3","0","","","","arctic-engagement","","","","","","","","","","","","","","1","mental-sim","",""
"html-button-response","90","2089835","0.0-7.0-2.0-5.0-0.15","f612ab79159890898a64e419187dedcaa0018d17adf9b3260b6e8b3b3c42b28f","swim","arctic","1975","","A3","0","","","","arctic-engagement","","","","","","","","","","","","","","1","absorption","",""
"html-button-response","91","2104114","0.0-7.0-2.0-5.0-0.16","f612ab79159890898a64e419187dedcaa0018d17adf9b3260b6e8b3b3c42b28f","swim","arctic","14024","","A1","0","","","","arctic-engagement","","","","","","","","","","","","","","1","absorption","",""
"html-button-response","92","2106240","0.0-7.0-2.0-5.0-0.17","f612ab79159890898a64e419187dedcaa0018d17adf9b3260b6e8b3b3c42b28f","swim","arctic","1872","","E1","0","","","","arctic-engagement","","","","","","","","","","","","","","1","enjoyment","",""
"html-button-response","93","2108163","0.0-8.0","f612ab79159890898a64e419187dedcaa0018d17adf9b3260b6e8b3b3c42b28f","swim","arctic","1669","","<p>Thank you for your responses.</p><p>You will now answer some demographic, hearing, and general health questions.</p>","0","","","","","","","","","","","","","","","","","","","","",""
"survey-multi-choice","94","2111585","0.0-9.0-0.0","f612ab79159890898a64e419187dedcaa0018d17adf9b3260b6e8b3b3c42b28f","swim","arctic","3418","","","","","","","survey","","","","","","","","","","","","","{""Q0"":""Chrome""}","","","browser",""
"survey-text","95","2115084","0.0-9.0-1.0","f612ab79159890898a64e419187dedcaa0018d17adf9b3260b6e8b3b3c42b28f","swim","arctic","3229","","","","","","","survey","","","","","","","","","","","","","{""AGE"":""35""}","","","age","35"
"survey-multi-choice","96","2118042","0.0-9.0-2.0","f612ab79159890898a64e419187dedcaa0018d17adf9b3260b6e8b3b3c42b28f","swim","arctic","2699","","","","","","","survey","","","","","","","","","","","","","{""Q0"":""Female""}","","","gender","Female"
"survey-multi-choice","97","2120579","0.0-9.0-4.0","f612ab79159890898a64e419187dedcaa0018d17adf9b3260b6e8b3b3c42b28f","swim","arctic","2277","","","","","","","survey","","","","","","","","","","","","","{""Q0"":""Right""}","","","handedness","Right"
"survey-multi-choice","98","2123044","0.0-9.0-5.0","f612ab79159890898a64e419187dedcaa0018d17adf9b3260b6e8b3b3c42b28f","swim","arctic","2195","","","","","","","survey","","","","","","","","","","","","","{""Q0"":""Postgraduate Degree""}","","","education","Postgraduate Degree"
"survey-text","99","2136767","0.0-10.0-0.0","f612ab79159890898a64e419187dedcaa0018d17adf9b3260b6e8b3b3c42b28f","swim","arctic","13410.900000095367","","","","","","","survey","","","","","","","","","","","","","{""L1"":""English""}","","","first-language","English"
"survey-text","100","2140696","0.0-10.0-1.0","f612ab79159890898a64e419187dedcaa0018d17adf9b3260b6e8b3b3c42b28f","swim","arctic","3650","","","","","","","survey","","","","","","","","","","","","","{""L2name"":"""",""L2fluency"":"""",""L3name"":"""",""L3fluency"":"""",""L4name"":"""",""L4fluency"":""""}","","","additional-languages","{""L2name"":"""",""L2fluency"":"""",""L3name"":"""",""L3fluency"":"""",""L4name"":"""",""L4fluency"":""""}"
"survey-multi-choice","101","2143161","0.0-10.0-2.0","f612ab79159890898a64e419187dedcaa0018d17adf9b3260b6e8b3b3c42b28f","swim","arctic","2202","","","","","","","survey","","","","","","","","","","","","","{""Q0"":""No""}","","","hearing-aid","No"
"survey-multi-choice","102","2145478","0.0-10.0-3.0","f612ab79159890898a64e419187dedcaa0018d17adf9b3260b6e8b3b3c42b28f","swim","arctic","2059","","","","","","","survey","","","","","","","","","","","","","{""Q0"":""Never""}","","","ringing-ears","Never"
"survey-multi-choice","103","2147997","0.0-10.0-5.0","f612ab79159890898a64e419187dedcaa0018d17adf9b3260b6e8b3b3c42b28f","swim","arctic","2261","","","","","","","survey","","","","","","","","","","","","","{""Q0"":""No""}","","","neuro-disease","No"
"survey-multi-choice","104","2150874","0.0-10.0-7.0","f612ab79159890898a64e419187dedcaa0018d17adf9b3260b6e8b3b3c42b28f","swim","arctic","2616","","","","","","","survey","","","","","","","","","","","","","{""Q0"":""No""}","","","take-meds","No"
"survey-text","105","2153181","0.0-10.0-9.0","f612ab79159890898a64e419187dedcaa0018d17adf9b3260b6e8b3b3c42b28f","swim","arctic","1987.1000001430511","","","","","","","survey","","","","","","","","","","","","","{""HC"":""""}","","","health-concerns",""
"html-button-response","106","2158043","0.0-11.0-0.0","f612ab79159890898a64e419187dedcaa0018d17adf9b3260b6e8b3b3c42b28f","swim","arctic","4605","","<p>How would you describe your musical skills/experiences?</p>","2","","","","survey","","","","","","","","","","","","","","","","music-skill","3"
"survey-multi-choice","107","2161028","0.0-11.0-1.0","f612ab79159890898a64e419187dedcaa0018d17adf9b3260b6e8b3b3c42b28f","swim","arctic","2724","","","","","","","survey","","","","","","","","","","","","","{""Q0"":""Yes""}","","","music-instrument","Yes"
"survey-text","108","2164623","0.0-11.0-2.0-0.0","f612ab79159890898a64e419187dedcaa0018d17adf9b3260b6e8b3b3c42b28f","swim","arctic","3304.5999999046326","","","","","","","survey","","","","","","","","","","","","","{""MEXP"":""6""}","","","music-training-yrs","6"
"html-button-response","109","2166613","0.0-12.0-0.0","f612ab79159890898a64e419187dedcaa0018d17adf9b3260b6e8b3b3c42b28f","swim","arctic","1731","","<p>How would you describe your general hearing abilities?</p>","5","","","","survey","","","","","","","","","","","","","","","","ssq-01","6"
"html-button-response","110","2173792","0.0-12.0-1.0","f612ab79159890898a64e419187dedcaa0018d17adf9b3260b6e8b3b3c42b28f","swim","arctic","6923","","<p>When you talk with someone at a place that strongly reverberates/echoes (e.g., in a church or train station),</br>can you understand what the person says?</p>","9","","","","survey","","","","","","","","","","","","","","","","ssq-02","9"
"html-button-response","111","2177277","0.0-12.0-2.0","f612ab79159890898a64e419187dedcaa0018d17adf9b3260b6e8b3b3c42b28f","swim","arctic","3225","","<p>When you are with a group (~5 people) in a lively restaurant, can you follow the group's conversation?</p>","9","","","","survey","","","","","","","","","","","","","","","","ssq-03","9"
"html-button-response","112","2181705","0.0-12.0-3.0","f612ab79159890898a64e419187dedcaa0018d17adf9b3260b6e8b3b3c42b28f","swim","arctic","4164","","<p>Based on the sound of a bus or truck, can you tell whether it is moving towards or away from you?</p>","8","","","","survey","","","","","","","","","","","","","","","","ssq-04","8"
"html-button-response","113","2184731","0.0-12.0-4.0","f612ab79159890898a64e419187dedcaa0018d17adf9b3260b6e8b3b3c42b28f","swim","arctic","2765","","<p>When you are in an unknown environment, can you tell from which direction a brief sound originates?</p>","7","","","","survey","","","","","","","","","","","","","","","","ssq-05","7"
"html-button-response","114","2187181","0.0-12.0-5.0","f612ab79159890898a64e419187dedcaa0018d17adf9b3260b6e8b3b3c42b28f","swim","arctic","2194","","<p>Are you able to ignore distracting sounds when you concentrate on a specific aspect of your acoustic surrounding?</p>","8","","","","survey","","","","","","","","","","","","","","","","ssq-06","8"
"fullscreen","115","2188445","0.0-13.0","f612ab79159890898a64e419187dedcaa0018d17adf9b3260b6e8b3b3c42b28f","swim","arctic","","","","","","","","","true","","","","","","","","","","","","","","","",""
