"trial_type","trial_index","time_elapsed","internal_node_id","ParticipantID","firstStory","scramStory","rt","url","stimulus","button_pressed","key_press","correctRESP","correct","designation","success","letterStim","letterType","ONSET","TIMEOUT","CONDITION","Participant","ONSET_ACTUAL","RT","RESP","ACC","STORY","responses","response","type","surveyQuestion","QRESP"
"pavlovia","0","9","0.0-0.0","941e42086134af220e28caa46099a2d136b0c01f75ebd235f25b74ff1093848d","swim","swim","","","","","","","","","","","","","","","","","","","","","","","","",""
"external-html","1","14112","0.0-1.0","941e42086134af220e28caa46099a2d136b0c01f75ebd235f25b74ff1093848d","swim","swim","13274","consent/consent_updated.html","","","","","","","","","","","","","","","","","","","","","","",""
"html-button-response","2","519132","0.0-2.0-0.0","941e42086134af220e28caa46099a2d136b0c01f75ebd235f25b74ff1093848d","swim","swim","505018","","<p>Before we begin the main task, you will complete a short volume calibration and headphone check.</p><p>Please make sure you are in a quiet listening environment, that you are wearing headphones, and that your computer's volume is turned on.<p></p>","0","","","","","","","","","","","","","","","","","","","","",""
"html-button-response","3","523105","0.0-2.0-1.0","941e42086134af220e28caa46099a2d136b0c01f75ebd235f25b74ff1093848d","swim","swim","3720","","<p>The volume calibration will be first.</p><p>You will hear a thirty-second noise. Please adjust your computer's volume so that this noise is being presented at a comfortable level.<p></p>","0","","","","","","","","","","","","","","","","","","","","",""
"audio-button-response","4","530632","0.0-2.0-2.0","941e42086134af220e28caa46099a2d136b0c01f75ebd235f25b74ff1093848d","swim","swim","7276","","audio/volumetest.mp3","0","","","","","","","","","","","","","","","","","","","","",""
"html-keyboard-response","5","538611","0.0-3.0-0.0","941e42086134af220e28caa46099a2d136b0c01f75ebd235f25b74ff1093848d","swim","swim","7977","","<p>You will now complete a short headphone check.</p><p>On each trial, you will hear three tones. One of these tones will be quieter than the others. Your task is to identify whether the quiet tone occurred first, second, or third.</p><p>There are six trials in total.<p></p><p></p>(Press SPACEBAR to begin)","","32","","","","","","","","","","","","","","","","","","","",""
"html-keyboard-response","6","539363","0.0-3.0-1.0-0.0","941e42086134af220e28caa46099a2d136b0c01f75ebd235f25b74ff1093848d","swim","swim","null","","<div style=""font-size:60px;"">+</div>","","null","","","","","","","","","","","","","","","","","","","",""
"audio-button-response","7","544057","0.0-3.0-1.0-1.0","941e42086134af220e28caa46099a2d136b0c01f75ebd235f25b74ff1093848d","swim","swim","4692","","audio/t1_1.mp3","0","","0","1","headphone-test","","","","","","","","","","","","","","","","",""
"html-keyboard-response","8","544558","0.0-3.0-1.0-2.0","941e42086134af220e28caa46099a2d136b0c01f75ebd235f25b74ff1093848d","swim","swim","null","","<p>Correct</p>","","null","","","","","","","","","","","","","","","","","","","",""
"html-keyboard-response","9","545060","0.0-3.0-1.0-0.1","941e42086134af220e28caa46099a2d136b0c01f75ebd235f25b74ff1093848d","swim","swim","null","","<div style=""font-size:60px;"">+</div>","","null","","","","","","","","","","","","","","","","","","","",""
"audio-button-response","10","549618","0.0-3.0-1.0-1.1","941e42086134af220e28caa46099a2d136b0c01f75ebd235f25b74ff1093848d","swim","swim","4557","","audio/t1_2.mp3","0","","0","1","headphone-test","","","","","","","","","","","","","","","","",""
"html-keyboard-response","11","550119","0.0-3.0-1.0-2.1","941e42086134af220e28caa46099a2d136b0c01f75ebd235f25b74ff1093848d","swim","swim","null","","<p>Correct</p>","","null","","","","","","","","","","","","","","","","","","","",""
"html-keyboard-response","12","550620","0.0-3.0-1.0-0.2","941e42086134af220e28caa46099a2d136b0c01f75ebd235f25b74ff1093848d","swim","swim","null","","<div style=""font-size:60px;"">+</div>","","null","","","","","","","","","","","","","","","","","","","",""
"audio-button-response","13","555907","0.0-3.0-1.0-1.2","941e42086134af220e28caa46099a2d136b0c01f75ebd235f25b74ff1093848d","swim","swim","5285","","audio/t3_1.mp3","2","","2","1","headphone-test","","","","","","","","","","","","","","","","",""
"html-keyboard-response","14","556408","0.0-3.0-1.0-2.2","941e42086134af220e28caa46099a2d136b0c01f75ebd235f25b74ff1093848d","swim","swim","null","","<p>Correct</p>","","null","","","","","","","","","","","","","","","","","","","",""
"html-keyboard-response","15","556909","0.0-3.0-1.0-0.3","941e42086134af220e28caa46099a2d136b0c01f75ebd235f25b74ff1093848d","swim","swim","null","","<div style=""font-size:60px;"">+</div>","","null","","","","","","","","","","","","","","","","","","","",""
"audio-button-response","16","561516","0.0-3.0-1.0-1.3","941e42086134af220e28caa46099a2d136b0c01f75ebd235f25b74ff1093848d","swim","swim","4605","","audio/t3_2.mp3","2","","2","1","headphone-test","","","","","","","","","","","","","","","","",""
"html-keyboard-response","17","562018","0.0-3.0-1.0-2.3","941e42086134af220e28caa46099a2d136b0c01f75ebd235f25b74ff1093848d","swim","swim","null","","<p>Correct</p>","","null","","","","","","","","","","","","","","","","","","","",""
"html-keyboard-response","18","562518","0.0-3.0-1.0-0.4","941e42086134af220e28caa46099a2d136b0c01f75ebd235f25b74ff1093848d","swim","swim","null","","<div style=""font-size:60px;"">+</div>","","null","","","","","","","","","","","","","","","","","","","",""
"audio-button-response","19","566722","0.0-3.0-1.0-1.4","941e42086134af220e28caa46099a2d136b0c01f75ebd235f25b74ff1093848d","swim","swim","4201","","audio/t2_1.mp3","1","","1","1","headphone-test","","","","","","","","","","","","","","","","",""
"html-keyboard-response","20","567224","0.0-3.0-1.0-2.4","941e42086134af220e28caa46099a2d136b0c01f75ebd235f25b74ff1093848d","swim","swim","null","","<p>Correct</p>","","null","","","","","","","","","","","","","","","","","","","",""
"html-keyboard-response","21","567725","0.0-3.0-1.0-0.5","941e42086134af220e28caa46099a2d136b0c01f75ebd235f25b74ff1093848d","swim","swim","null","","<div style=""font-size:60px;"">+</div>","","null","","","","","","","","","","","","","","","","","","","",""
"audio-button-response","22","571604","0.0-3.0-1.0-1.5","941e42086134af220e28caa46099a2d136b0c01f75ebd235f25b74ff1093848d","swim","swim","3877","","audio/t2_2.mp3","1","","1","1","headphone-test","","","","","","","","","","","","","","","","",""
"html-keyboard-response","23","572105","0.0-3.0-1.0-2.5","941e42086134af220e28caa46099a2d136b0c01f75ebd235f25b74ff1093848d","swim","swim","null","","<p>Correct</p>","","null","","","","","","","","","","","","","","","","","","","",""
"fullscreen","24","574493","0.0-4.0","941e42086134af220e28caa46099a2d136b0c01f75ebd235f25b74ff1093848d","swim","swim","","","","","","","","","true","","","","","","","","","","","","","","","",""
"html-button-response","25","580010","0.0-5.0-0.0","941e42086134af220e28caa46099a2d136b0c01f75ebd235f25b74ff1093848d","swim","swim","5515","","<p>There are two blocks to this experiment.</p><p>In each block, you will hear a ~13.5 minute story. One of the stories will be scrambled. Please listen carefully to both stories and understand them as best you can.</p><p>After each story, you will be asked some questions to assess your comprehension.</p>","0","","","","","","","","","","","","","","","","","","","","",""
"html-button-response","26","591644","0.0-5.0-1.0","941e42086134af220e28caa46099a2d136b0c01f75ebd235f25b74ff1093848d","swim","swim","11633","","<p>During each story, there will be an additional task.</p><p>A letter will occasionally appear on the screen.</br>Your job is to - as quickly as you can - decide whether the letter is lowercase or uppercase and press one of two keys on the keyboard:</p><p>If the letter is <b>lowercase</b>, press key &lt;<b>x</b>&gt;.</p><p>If the letter is <b>uppercase</b>, press key &lt;<b>m</b>&gt;.</p>","0","","","","","","","","","","","","","","","","","","","","",""
"html-keyboard-response","27","599200","0.0-5.0-2.0","941e42086134af220e28caa46099a2d136b0c01f75ebd235f25b74ff1093848d","swim","swim","7555","","<p>Because we want your responses to be as quick as possible, please keep your index fingers over the keys while listening.</p><p>Each block lasts about 20 minutes.</p><p><b>Press &lt;x&gt; or &lt;m&gt; to start the first block!</b></p>","","77","","","","","","","","","","","","","","","","","","","",""
"html-keyboard-response","28","599701","0.0-7.0-0.0-0.0","941e42086134af220e28caa46099a2d136b0c01f75ebd235f25b74ff1093848d","swim","swim","null","","<div style=""font-size:60px;"" tabindex=""0"">+</div>","","null","","","","","","","","","","","","","","","","","","","",""
"dual-task","null","null","null","","swim","swim","716.6000000089407","","t","null","88","88","1","swim-dual-task","","t","lowercase","12000","0","2","941e42086134af220e28caa46099a2d136b0c01f75ebd235f25b74ff1093848d","11999.79999999702","716.6000000089407","88","1","swim","","","","",""
"dual-task","null","null","null","","swim","swim","493.20000000298023","","h","null","88","88","1","swim-dual-task","","h","lowercase","24000","0","2","941e42086134af220e28caa46099a2d136b0c01f75ebd235f25b74ff1093848d","23999.29999999702","493.20000000298023","88","1","swim","","","","",""
"dual-task","null","null","null","","swim","swim","657.5","","e","null","88","88","1","swim-dual-task","","e","lowercase","34000","0","2","941e42086134af220e28caa46099a2d136b0c01f75ebd235f25b74ff1093848d","33999.20000000298","657.5","88","1","swim","","","","",""
"dual-task","null","null","null","","swim","swim","617.4000000059605","","B","null","77","77","1","swim-dual-task","","B","uppercase","42000","0","2","941e42086134af220e28caa46099a2d136b0c01f75ebd235f25b74ff1093848d","41999.20000000298","617.4000000059605","77","1","swim","","","","",""
"dual-task","null","null","null","","swim","swim","434.40000000596046","","h","null","88","88","1","swim-dual-task","","h","lowercase","50000","0","2","941e42086134af220e28caa46099a2d136b0c01f75ebd235f25b74ff1093848d","49999.10000000894","434.40000000596046","88","1","swim","","","","",""
"dual-task","null","null","null","","swim","swim","537.5","","H","null","77","77","1","swim-dual-task","","H","uppercase","58000","0","2","941e42086134af220e28caa46099a2d136b0c01f75ebd235f25b74ff1093848d","57999.10000000894","537.5","77","1","swim","","","","",""
"dual-task","null","null","null","","swim","swim","422.5","","G","null","77","77","1","swim-dual-task","","G","uppercase","68000","0","2","941e42086134af220e28caa46099a2d136b0c01f75ebd235f25b74ff1093848d","67999.60000000894","422.5","77","1","swim","","","","",""
"dual-task","null","null","null","","swim","swim","537","","N","null","77","77","1","swim-dual-task","","N","uppercase","78000","0","2","941e42086134af220e28caa46099a2d136b0c01f75ebd235f25b74ff1093848d","77999.20000000298","537","77","1","swim","","","","",""
"dual-task","null","null","null","","swim","swim","513.5","","G","null","77","77","1","swim-dual-task","","G","uppercase","86000","0","2","941e42086134af220e28caa46099a2d136b0c01f75ebd235f25b74ff1093848d","85999.29999999702","513.5","77","1","swim","","","","",""
"dual-task","null","null","null","","swim","swim","459.40000000596046","","R","null","77","77","1","swim-dual-task","","R","uppercase","98000","0","2","941e42086134af220e28caa46099a2d136b0c01f75ebd235f25b74ff1093848d","97999.60000000894","459.40000000596046","77","1","swim","","","","",""
"dual-task","null","null","null","","swim","swim","570.7999999970198","","f","null","88","88","1","swim-dual-task","","f","lowercase","110000","0","2","941e42086134af220e28caa46099a2d136b0c01f75ebd235f25b74ff1093848d","109999.5","570.7999999970198","88","1","swim","","","","",""
"dual-task","null","null","null","","swim","swim","605.3000000119209","","N","null","77","77","1","swim-dual-task","","N","uppercase","118000","0","2","941e42086134af220e28caa46099a2d136b0c01f75ebd235f25b74ff1093848d","117999.60000000894","605.3000000119209","77","1","swim","","","","",""
"dual-task","null","null","null","","swim","swim","503.29999999701977","","D","null","77","77","1","swim-dual-task","","D","uppercase","132000","0","2","941e42086134af220e28caa46099a2d136b0c01f75ebd235f25b74ff1093848d","131999.5","503.29999999701977","77","1","swim","","","","",""
"dual-task","null","null","null","","swim","swim","448","","a","null","88","88","1","swim-dual-task","","a","lowercase","146000","0","2","941e42086134af220e28caa46099a2d136b0c01f75ebd235f25b74ff1093848d","145999.60000000894","448","88","1","swim","","","","",""
"dual-task","null","null","null","","swim","swim","771.8999999910593","","A","null","77","77","1","swim-dual-task","","A","uppercase","154000","0","2","941e42086134af220e28caa46099a2d136b0c01f75ebd235f25b74ff1093848d","153999.60000000894","771.8999999910593","77","1","swim","","","","",""
"dual-task","null","null","null","","swim","swim","816.2000000029802","","q","null","88","88","1","swim-dual-task","","q","lowercase","160000","0","2","941e42086134af220e28caa46099a2d136b0c01f75ebd235f25b74ff1093848d","159999.70000000298","816.2000000029802","88","1","swim","","","","",""
"dual-task","null","null","null","","swim","swim","511.79999999701977","","e","null","88","88","1","swim-dual-task","","e","lowercase","170000","0","2","941e42086134af220e28caa46099a2d136b0c01f75ebd235f25b74ff1093848d","169999.70000000298","511.79999999701977","88","1","swim","","","","",""
"dual-task","null","null","null","","swim","swim","494.80000001192093","","E","null","77","77","1","swim-dual-task","","E","uppercase","182000","0","2","941e42086134af220e28caa46099a2d136b0c01f75ebd235f25b74ff1093848d","181999.70000000298","494.80000001192093","77","1","swim","","","","",""
"dual-task","null","null","null","","swim","swim","888.6999999880791","","Q","null","77","77","1","swim-dual-task","","Q","uppercase","190000","0","2","941e42086134af220e28caa46099a2d136b0c01f75ebd235f25b74ff1093848d","189999.90000000596","888.6999999880791","77","1","swim","","","","",""
"dual-task","null","null","null","","swim","swim","841.4000000059605","","N","null","77","77","1","swim-dual-task","","N","uppercase","202000","0","2","941e42086134af220e28caa46099a2d136b0c01f75ebd235f25b74ff1093848d","201999.70000000298","841.4000000059605","77","1","swim","","","","",""
"dual-task","null","null","null","","swim","swim","482","","G","null","77","77","1","swim-dual-task","","G","uppercase","214000","0","2","941e42086134af220e28caa46099a2d136b0c01f75ebd235f25b74ff1093848d","214000.10000000894","482","77","1","swim","","","","",""
"dual-task","null","null","null","","swim","swim","424.1000000089407","","R","null","77","77","1","swim-dual-task","","R","uppercase","226000","0","2","941e42086134af220e28caa46099a2d136b0c01f75ebd235f25b74ff1093848d","225999.90000000596","424.1000000089407","77","1","swim","","","","",""
"dual-task","null","null","null","","swim","swim","484.3999999910593","","T","null","77","77","1","swim-dual-task","","T","uppercase","234000","0","2","941e42086134af220e28caa46099a2d136b0c01f75ebd235f25b74ff1093848d","234000.10000000894","484.3999999910593","77","1","swim","","","","",""
"dual-task","null","null","null","","swim","swim","1929.5","","a","null","88","88","1","swim-dual-task","","a","lowercase","242000","0","2","941e42086134af220e28caa46099a2d136b0c01f75ebd235f25b74ff1093848d","242000.10000000894","1929.5","88","1","swim","","","","",""
"dual-task","null","null","null","","swim","swim","1513.0999999940395","","T","null","77","77","1","swim-dual-task","","T","uppercase","248000","0","2","941e42086134af220e28caa46099a2d136b0c01f75ebd235f25b74ff1093848d","247999.70000000298","1513.0999999940395","77","1","swim","","","","",""
"dual-task","null","null","null","","swim","swim","838.6000000089407","","d","null","88","88","1","swim-dual-task","","d","lowercase","256000","0","2","941e42086134af220e28caa46099a2d136b0c01f75ebd235f25b74ff1093848d","255999.79999999702","838.6000000089407","88","1","swim","","","","",""
"dual-task","null","null","null","","swim","swim","381.19999998807907","","E","null","77","77","1","swim-dual-task","","E","uppercase","264000","0","2","941e42086134af220e28caa46099a2d136b0c01f75ebd235f25b74ff1093848d","263999.90000000596","381.19999998807907","77","1","swim","","","","",""
"dual-task","null","null","null","","swim","swim","484.5","","b","null","88","88","1","swim-dual-task","","b","lowercase","270000","0","2","941e42086134af220e28caa46099a2d136b0c01f75ebd235f25b74ff1093848d","270000.299999997","484.5","88","1","swim","","","","",""
"dual-task","null","null","null","","swim","swim","458.70000000298023","","q","null","88","88","1","swim-dual-task","","q","lowercase","280000","0","2","941e42086134af220e28caa46099a2d136b0c01f75ebd235f25b74ff1093848d","279999.90000000596","458.70000000298023","88","1","swim","","","","",""
"dual-task","null","null","null","","swim","swim","515.1000000089407","","R","null","77","77","1","swim-dual-task","","R","uppercase","286000","0","2","941e42086134af220e28caa46099a2d136b0c01f75ebd235f25b74ff1093848d","286000.200000003","515.1000000089407","77","1","swim","","","","",""
"dual-task","null","null","null","","swim","swim","423.5","","g","null","88","88","1","swim-dual-task","","g","lowercase","294000","0","2","941e42086134af220e28caa46099a2d136b0c01f75ebd235f25b74ff1093848d","294000.299999997","423.5","88","1","swim","","","","",""
"dual-task","null","null","null","","swim","swim","498.59999999403954","","a","null","88","88","1","swim-dual-task","","a","lowercase","306000","0","2","941e42086134af220e28caa46099a2d136b0c01f75ebd235f25b74ff1093848d","305999.799999997","498.59999999403954","88","1","swim","","","","",""
"dual-task","null","null","null","","swim","swim","568.2000000029802","","F","null","77","77","1","swim-dual-task","","F","uppercase","314000","0","2","941e42086134af220e28caa46099a2d136b0c01f75ebd235f25b74ff1093848d","314000.700000003","568.2000000029802","77","1","swim","","","","",""
"dual-task","null","null","null","","swim","swim","478.29999999701977","","E","null","77","77","1","swim-dual-task","","E","uppercase","326000","0","2","941e42086134af220e28caa46099a2d136b0c01f75ebd235f25b74ff1093848d","326000","478.29999999701977","77","1","swim","","","","",""
"dual-task","null","null","null","","swim","swim","467.79999999701977","","g","null","88","88","1","swim-dual-task","","g","lowercase","338000","0","2","941e42086134af220e28caa46099a2d136b0c01f75ebd235f25b74ff1093848d","338001.299999997","467.79999999701977","88","1","swim","","","","",""
"dual-task","null","null","null","","swim","swim","499.6000000089407","","R","null","77","77","1","swim-dual-task","","R","uppercase","348000","0","2","941e42086134af220e28caa46099a2d136b0c01f75ebd235f25b74ff1093848d","348000.200000003","499.6000000089407","77","1","swim","","","","",""
"dual-task","null","null","null","","swim","swim","448.79999999701977","","A","null","77","77","1","swim-dual-task","","A","uppercase","356000","0","2","941e42086134af220e28caa46099a2d136b0c01f75ebd235f25b74ff1093848d","356000.200000003","448.79999999701977","77","1","swim","","","","",""
"dual-task","null","null","null","","swim","swim","571.2999999970198","","D","null","77","77","1","swim-dual-task","","D","uppercase","364000","0","2","941e42086134af220e28caa46099a2d136b0c01f75ebd235f25b74ff1093848d","364000","571.2999999970198","77","1","swim","","","","",""
"dual-task","null","null","null","","swim","swim","519.2000000029802","","N","null","77","77","1","swim-dual-task","","N","uppercase","376000","0","2","941e42086134af220e28caa46099a2d136b0c01f75ebd235f25b74ff1093848d","376000","519.2000000029802","77","1","swim","","","","",""
"dual-task","null","null","null","","swim","swim","569","","Q","null","77","77","1","swim-dual-task","","Q","uppercase","384000","0","2","941e42086134af220e28caa46099a2d136b0c01f75ebd235f25b74ff1093848d","384000","569","77","1","swim","","","","",""
"dual-task","null","null","null","","swim","swim","737","","r","null","88","88","1","swim-dual-task","","r","lowercase","394000","0","2","941e42086134af220e28caa46099a2d136b0c01f75ebd235f25b74ff1093848d","393999.90000000596","737","88","1","swim","","","","",""
"dual-task","null","null","null","","swim","swim","442.6000000089407","","F","null","77","77","1","swim-dual-task","","F","uppercase","404000","0","2","941e42086134af220e28caa46099a2d136b0c01f75ebd235f25b74ff1093848d","403999.90000000596","442.6000000089407","77","1","swim","","","","",""
"dual-task","null","null","null","","swim","swim","641.6000000089407","","n","null","88","88","1","swim-dual-task","","n","lowercase","410000","0","2","941e42086134af220e28caa46099a2d136b0c01f75ebd235f25b74ff1093848d","410000.200000003","641.6000000089407","88","1","swim","","","","",""
"dual-task","null","null","null","","swim","swim","454.5","","H","null","77","77","1","swim-dual-task","","H","uppercase","420000","0","2","941e42086134af220e28caa46099a2d136b0c01f75ebd235f25b74ff1093848d","419999.90000000596","454.5","77","1","swim","","","","",""
"dual-task","null","null","null","","swim","swim","521.9000000059605","","B","null","77","77","1","swim-dual-task","","B","uppercase","430000","0","2","941e42086134af220e28caa46099a2d136b0c01f75ebd235f25b74ff1093848d","430000.5","521.9000000059605","77","1","swim","","","","",""
"dual-task","null","null","null","","swim","swim","456.09999999403954","","n","null","88","88","1","swim-dual-task","","n","lowercase","436000","0","2","941e42086134af220e28caa46099a2d136b0c01f75ebd235f25b74ff1093848d","436000.200000003","456.09999999403954","88","1","swim","","","","",""
"dual-task","null","null","null","","swim","swim","515.6999999880791","","A","null","77","77","1","swim-dual-task","","A","uppercase","442000","0","2","941e42086134af220e28caa46099a2d136b0c01f75ebd235f25b74ff1093848d","442000","515.6999999880791","77","1","swim","","","","",""
"dual-task","null","null","null","","swim","swim","538.8999999910593","","H","null","77","77","1","swim-dual-task","","H","uppercase","454000","0","2","941e42086134af220e28caa46099a2d136b0c01f75ebd235f25b74ff1093848d","454000","538.8999999910593","77","1","swim","","","","",""
"dual-task","null","null","null","","swim","swim","518.4000000059605","","A","null","77","77","1","swim-dual-task","","A","uppercase","462000","0","2","941e42086134af220e28caa46099a2d136b0c01f75ebd235f25b74ff1093848d","462000.200000003","518.4000000059605","77","1","swim","","","","",""
"dual-task","null","null","null","","swim","swim","414.20000000298023","","h","null","88","88","1","swim-dual-task","","h","lowercase","476000","0","2","941e42086134af220e28caa46099a2d136b0c01f75ebd235f25b74ff1093848d","476000","414.20000000298023","88","1","swim","","","","",""
"dual-task","null","null","null","","swim","swim","512.2999999970198","","f","null","88","88","1","swim-dual-task","","f","lowercase","490000","0","2","941e42086134af220e28caa46099a2d136b0c01f75ebd235f25b74ff1093848d","490000.299999997","512.2999999970198","88","1","swim","","","","",""
"dual-task","null","null","null","","swim","swim","595.9000000059605","","d","null","88","88","1","swim-dual-task","","d","lowercase","496000","0","2","941e42086134af220e28caa46099a2d136b0c01f75ebd235f25b74ff1093848d","496000.10000000894","595.9000000059605","88","1","swim","","","","",""
"dual-task","null","null","null","","swim","swim","457.5","","F","null","77","77","1","swim-dual-task","","F","uppercase","510000","0","2","941e42086134af220e28caa46099a2d136b0c01f75ebd235f25b74ff1093848d","510000.200000003","457.5","77","1","swim","","","","",""
"dual-task","null","null","null","","swim","swim","445.79999999701977","","q","null","88","88","1","swim-dual-task","","q","lowercase","520000","0","2","941e42086134af220e28caa46099a2d136b0c01f75ebd235f25b74ff1093848d","520000.10000000894","445.79999999701977","88","1","swim","","","","",""
"dual-task","null","null","null","","swim","swim","448","","G","null","77","77","1","swim-dual-task","","G","uppercase","528000","0","2","941e42086134af220e28caa46099a2d136b0c01f75ebd235f25b74ff1093848d","528000.5","448","77","1","swim","","","","",""
"dual-task","null","null","null","","swim","swim","449.20000000298023","","T","null","77","77","1","swim-dual-task","","T","uppercase","540000","0","2","941e42086134af220e28caa46099a2d136b0c01f75ebd235f25b74ff1093848d","540000.200000003","449.20000000298023","77","1","swim","","","","",""
"dual-task","null","null","null","","swim","swim","418.40000000596046","","e","null","88","88","1","swim-dual-task","","e","lowercase","546000","0","2","941e42086134af220e28caa46099a2d136b0c01f75ebd235f25b74ff1093848d","546000.200000003","418.40000000596046","88","1","swim","","","","",""
"dual-task","null","null","null","","swim","swim","389.29999999701977","","f","null","88","88","1","swim-dual-task","","f","lowercase","554000","0","2","941e42086134af220e28caa46099a2d136b0c01f75ebd235f25b74ff1093848d","554000.299999997","389.29999999701977","88","1","swim","","","","",""
"dual-task","null","null","null","","swim","swim","503.30000001192093","","Q","null","77","77","1","swim-dual-task","","Q","uppercase","566000","0","2","941e42086134af220e28caa46099a2d136b0c01f75ebd235f25b74ff1093848d","565999.900000006","503.30000001192093","77","1","swim","","","","",""
"dual-task","null","null","null","","swim","swim","465.29999999701977","","q","null","88","88","1","swim-dual-task","","q","lowercase","578000","0","2","941e42086134af220e28caa46099a2d136b0c01f75ebd235f25b74ff1093848d","578000.1000000089","465.29999999701977","88","1","swim","","","","",""
"dual-task","null","null","null","","swim","swim","459.40000000596046","","T","null","77","77","1","swim-dual-task","","T","uppercase","588000","0","2","941e42086134af220e28caa46099a2d136b0c01f75ebd235f25b74ff1093848d","588000.1000000089","459.40000000596046","77","1","swim","","","","",""
"dual-task","null","null","null","","swim","swim","349.59999999403954","","t","null","88","88","1","swim-dual-task","","t","lowercase","600000","0","2","941e42086134af220e28caa46099a2d136b0c01f75ebd235f25b74ff1093848d","600000","349.59999999403954","88","1","swim","","","","",""
"dual-task","null","null","null","","swim","swim","465","","Q","null","77","77","1","swim-dual-task","","Q","uppercase","610000","0","2","941e42086134af220e28caa46099a2d136b0c01f75ebd235f25b74ff1093848d","610000","465","77","1","swim","","","","",""
"dual-task","null","null","null","","swim","swim","448.70000000298023","","B","null","77","77","1","swim-dual-task","","B","uppercase","622000","0","2","941e42086134af220e28caa46099a2d136b0c01f75ebd235f25b74ff1093848d","622000.299999997","448.70000000298023","77","1","swim","","","","",""
"dual-task","null","null","null","","swim","swim","418.30000001192093","","t","null","88","88","1","swim-dual-task","","t","lowercase","634000","0","2","941e42086134af220e28caa46099a2d136b0c01f75ebd235f25b74ff1093848d","634000","418.30000001192093","88","1","swim","","","","",""
"dual-task","null","null","null","","swim","swim","1110.5","","b","null","88","88","1","swim-dual-task","","b","lowercase","640000","0","2","941e42086134af220e28caa46099a2d136b0c01f75ebd235f25b74ff1093848d","640000.1000000089","1110.5","88","1","swim","","","","",""
"dual-task","null","null","null","","swim","swim","405.80000001192093","","D","null","77","77","1","swim-dual-task","","D","uppercase","652000","0","2","941e42086134af220e28caa46099a2d136b0c01f75ebd235f25b74ff1093848d","652000.200000003","405.80000001192093","77","1","swim","","","","",""
"dual-task","null","null","null","","swim","swim","483.70000000298023","","d","null","88","88","1","swim-dual-task","","d","lowercase","662000","0","2","941e42086134af220e28caa46099a2d136b0c01f75ebd235f25b74ff1093848d","662000.400000006","483.70000000298023","88","1","swim","","","","",""
"dual-task","null","null","null","","swim","swim","490.29999999701977","","b","null","88","88","1","swim-dual-task","","b","lowercase","672000","0","2","941e42086134af220e28caa46099a2d136b0c01f75ebd235f25b74ff1093848d","672000.400000006","490.29999999701977","88","1","swim","","","","",""
"dual-task","null","null","null","","swim","swim","487.79999999701977","","D","null","77","77","1","swim-dual-task","","D","uppercase","682000","0","2","941e42086134af220e28caa46099a2d136b0c01f75ebd235f25b74ff1093848d","682000","487.79999999701977","77","1","swim","","","","",""
"dual-task","null","null","null","","swim","swim","1132.2000000029802","","r","null","88","88","1","swim-dual-task","","r","lowercase","690000","0","2","941e42086134af220e28caa46099a2d136b0c01f75ebd235f25b74ff1093848d","690000.400000006","1132.2000000029802","88","1","swim","","","","",""
"dual-task","null","null","null","","swim","swim","493.5","","d","null","88","88","1","swim-dual-task","","d","lowercase","700000","0","2","941e42086134af220e28caa46099a2d136b0c01f75ebd235f25b74ff1093848d","700000.400000006","493.5","88","1","swim","","","","",""
"dual-task","null","null","null","","swim","swim","492.09999999403954","","E","null","77","77","1","swim-dual-task","","E","uppercase","708000","0","2","941e42086134af220e28caa46099a2d136b0c01f75ebd235f25b74ff1093848d","708000.400000006","492.09999999403954","77","1","swim","","","","",""
"dual-task","null","null","null","","swim","swim","451","","n","null","88","88","1","swim-dual-task","","n","lowercase","716000","0","2","941e42086134af220e28caa46099a2d136b0c01f75ebd235f25b74ff1093848d","716000.400000006","451","88","1","swim","","","","",""
"dual-task","null","null","null","","swim","swim","447.80000001192093","","g","null","88","88","1","swim-dual-task","","g","lowercase","724000","0","2","941e42086134af220e28caa46099a2d136b0c01f75ebd235f25b74ff1093848d","724000.299999997","447.80000001192093","88","1","swim","","","","",""
"dual-task","null","null","null","","swim","swim","526.7999999970198","","B","null","77","77","1","swim-dual-task","","B","uppercase","736000","0","2","941e42086134af220e28caa46099a2d136b0c01f75ebd235f25b74ff1093848d","736000.400000006","526.7999999970198","77","1","swim","","","","",""
"dual-task","null","null","null","","swim","swim","830.5999999940395","","e","null","88","88","1","swim-dual-task","","e","lowercase","744000","0","2","941e42086134af220e28caa46099a2d136b0c01f75ebd235f25b74ff1093848d","744000.400000006","830.5999999940395","88","1","swim","","","","",""
"dual-task","null","null","null","","swim","swim","547.3999999910593","","H","null","77","77","1","swim-dual-task","","H","uppercase","756000","0","2","941e42086134af220e28caa46099a2d136b0c01f75ebd235f25b74ff1093848d","756000.5","547.3999999910593","77","1","swim","","","","",""
"dual-task","null","null","null","","swim","swim","444","","F","null","77","77","1","swim-dual-task","","F","uppercase","768000","0","2","941e42086134af220e28caa46099a2d136b0c01f75ebd235f25b74ff1093848d","768000.400000006","444","77","1","swim","","","","",""
"dual-task","null","null","null","","swim","swim","577.3000000119209","","g","null","88","88","1","swim-dual-task","","g","lowercase","782000","0","2","941e42086134af220e28caa46099a2d136b0c01f75ebd235f25b74ff1093848d","782000.799999997","577.3000000119209","88","1","swim","","","","",""
"dual-task","null","null","null","","swim","swim","534.9000000059605","","h","null","88","88","1","swim-dual-task","","h","lowercase","790000","0","2","941e42086134af220e28caa46099a2d136b0c01f75ebd235f25b74ff1093848d","790000.6000000089","534.9000000059605","88","1","swim","","","","",""
"audio-keyboard-response","29","1409684","0.0-7.0-0.0-1.0","941e42086134af220e28caa46099a2d136b0c01f75ebd235f25b74ff1093848d","swim","swim","null","","audio/story_swim_scrambled.mp3","","null","","","","","","","","","","","","","","","","","","","",""
"html-button-response","30","1432556","0.0-7.0-0.0-2.0","941e42086134af220e28caa46099a2d136b0c01f75ebd235f25b74ff1093848d","swim","swim","22871","","<p>This concludes the story. Thank you for listening.</p><p>You will now answer some questions about the content of the story.</p>","0","","","","","","","","","","","","","","","","","","","","",""
"survey-multi-choice","31","1435796","0.0-7.0-0.0-3.0-0.0","941e42086134af220e28caa46099a2d136b0c01f75ebd235f25b74ff1093848d","swim","swim","3234","","<b>Where is the home of naval aviation?</b>","","","","1","swim-comprehension","","","","","","","","","","","","","{""Q0"":""Pensacola""}","","","",""
"survey-multi-choice","32","1443633","0.0-7.0-0.0-3.0-0.1","941e42086134af220e28caa46099a2d136b0c01f75ebd235f25b74ff1093848d","swim","swim","7583","","<b>How many astronaut candidates reported for duty at the Johnson Space Center?</b>","","","","1","swim-comprehension","","","","","","","","","","","","","{""Q0"":""Forty-four""}","","","",""
"survey-multi-choice","33","1458716","0.0-7.0-0.0-3.0-0.2","941e42086134af220e28caa46099a2d136b0c01f75ebd235f25b74ff1093848d","swim","swim","14829","","<b>How many times did the astronaut candidates have to complete the final exercise to pass?</b>","","","","1","swim-comprehension","","","","","","","","","","","","","{""Q0"":""Two""}","","","",""
"survey-multi-choice","34","1468085","0.0-7.0-0.0-3.0-0.3","941e42086134af220e28caa46099a2d136b0c01f75ebd235f25b74ff1093848d","swim","swim","9114","","<b>What were the astronaut candidates trained to do at the naval air station?</b>","","","","1","swim-comprehension","","","","","","","","","","","","","{""Q0"":""Eject out of aircraft and survive in water long enough to be rescued""}","","","",""
"survey-multi-choice","35","1481027","0.0-7.0-0.0-3.0-0.4","941e42086134af220e28caa46099a2d136b0c01f75ebd235f25b74ff1093848d","swim","swim","12686","","<b>How often does the narrator swim, now that he is a good swimmer?</b>","","","","0","swim-comprehension","","","","","","","","","","","","","{""Q0"":""Occasionally at his cottage""}","","","",""
"survey-multi-choice","36","1486879","0.0-7.0-0.0-3.0-0.5","941e42086134af220e28caa46099a2d136b0c01f75ebd235f25b74ff1093848d","swim","swim","5597","","<b>How many astronaut candidates passed the first swim test?</b>","","","","1","swim-comprehension","","","","","","","","","","","","","{""Q0"":""All of them""}","","","",""
"survey-multi-choice","37","1494200","0.0-7.0-0.0-3.0-0.6","941e42086134af220e28caa46099a2d136b0c01f75ebd235f25b74ff1093848d","swim","swim","7065","","<b>What gave the narrator his greatest feeling of accomplishment?</b>","","","","1","swim-comprehension","","","","","","","","","","","","","{""Q0"":""Passing the water survival course""}","","","",""
"survey-multi-choice","38","1506058","0.0-7.0-0.0-3.0-0.7","941e42086134af220e28caa46099a2d136b0c01f75ebd235f25b74ff1093848d","swim","swim","11603","","<b>How did the narrator train for his swim test?</b>","","","","1","swim-comprehension","","","","","","","","","","","","","{""Q0"":""Took his kids to the pool every day""}","","","",""
"survey-multi-choice","39","1509888","0.0-7.0-0.0-3.0-0.8","941e42086134af220e28caa46099a2d136b0c01f75ebd235f25b74ff1093848d","swim","swim","3576","","<b>What is the narrator afraid of, aside from the water?</b>","","","","1","swim-comprehension","","","","","","","","","","","","","{""Q0"":""Heights""}","","","",""
"survey-multi-choice","40","1527806","0.0-7.0-0.0-3.0-0.9","941e42086134af220e28caa46099a2d136b0c01f75ebd235f25b74ff1093848d","swim","swim","17666","","<b>What was the final step of the first swim test in the pool?</b>","","","","0","swim-comprehension","","","","","","","","","","","","","{""Q0"":""Perform a water rescue""}","","","",""
"html-button-response","41","1530375","0.0-7.0-0.0-4.0","941e42086134af220e28caa46099a2d136b0c01f75ebd235f25b74ff1093848d","swim","swim","2316","","<p>Thank you for your responses.</p><p>You will now answer some questions about your impressions of the story.</p>","0","","","","","","","","","","","","","","","","","","","","",""
"html-button-response","42","1532422","0.0-7.0-0.0-5.0-0.0","941e42086134af220e28caa46099a2d136b0c01f75ebd235f25b74ff1093848d","swim","swim","2045","","EE4","4","","","","swim-engagement","","","","","","","","","","","","","","5","emo-engage","",""
"html-button-response","43","1534321","0.0-7.0-0.0-5.0-0.1","941e42086134af220e28caa46099a2d136b0c01f75ebd235f25b74ff1093848d","swim","swim","1646","","MS1","4","","","","swim-engagement","","","","","","","","","","","","","","5","mental-sim","",""
"html-button-response","44","1537866","0.0-7.0-0.0-5.0-0.2","941e42086134af220e28caa46099a2d136b0c01f75ebd235f25b74ff1093848d","swim","swim","3292","","EE1","2","","","","swim-engagement","","","","","","","","","","","","","","3","emo-engage","",""
"html-button-response","45","1540425","0.0-7.0-0.0-5.0-0.3","941e42086134af220e28caa46099a2d136b0c01f75ebd235f25b74ff1093848d","swim","swim","2307","","A2","4","","","","swim-engagement","","","","","","","","","","","","","","5","absorption","",""
"html-button-response","46","1543230","0.0-7.0-0.0-5.0-0.4","941e42086134af220e28caa46099a2d136b0c01f75ebd235f25b74ff1093848d","swim","swim","2553","","A4","3","","","","swim-engagement","","","","","","","","","","","","","","4","absorption","",""
"html-button-response","47","1545868","0.0-7.0-0.0-5.0-0.5","941e42086134af220e28caa46099a2d136b0c01f75ebd235f25b74ff1093848d","swim","swim","2386","","EE3","3","","","","swim-engagement","","","","","","","","","","","","","","4","emo-engage","",""
"html-button-response","48","1550023","0.0-7.0-0.0-5.0-0.6","941e42086134af220e28caa46099a2d136b0c01f75ebd235f25b74ff1093848d","swim","swim","3901","","MS2","2","","","","swim-engagement","","","","","","","","","","","","","","3","mental-sim","",""
"html-button-response","49","1551823","0.0-7.0-0.0-5.0-0.7","941e42086134af220e28caa46099a2d136b0c01f75ebd235f25b74ff1093848d","swim","swim","1547","","A3","4","","","","swim-engagement","","","","","","","","","","","","","","5","absorption","",""
"html-button-response","50","1555151","0.0-7.0-0.0-5.0-0.8","941e42086134af220e28caa46099a2d136b0c01f75ebd235f25b74ff1093848d","swim","swim","3074","","A1","4","","","","swim-engagement","","","","","","","","","","","","","","5","absorption","",""
"html-button-response","51","1557030","0.0-7.0-0.0-5.0-0.9","941e42086134af220e28caa46099a2d136b0c01f75ebd235f25b74ff1093848d","swim","swim","1626","","E6","4","","","","swim-engagement","","","","","","","","","","","","","","5","enjoyment","",""
"html-button-response","52","1560938","0.0-7.0-0.0-5.0-0.10","941e42086134af220e28caa46099a2d136b0c01f75ebd235f25b74ff1093848d","swim","swim","3654","","MS3","4","","","","swim-engagement","","","","","","","","","","","","","","5","mental-sim","",""
"html-button-response","53","1563515","0.0-7.0-0.0-5.0-0.11","941e42086134af220e28caa46099a2d136b0c01f75ebd235f25b74ff1093848d","swim","swim","2323","","E8","3","","","","swim-engagement","","","","","","","","","","","","","","4","enjoyment","",""
"html-button-response","54","1566124","0.0-7.0-0.0-5.0-0.12","941e42086134af220e28caa46099a2d136b0c01f75ebd235f25b74ff1093848d","swim","swim","2357","","EE2","3","","","","swim-engagement","","","","","","","","","","","","","","4","emo-engage","",""
"html-button-response","55","1569675","0.0-7.0-0.0-5.0-0.13","941e42086134af220e28caa46099a2d136b0c01f75ebd235f25b74ff1093848d","swim","swim","3298","","EE5","4","","","","swim-engagement","","","","","","","","","","","","","","5","emo-engage","",""
"html-button-response","56","1572618","0.0-7.0-0.0-5.0-0.14","941e42086134af220e28caa46099a2d136b0c01f75ebd235f25b74ff1093848d","swim","swim","2690","","A5","3","","","","swim-engagement","","","","","","","","","","","","","","4","absorption","",""
"html-button-response","57","1574291","0.0-7.0-0.0-5.0-0.15","941e42086134af220e28caa46099a2d136b0c01f75ebd235f25b74ff1093848d","swim","swim","1421","","E1","4","","","","swim-engagement","","","","","","","","","","","","","","5","enjoyment","",""
"html-button-response","58","1575893","0.0-7.0-0.0-5.0-0.16","941e42086134af220e28caa46099a2d136b0c01f75ebd235f25b74ff1093848d","swim","swim","1349","","E10","4","","","","swim-engagement","","","","","","","","","","","","","","5","enjoyment","",""
"html-button-response","59","1577884","0.0-7.0-0.0-5.0-0.17","941e42086134af220e28caa46099a2d136b0c01f75ebd235f25b74ff1093848d","swim","swim","1738","","E7","4","","","","swim-engagement","","","","","","","","","","","","","","5","enjoyment","",""
"html-keyboard-response","60","1590670","0.0-7.0-1.0","941e42086134af220e28caa46099a2d136b0c01f75ebd235f25b74ff1093848d","swim","swim","12534","","<p>Thank you for your responses. You will now listen to the second story.</p><p>Remember, as you listen to the story you will see letters appear on the screen.</br>As quickly as possible, press <b>&lt;x&gt;</b> if the letter is lowercase and <b>&lt;m&gt;</b> if the letter is uppercase.</p><p>Press <b>&lt;x&gt;</b> or <b>&lt;m&gt;</b> to begin listening!</p>","","88","","","","","","","","","","","","","","","","","","","",""
"html-keyboard-response","61","1591171","0.0-7.0-2.0-0.0","941e42086134af220e28caa46099a2d136b0c01f75ebd235f25b74ff1093848d","swim","swim","null","","<div style=""font-size:60px;"" tabindex=""0"">+</div>","","null","","","","","","","","","","","","","","","","","","","",""
"dual-task","null","null","null","","swim","swim","379.40000000596046","","t","null","88","88","1","arctic-dual-task","","t","lowercase","12000","0","2","941e42086134af220e28caa46099a2d136b0c01f75ebd235f25b74ff1093848d","11999.40000000596","379.40000000596046","88","1","arctic","","","","",""
"dual-task","null","null","null","","swim","swim","675","","T","null","77","77","1","arctic-dual-task","","T","uppercase","20000","0","2","941e42086134af220e28caa46099a2d136b0c01f75ebd235f25b74ff1093848d","19999.09999999404","675","77","1","arctic","","","","",""
"dual-task","null","null","null","","swim","swim","464.59999999403954","","a","null","88","88","1","arctic-dual-task","","a","lowercase","26000","0","2","941e42086134af220e28caa46099a2d136b0c01f75ebd235f25b74ff1093848d","25999","464.59999999403954","88","1","arctic","","","","",""
"dual-task","null","null","null","","swim","swim","534","","E","null","77","77","1","arctic-dual-task","","E","uppercase","36000","0","2","941e42086134af220e28caa46099a2d136b0c01f75ebd235f25b74ff1093848d","35999.59999999404","534","77","1","arctic","","","","",""
"dual-task","null","null","null","","swim","swim","468.79999999701977","","Q","null","77","77","1","arctic-dual-task","","Q","uppercase","48000","0","2","941e42086134af220e28caa46099a2d136b0c01f75ebd235f25b74ff1093848d","47999.29999999702","468.79999999701977","77","1","arctic","","","","",""
"dual-task","null","null","null","","swim","swim","468.8999999910593","","H","null","77","77","1","arctic-dual-task","","H","uppercase","54000","0","2","941e42086134af220e28caa46099a2d136b0c01f75ebd235f25b74ff1093848d","53999.09999999404","468.8999999910593","77","1","arctic","","","","",""
"dual-task","null","null","null","","swim","swim","510.90000000596046","","R","null","77","77","1","arctic-dual-task","","R","uppercase","62000","0","2","941e42086134af220e28caa46099a2d136b0c01f75ebd235f25b74ff1093848d","61999.40000000596","510.90000000596046","77","1","arctic","","","","",""
"dual-task","null","null","null","","swim","swim","513","","T","null","77","77","1","arctic-dual-task","","T","uppercase","72000","0","2","941e42086134af220e28caa46099a2d136b0c01f75ebd235f25b74ff1093848d","71999.20000000298","513","77","1","arctic","","","","",""
"dual-task","null","null","null","","swim","swim","513.7000000029802","","G","null","77","77","1","arctic-dual-task","","G","uppercase","78000","0","2","941e42086134af220e28caa46099a2d136b0c01f75ebd235f25b74ff1093848d","77999.40000000596","513.7000000029802","77","1","arctic","","","","",""
"dual-task","null","null","null","","swim","swim","475.70000000298023","","F","null","77","77","1","arctic-dual-task","","F","uppercase","90000","0","2","941e42086134af220e28caa46099a2d136b0c01f75ebd235f25b74ff1093848d","89999.5","475.70000000298023","77","1","arctic","","","","",""
"dual-task","null","null","null","","swim","swim","578.5","","f","null","88","88","1","arctic-dual-task","","f","lowercase","96000","0","2","941e42086134af220e28caa46099a2d136b0c01f75ebd235f25b74ff1093848d","95999.20000000298","578.5","88","1","arctic","","","","",""
"dual-task","null","null","null","","swim","swim","713.6000000089407","","t","null","88","88","1","arctic-dual-task","","t","lowercase","102000","0","2","941e42086134af220e28caa46099a2d136b0c01f75ebd235f25b74ff1093848d","101999.40000000596","713.6000000089407","88","1","arctic","","","","",""
"dual-task","null","null","null","","swim","swim","454.8999999910593","","G","null","77","77","1","arctic-dual-task","","G","uppercase","114000","0","2","941e42086134af220e28caa46099a2d136b0c01f75ebd235f25b74ff1093848d","113999.59999999404","454.8999999910593","77","1","arctic","","","","",""
"dual-task","null","null","null","","swim","swim","531.2000000029802","","b","null","88","88","1","arctic-dual-task","","b","lowercase","126000","0","2","941e42086134af220e28caa46099a2d136b0c01f75ebd235f25b74ff1093848d","125999.5","531.2000000029802","88","1","arctic","","","","",""
"dual-task","null","null","null","","swim","swim","508.09999999403954","","f","null","88","88","1","arctic-dual-task","","f","lowercase","138000","0","2","941e42086134af220e28caa46099a2d136b0c01f75ebd235f25b74ff1093848d","137999.59999999404","508.09999999403954","88","1","arctic","","","","",""
"dual-task","null","null","null","","swim","swim","461.1000000089407","","n","null","88","88","1","arctic-dual-task","","n","lowercase","148000","0","2","941e42086134af220e28caa46099a2d136b0c01f75ebd235f25b74ff1093848d","147999.70000000298","461.1000000089407","88","1","arctic","","","","",""
"dual-task","null","null","null","","swim","swim","541.2000000029802","","H","null","77","77","1","arctic-dual-task","","H","uppercase","158000","0","2","941e42086134af220e28caa46099a2d136b0c01f75ebd235f25b74ff1093848d","157999.70000000298","541.2000000029802","77","1","arctic","","","","",""
"dual-task","null","null","null","","swim","swim","519.3999999910593","","b","null","88","88","1","arctic-dual-task","","b","lowercase","166000","0","2","941e42086134af220e28caa46099a2d136b0c01f75ebd235f25b74ff1093848d","165999.70000000298","519.3999999910593","88","1","arctic","","","","",""
"dual-task","null","null","null","","swim","swim","525.4000000059605","","A","null","77","77","1","arctic-dual-task","","A","uppercase","174000","0","2","941e42086134af220e28caa46099a2d136b0c01f75ebd235f25b74ff1093848d","173999.70000000298","525.4000000059605","77","1","arctic","","","","",""
"dual-task","null","null","null","","swim","swim","463.79999999701977","","Q","null","77","77","1","arctic-dual-task","","Q","uppercase","182000","0","2","941e42086134af220e28caa46099a2d136b0c01f75ebd235f25b74ff1093848d","182000","463.79999999701977","77","1","arctic","","","","",""
"dual-task","null","null","null","","swim","swim","1258.0999999940395","","R","null","77","77","1","arctic-dual-task","","R","uppercase","190000","0","2","941e42086134af220e28caa46099a2d136b0c01f75ebd235f25b74ff1093848d","189999.79999999702","1258.0999999940395","77","1","arctic","","","","",""
"dual-task","null","null","null","","swim","swim","373","","T","null","77","77","1","arctic-dual-task","","T","uppercase","198000","0","2","941e42086134af220e28caa46099a2d136b0c01f75ebd235f25b74ff1093848d","197999.59999999404","373","77","1","arctic","","","","",""
"dual-task","null","null","null","","swim","swim","457.20000000298023","","b","null","88","88","1","arctic-dual-task","","b","lowercase","210000","0","2","941e42086134af220e28caa46099a2d136b0c01f75ebd235f25b74ff1093848d","209999.70000000298","457.20000000298023","88","1","arctic","","","","",""
"dual-task","null","null","null","","swim","swim","347.79999999701977","","Q","null","77","77","1","arctic-dual-task","","Q","uppercase","222000","0","2","941e42086134af220e28caa46099a2d136b0c01f75ebd235f25b74ff1093848d","221999.79999999702","347.79999999701977","77","1","arctic","","","","",""
"dual-task","null","null","null","","swim","swim","466.70000000298023","","a","null","88","88","1","arctic-dual-task","","a","lowercase","236000","0","2","941e42086134af220e28caa46099a2d136b0c01f75ebd235f25b74ff1093848d","235999.5","466.70000000298023","88","1","arctic","","","","",""
"dual-task","null","null","null","","swim","swim","483.40000000596046","","R","null","77","77","1","arctic-dual-task","","R","uppercase","250000","0","2","941e42086134af220e28caa46099a2d136b0c01f75ebd235f25b74ff1093848d","249999.79999999702","483.40000000596046","77","1","arctic","","","","",""
"dual-task","null","null","null","","swim","swim","573.1999999880791","","q","null","88","88","1","arctic-dual-task","","q","lowercase","258000","0","2","941e42086134af220e28caa46099a2d136b0c01f75ebd235f25b74ff1093848d","257999.79999999702","573.1999999880791","88","1","arctic","","","","",""
"dual-task","null","null","null","","swim","swim","507.29999999701977","","R","null","77","77","1","arctic-dual-task","","R","uppercase","268000","0","2","941e42086134af220e28caa46099a2d136b0c01f75ebd235f25b74ff1093848d","267999.700000003","507.29999999701977","77","1","arctic","","","","",""
"dual-task","null","null","null","","swim","swim","547.2999999970198","","r","null","88","88","1","arctic-dual-task","","r","lowercase","278000","0","2","941e42086134af220e28caa46099a2d136b0c01f75ebd235f25b74ff1093848d","277999.90000000596","547.2999999970198","88","1","arctic","","","","",""
"dual-task","null","null","null","","swim","swim","502.20000000298023","","D","null","77","77","1","arctic-dual-task","","D","uppercase","284000","0","2","941e42086134af220e28caa46099a2d136b0c01f75ebd235f25b74ff1093848d","284000","502.20000000298023","77","1","arctic","","","","",""
"dual-task","null","null","null","","swim","swim","535.2000000029802","","N","null","77","77","1","arctic-dual-task","","N","uppercase","292000","0","2","941e42086134af220e28caa46099a2d136b0c01f75ebd235f25b74ff1093848d","291999.90000000596","535.2000000029802","77","1","arctic","","","","",""
"dual-task","null","null","null","","swim","swim","478.3999999910593","","g","null","88","88","1","arctic-dual-task","","g","lowercase","304000","0","2","941e42086134af220e28caa46099a2d136b0c01f75ebd235f25b74ff1093848d","303999.700000003","478.3999999910593","88","1","arctic","","","","",""
"dual-task","null","null","null","","swim","swim","545.2999999970198","","d","null","88","88","1","arctic-dual-task","","d","lowercase","310000","0","2","941e42086134af220e28caa46099a2d136b0c01f75ebd235f25b74ff1093848d","309999.700000003","545.2999999970198","88","1","arctic","","","","",""
"dual-task","null","null","null","","swim","swim","499.79999999701977","","t","null","88","88","1","arctic-dual-task","","t","lowercase","322000","0","2","941e42086134af220e28caa46099a2d136b0c01f75ebd235f25b74ff1093848d","322000.09999999404","499.79999999701977","88","1","arctic","","","","",""
"dual-task","null","null","null","","swim","swim","599.7999999970198","","D","null","77","77","1","arctic-dual-task","","D","uppercase","336000","0","2","941e42086134af220e28caa46099a2d136b0c01f75ebd235f25b74ff1093848d","336000","599.7999999970198","77","1","arctic","","","","",""
"dual-task","null","null","null","","swim","swim","434.5","","h","null","88","88","1","arctic-dual-task","","h","lowercase","344000","0","2","941e42086134af220e28caa46099a2d136b0c01f75ebd235f25b74ff1093848d","343999.700000003","434.5","88","1","arctic","","","","",""
"dual-task","null","null","null","","swim","swim","432.70000000298023","","A","null","77","77","1","arctic-dual-task","","A","uppercase","358000","0","2","941e42086134af220e28caa46099a2d136b0c01f75ebd235f25b74ff1093848d","358000.09999999404","432.70000000298023","77","1","arctic","","","","",""
"dual-task","null","null","null","","swim","swim","474.90000000596046","","D","null","77","77","1","arctic-dual-task","","D","uppercase","370000","0","2","941e42086134af220e28caa46099a2d136b0c01f75ebd235f25b74ff1093848d","369999.799999997","474.90000000596046","77","1","arctic","","","","",""
"dual-task","null","null","null","","swim","swim","439.6000000089407","","f","null","88","88","1","arctic-dual-task","","f","lowercase","380000","0","2","941e42086134af220e28caa46099a2d136b0c01f75ebd235f25b74ff1093848d","379999.799999997","439.6000000089407","88","1","arctic","","","","",""
"dual-task","null","null","null","","swim","swim","607.2999999970198","","h","null","88","88","1","arctic-dual-task","","h","lowercase","392000","0","2","941e42086134af220e28caa46099a2d136b0c01f75ebd235f25b74ff1093848d","392000","607.2999999970198","88","1","arctic","","","","",""
"dual-task","null","null","null","","swim","swim","546","","d","null","88","88","1","arctic-dual-task","","d","lowercase","400000","0","2","941e42086134af220e28caa46099a2d136b0c01f75ebd235f25b74ff1093848d","399999.799999997","546","88","1","arctic","","","","",""
"dual-task","null","null","null","","swim","swim","515.7999999970198","","Q","null","77","77","1","arctic-dual-task","","Q","uppercase","408000","0","2","941e42086134af220e28caa46099a2d136b0c01f75ebd235f25b74ff1093848d","407999.90000000596","515.7999999970198","77","1","arctic","","","","",""
"dual-task","null","null","null","","swim","swim","430.40000000596046","","r","null","88","88","1","arctic-dual-task","","r","lowercase","420000","0","2","941e42086134af220e28caa46099a2d136b0c01f75ebd235f25b74ff1093848d","420000.200000003","430.40000000596046","88","1","arctic","","","","",""
"dual-task","null","null","null","","swim","swim","414","","d","null","88","88","1","arctic-dual-task","","d","lowercase","430000","0","2","941e42086134af220e28caa46099a2d136b0c01f75ebd235f25b74ff1093848d","430000.09999999404","414","88","1","arctic","","","","",""
"dual-task","null","null","null","","swim","swim","521.9000000059605","","E","null","77","77","1","arctic-dual-task","","E","uppercase","442000","0","2","941e42086134af220e28caa46099a2d136b0c01f75ebd235f25b74ff1093848d","442000.09999999404","521.9000000059605","77","1","arctic","","","","",""
"dual-task","null","null","null","","swim","swim","471.29999999701977","","B","null","77","77","1","arctic-dual-task","","B","uppercase","456000","0","2","941e42086134af220e28caa46099a2d136b0c01f75ebd235f25b74ff1093848d","455999.799999997","471.29999999701977","77","1","arctic","","","","",""
"dual-task","null","null","null","","swim","swim","492.79999999701977","","n","null","88","88","1","arctic-dual-task","","n","lowercase","464000","0","2","941e42086134af220e28caa46099a2d136b0c01f75ebd235f25b74ff1093848d","463999.90000000596","492.79999999701977","88","1","arctic","","","","",""
"dual-task","null","null","null","","swim","swim","572.5","","g","null","88","88","1","arctic-dual-task","","g","lowercase","470000","0","2","941e42086134af220e28caa46099a2d136b0c01f75ebd235f25b74ff1093848d","469999.799999997","572.5","88","1","arctic","","","","",""
"dual-task","null","null","null","","swim","swim","475.80000001192093","","A","null","77","77","1","arctic-dual-task","","A","uppercase","476000","0","2","941e42086134af220e28caa46099a2d136b0c01f75ebd235f25b74ff1093848d","476000","475.80000001192093","77","1","arctic","","","","",""
"dual-task","null","null","null","","swim","swim","441.8999999910593","","n","null","88","88","1","arctic-dual-task","","n","lowercase","490000","0","2","941e42086134af220e28caa46099a2d136b0c01f75ebd235f25b74ff1093848d","489999.90000000596","441.8999999910593","88","1","arctic","","","","",""
"dual-task","null","null","null","","swim","swim","438.8999999910593","","B","null","77","77","1","arctic-dual-task","","B","uppercase","502000","0","2","941e42086134af220e28caa46099a2d136b0c01f75ebd235f25b74ff1093848d","502000.299999997","438.8999999910593","77","1","arctic","","","","",""
"dual-task","null","null","null","","swim","swim","481.5","","a","null","88","88","1","arctic-dual-task","","a","lowercase","510000","0","2","941e42086134af220e28caa46099a2d136b0c01f75ebd235f25b74ff1093848d","510000.200000003","481.5","88","1","arctic","","","","",""
"dual-task","null","null","null","","swim","swim","431.29999999701977","","r","null","88","88","1","arctic-dual-task","","r","lowercase","516000","0","2","941e42086134af220e28caa46099a2d136b0c01f75ebd235f25b74ff1093848d","515999.799999997","431.29999999701977","88","1","arctic","","","","",""
"dual-task","null","null","null","","swim","swim","507.1000000089407","","g","null","88","88","1","arctic-dual-task","","g","lowercase","526000","0","2","941e42086134af220e28caa46099a2d136b0c01f75ebd235f25b74ff1093848d","526000.099999994","507.1000000089407","88","1","arctic","","","","",""
"dual-task","null","null","null","","swim","swim","455.3999999910593","","a","null","88","88","1","arctic-dual-task","","a","lowercase","538000","0","2","941e42086134af220e28caa46099a2d136b0c01f75ebd235f25b74ff1093848d","538000.299999997","455.3999999910593","88","1","arctic","","","","",""
"dual-task","null","null","null","","swim","swim","538.9000000059605","","N","null","77","77","1","arctic-dual-task","","N","uppercase","552000","0","2","941e42086134af220e28caa46099a2d136b0c01f75ebd235f25b74ff1093848d","552000.099999994","538.9000000059605","77","1","arctic","","","","",""
"dual-task","null","null","null","","swim","swim","452.70000000298023","","G","null","77","77","1","arctic-dual-task","","G","uppercase","564000","0","2","941e42086134af220e28caa46099a2d136b0c01f75ebd235f25b74ff1093848d","564000.099999994","452.70000000298023","77","1","arctic","","","","",""
"dual-task","null","null","null","","swim","swim","540.9000000059605","","q","null","88","88","1","arctic-dual-task","","q","lowercase","572000","0","2","941e42086134af220e28caa46099a2d136b0c01f75ebd235f25b74ff1093848d","572000.400000006","540.9000000059605","88","1","arctic","","","","",""
"dual-task","null","null","null","","swim","swim","394.3999999910593","","G","null","77","77","1","arctic-dual-task","","G","uppercase","582000","0","2","941e42086134af220e28caa46099a2d136b0c01f75ebd235f25b74ff1093848d","582000.200000003","394.3999999910593","77","1","arctic","","","","",""
"dual-task","null","null","null","","swim","swim","435.5","","e","null","88","88","1","arctic-dual-task","","e","lowercase","590000","0","2","941e42086134af220e28caa46099a2d136b0c01f75ebd235f25b74ff1093848d","590000.099999994","435.5","88","1","arctic","","","","",""
"dual-task","null","null","null","","swim","swim","469.19999998807907","","H","null","77","77","1","arctic-dual-task","","H","uppercase","596000","0","2","941e42086134af220e28caa46099a2d136b0c01f75ebd235f25b74ff1093848d","596000.400000006","469.19999998807907","77","1","arctic","","","","",""
"dual-task","null","null","null","","swim","swim","644.7000000029802","","q","null","88","88","1","arctic-dual-task","","q","lowercase","604000","0","2","941e42086134af220e28caa46099a2d136b0c01f75ebd235f25b74ff1093848d","604000.5","644.7000000029802","88","1","arctic","","","","",""
"dual-task","null","null","null","","swim","swim","415.09999999403954","","F","null","77","77","1","arctic-dual-task","","F","uppercase","612000","0","2","941e42086134af220e28caa46099a2d136b0c01f75ebd235f25b74ff1093848d","612000.299999997","415.09999999403954","77","1","arctic","","","","",""
"dual-task","null","null","null","","swim","swim","429.1000000089407","","B","null","77","77","1","arctic-dual-task","","B","uppercase","624000","0","2","941e42086134af220e28caa46099a2d136b0c01f75ebd235f25b74ff1093848d","624000.200000003","429.1000000089407","77","1","arctic","","","","",""
"dual-task","null","null","null","","swim","swim","455.29999999701977","","A","null","77","77","1","arctic-dual-task","","A","uppercase","632000","0","2","941e42086134af220e28caa46099a2d136b0c01f75ebd235f25b74ff1093848d","632000.200000003","455.29999999701977","77","1","arctic","","","","",""
"dual-task","null","null","null","","swim","swim","558.4000000059605","","H","null","77","77","1","arctic-dual-task","","H","uppercase","644000","0","2","941e42086134af220e28caa46099a2d136b0c01f75ebd235f25b74ff1093848d","644000.700000003","558.4000000059605","77","1","arctic","","","","",""
"dual-task","null","null","null","","swim","swim","453.19999998807907","","e","null","88","88","1","arctic-dual-task","","e","lowercase","654000","0","2","941e42086134af220e28caa46099a2d136b0c01f75ebd235f25b74ff1093848d","654000.200000003","453.19999998807907","88","1","arctic","","","","",""
"dual-task","null","null","null","","swim","swim","480","","B","null","77","77","1","arctic-dual-task","","B","uppercase","664000","0","2","941e42086134af220e28caa46099a2d136b0c01f75ebd235f25b74ff1093848d","664000.599999994","480","77","1","arctic","","","","",""
"dual-task","null","null","null","","swim","swim","421.6000000089407","","E","null","77","77","1","arctic-dual-task","","E","uppercase","672000","0","2","941e42086134af220e28caa46099a2d136b0c01f75ebd235f25b74ff1093848d","672000.5","421.6000000089407","77","1","arctic","","","","",""
"dual-task","null","null","null","","swim","swim","428.20000000298023","","e","null","88","88","1","arctic-dual-task","","e","lowercase","678000","0","2","941e42086134af220e28caa46099a2d136b0c01f75ebd235f25b74ff1093848d","678000.299999997","428.20000000298023","88","1","arctic","","","","",""
"dual-task","null","null","null","","swim","swim","466.5","","h","null","88","88","1","arctic-dual-task","","h","lowercase","686000","0","2","941e42086134af220e28caa46099a2d136b0c01f75ebd235f25b74ff1093848d","686000.400000006","466.5","88","1","arctic","","","","",""
"dual-task","null","null","null","","swim","swim","424.8999999910593","","N","null","77","77","1","arctic-dual-task","","N","uppercase","698000","0","2","941e42086134af220e28caa46099a2d136b0c01f75ebd235f25b74ff1093848d","698000.299999997","424.8999999910593","77","1","arctic","","","","",""
"dual-task","null","null","null","","swim","swim","474.59999999403954","","E","null","77","77","1","arctic-dual-task","","E","uppercase","712000","0","2","941e42086134af220e28caa46099a2d136b0c01f75ebd235f25b74ff1093848d","712000.400000006","474.59999999403954","77","1","arctic","","","","",""
"dual-task","null","null","null","","swim","swim","583","","b","null","88","88","1","arctic-dual-task","","b","lowercase","718000","0","2","941e42086134af220e28caa46099a2d136b0c01f75ebd235f25b74ff1093848d","718000.400000006","583","88","1","arctic","","","","",""
"dual-task","null","null","null","","swim","swim","480.59999999403954","","n","null","88","88","1","arctic-dual-task","","n","lowercase","732000","0","2","941e42086134af220e28caa46099a2d136b0c01f75ebd235f25b74ff1093848d","732000.5","480.59999999403954","88","1","arctic","","","","",""
"dual-task","null","null","null","","swim","swim","745.3999999910593","","t","null","88","88","1","arctic-dual-task","","t","lowercase","738000","0","2","941e42086134af220e28caa46099a2d136b0c01f75ebd235f25b74ff1093848d","738000.799999997","745.3999999910593","88","1","arctic","","","","",""
"dual-task","null","null","null","","swim","swim","449.70000000298023","","T","null","77","77","1","arctic-dual-task","","T","uppercase","752000","0","2","941e42086134af220e28caa46099a2d136b0c01f75ebd235f25b74ff1093848d","752000.400000006","449.70000000298023","77","1","arctic","","","","",""
"dual-task","null","null","null","","swim","swim","504.79999999701977","","h","null","88","88","1","arctic-dual-task","","h","lowercase","760000","0","2","941e42086134af220e28caa46099a2d136b0c01f75ebd235f25b74ff1093848d","760000.299999997","504.79999999701977","88","1","arctic","","","","",""
"dual-task","null","null","null","","swim","swim","503.29999999701977","","F","null","77","77","1","arctic-dual-task","","F","uppercase","768000","0","2","941e42086134af220e28caa46099a2d136b0c01f75ebd235f25b74ff1093848d","768000.599999994","503.29999999701977","77","1","arctic","","","","",""
"dual-task","null","null","null","","swim","swim","456.40000000596046","","q","null","88","88","1","arctic-dual-task","","q","lowercase","780000","0","2","941e42086134af220e28caa46099a2d136b0c01f75ebd235f25b74ff1093848d","780000.700000003","456.40000000596046","88","1","arctic","","","","",""
"audio-keyboard-response","62","2389534","0.0-7.0-2.0-1.0","941e42086134af220e28caa46099a2d136b0c01f75ebd235f25b74ff1093848d","swim","swim","null","","audio/story_arctic.mp3","","null","","","","","","","","","","","","","","","","","","","",""
"html-button-response","63","2392187","0.0-7.0-2.0-2.0","941e42086134af220e28caa46099a2d136b0c01f75ebd235f25b74ff1093848d","swim","swim","2652","","<p>This concludes the story. Thank you for listening.</p><p>You will now answer some questions about the content of the story.</p>","0","","","","","","","","","","","","","","","","","","","","",""
"survey-multi-choice","64","2398089","0.0-7.0-2.0-3.0-0.0","941e42086134af220e28caa46099a2d136b0c01f75ebd235f25b74ff1093848d","swim","swim","5898","","<b>What were the weather conditions in the Arctic like the winter of the narrator&#39;s expedition?</b>","","","","1","arctic-comprehension","","","","","","","","","","","","","{""Q0"":""There were more storms than any other winter in recorded history.""}","","","",""
"survey-multi-choice","65","2404210","0.0-7.0-2.0-3.0-0.1","941e42086134af220e28caa46099a2d136b0c01f75ebd235f25b74ff1093848d","swim","swim","5866","","<b>How did the dogs respond when they saw the bears?</b>","","","","1","arctic-comprehension","","","","","","","","","","","","","{""Q0"":""Approached them""}","","","",""
"survey-multi-choice","66","2412965","0.0-7.0-2.0-3.0-0.2","941e42086134af220e28caa46099a2d136b0c01f75ebd235f25b74ff1093848d","swim","swim","8500","","<b>How many sponsorships did the narrator receive to support her expedition?</b>","","","","1","arctic-comprehension","","","","","","","","","","","","","{""Q0"":""None""}","","","",""
"survey-multi-choice","67","2417284","0.0-7.0-2.0-3.0-0.3","941e42086134af220e28caa46099a2d136b0c01f75ebd235f25b74ff1093848d","swim","swim","4063","","<b>Which dog on the narrator&#39;s dog team never followed instructions?</b>","","","","1","arctic-comprehension","","","","","","","","","","","","","{""Q0"":""Robert""}","","","",""
"survey-multi-choice","68","2422431","0.0-7.0-2.0-3.0-0.4","941e42086134af220e28caa46099a2d136b0c01f75ebd235f25b74ff1093848d","swim","swim","4891","","<b>What was the objective of the narrator&#39;s expedition?</b>","","","","1","arctic-comprehension","","","","","","","","","","","","","{""Q0"":""Dogsled across Arctic America""}","","","",""
"survey-multi-choice","69","2426338","0.0-7.0-2.0-3.0-0.5","941e42086134af220e28caa46099a2d136b0c01f75ebd235f25b74ff1093848d","swim","swim","3653","","<b>What did the narrator do for leisure while in her tent?</b>","","","","1","arctic-comprehension","","","","","","","","","","","","","{""Q0"":""Read""}","","","",""
"survey-multi-choice","70","2436021","0.0-7.0-2.0-3.0-0.6","941e42086134af220e28caa46099a2d136b0c01f75ebd235f25b74ff1093848d","swim","swim","9429","","<b>How did the narrator prepare for her expedition?</b>","","","","1","arctic-comprehension","","","","","","","","","","","","","{""Q0"":""Trained in Alaska learning how to dogsled""}","","","",""
"survey-multi-choice","71","2441127","0.0-7.0-2.0-3.0-0.7","941e42086134af220e28caa46099a2d136b0c01f75ebd235f25b74ff1093848d","swim","swim","4851","","<b>How did the narrator&#39;s neighbour respond when she told him about her expedition?</b>","","","","1","arctic-comprehension","","","","","","","","","","","","","{""Q0"":""He said she was going to fail.""}","","","",""
"survey-multi-choice","72","2446747","0.0-7.0-2.0-3.0-0.8","941e42086134af220e28caa46099a2d136b0c01f75ebd235f25b74ff1093848d","swim","swim","5366","","<b>How did the narrator&#39;s encounter with the polar bears end?</b>","","","","1","arctic-comprehension","","","","","","","","","","","","","{""Q0"":""The bears walked back to their den.""}","","","",""
"survey-multi-choice","73","2450350","0.0-7.0-2.0-3.0-0.9","941e42086134af220e28caa46099a2d136b0c01f75ebd235f25b74ff1093848d","swim","swim","3347","","<b>What is the name of the narrator&#39;s neighbour?</b>","","","","1","arctic-comprehension","","","","","","","","","","","","","{""Q0"":""Dave""}","","","",""
"html-button-response","74","2451680","0.0-7.0-2.0-4.0","941e42086134af220e28caa46099a2d136b0c01f75ebd235f25b74ff1093848d","swim","swim","1078","","<p>Thank you for your responses.</p><p>You will now answer some questions about your impressions of the story.</p>","0","","","","","","","","","","","","","","","","","","","","",""
"html-button-response","75","2454246","0.0-7.0-2.0-5.0-0.0","941e42086134af220e28caa46099a2d136b0c01f75ebd235f25b74ff1093848d","swim","swim","2564","","A1","5","","","","arctic-engagement","","","","","","","","","","","","","","6","absorption","",""
"html-button-response","76","2455910","0.0-7.0-2.0-5.0-0.1","941e42086134af220e28caa46099a2d136b0c01f75ebd235f25b74ff1093848d","swim","swim","1411","","EE5","6","","","","arctic-engagement","","","","","","","","","","","","","","7","emo-engage","",""
"html-button-response","77","2457329","0.0-7.0-2.0-5.0-0.2","941e42086134af220e28caa46099a2d136b0c01f75ebd235f25b74ff1093848d","swim","swim","1165","","EE3","6","","","","arctic-engagement","","","","","","","","","","","","","","7","emo-engage","",""
"html-button-response","78","2459535","0.0-7.0-2.0-5.0-0.3","941e42086134af220e28caa46099a2d136b0c01f75ebd235f25b74ff1093848d","swim","swim","1954","","A5","6","","","","arctic-engagement","","","","","","","","","","","","","","7","absorption","",""
"html-button-response","79","2462722","0.0-7.0-2.0-5.0-0.4","941e42086134af220e28caa46099a2d136b0c01f75ebd235f25b74ff1093848d","swim","swim","2933","","EE4","6","","","","arctic-engagement","","","","","","","","","","","","","","7","emo-engage","",""
"html-button-response","80","2464100","0.0-7.0-2.0-5.0-0.5","941e42086134af220e28caa46099a2d136b0c01f75ebd235f25b74ff1093848d","swim","swim","1126","","E6","6","","","","arctic-engagement","","","","","","","","","","","","","","7","enjoyment","",""
"html-button-response","81","2465458","0.0-7.0-2.0-5.0-0.6","941e42086134af220e28caa46099a2d136b0c01f75ebd235f25b74ff1093848d","swim","swim","1106","","E10","6","","","","arctic-engagement","","","","","","","","","","","","","","7","enjoyment","",""
"html-button-response","82","2467801","0.0-7.0-2.0-5.0-0.7","941e42086134af220e28caa46099a2d136b0c01f75ebd235f25b74ff1093848d","swim","swim","2091","","MS1","6","","","","arctic-engagement","","","","","","","","","","","","","","7","mental-sim","",""
"html-button-response","83","2469060","0.0-7.0-2.0-5.0-0.8","941e42086134af220e28caa46099a2d136b0c01f75ebd235f25b74ff1093848d","swim","swim","1006","","E1","6","","","","arctic-engagement","","","","","","","","","","","","","","7","enjoyment","",""
"html-button-response","84","2472121","0.0-7.0-2.0-5.0-0.9","941e42086134af220e28caa46099a2d136b0c01f75ebd235f25b74ff1093848d","swim","swim","2808","","EE2","4","","","","arctic-engagement","","","","","","","","","","","","","","5","emo-engage","",""
"html-button-response","85","2475477","0.0-7.0-2.0-5.0-0.10","941e42086134af220e28caa46099a2d136b0c01f75ebd235f25b74ff1093848d","swim","swim","3104","","E7","6","","","","arctic-engagement","","","","","","","","","","","","","","7","enjoyment","",""
"html-button-response","86","2476234","0.0-7.0-2.0-5.0-0.11","941e42086134af220e28caa46099a2d136b0c01f75ebd235f25b74ff1093848d","swim","swim","505","","A2","6","","","","arctic-engagement","","","","","","","","","","","","","","7","absorption","",""
"html-button-response","87","2476973","0.0-7.0-2.0-5.0-0.12","941e42086134af220e28caa46099a2d136b0c01f75ebd235f25b74ff1093848d","swim","swim","486","","EE1","6","","","","arctic-engagement","","","","","","","","","","","","","","7","emo-engage","",""
"html-button-response","88","2479474","0.0-7.0-2.0-5.0-0.13","941e42086134af220e28caa46099a2d136b0c01f75ebd235f25b74ff1093848d","swim","swim","2248","","MS3","6","","","","arctic-engagement","","","","","","","","","","","","","","7","mental-sim","",""
"html-button-response","89","2481018","0.0-7.0-2.0-5.0-0.14","941e42086134af220e28caa46099a2d136b0c01f75ebd235f25b74ff1093848d","swim","swim","1291","","A3","6","","","","arctic-engagement","","","","","","","","","","","","","","7","absorption","",""
"html-button-response","90","2483715","0.0-7.0-2.0-5.0-0.15","941e42086134af220e28caa46099a2d136b0c01f75ebd235f25b74ff1093848d","swim","swim","2444","","A4","6","","","","arctic-engagement","","","","","","","","","","","","","","7","absorption","",""
"html-button-response","91","2485211","0.0-7.0-2.0-5.0-0.16","941e42086134af220e28caa46099a2d136b0c01f75ebd235f25b74ff1093848d","swim","swim","1243","","E8","6","","","","arctic-engagement","","","","","","","","","","","","","","7","enjoyment","",""
"html-button-response","92","2487494","0.0-7.0-2.0-5.0-0.17","941e42086134af220e28caa46099a2d136b0c01f75ebd235f25b74ff1093848d","swim","swim","2031","","MS2","6","","","","arctic-engagement","","","","","","","","","","","","","","7","mental-sim","",""
"html-button-response","93","2490034","0.0-8.0","941e42086134af220e28caa46099a2d136b0c01f75ebd235f25b74ff1093848d","swim","swim","2287","","<p>Thank you for your responses.</p><p>You will now answer some demographic, hearing, and general health questions.</p>","0","","","","","","","","","","","","","","","","","","","","",""
"survey-multi-choice","94","2492712","0.0-9.0-0.0","941e42086134af220e28caa46099a2d136b0c01f75ebd235f25b74ff1093848d","swim","swim","2671","","","","","","","survey","","","","","","","","","","","","","{""Q0"":""Chrome""}","","","browser",""
"survey-text","95","2495597","0.0-9.0-1.0","941e42086134af220e28caa46099a2d136b0c01f75ebd235f25b74ff1093848d","swim","swim","2611.7999999970198","","","","","","","survey","","","","","","","","","","","","","{""AGE"":""37""}","","","age","37"
"survey-multi-choice","96","2498242","0.0-9.0-2.0","941e42086134af220e28caa46099a2d136b0c01f75ebd235f25b74ff1093848d","swim","swim","2392","","","","","","","survey","","","","","","","","","","","","","{""Q0"":""Female""}","","","gender","Female"
"survey-multi-choice","97","2500487","0.0-9.0-4.0","941e42086134af220e28caa46099a2d136b0c01f75ebd235f25b74ff1093848d","swim","swim","1992","","","","","","","survey","","","","","","","","","","","","","{""Q0"":""Right""}","","","handedness","Right"
"survey-multi-choice","98","2502710","0.0-9.0-5.0","941e42086134af220e28caa46099a2d136b0c01f75ebd235f25b74ff1093848d","swim","swim","1969","","","","","","","survey","","","","","","","","","","","","","{""Q0"":""Bachelor's Degree""}","","","education","Bachelor's Degree"
"survey-text","99","2505811","0.0-10.0-0.0","941e42086134af220e28caa46099a2d136b0c01f75ebd235f25b74ff1093848d","swim","swim","2847","","","","","","","survey","","","","","","","","","","","","","{""L1"":""English""}","","","first-language","English"
"survey-text","100","2509324","0.0-10.0-1.0","941e42086134af220e28caa46099a2d136b0c01f75ebd235f25b74ff1093848d","swim","swim","3258.2000000029802","","","","","","","survey","","","","","","","","","","","","","{""L2name"":"""",""L2fluency"":"""",""L3name"":"""",""L3fluency"":"""",""L4name"":"""",""L4fluency"":""""}","","","additional-languages","{""L2name"":"""",""L2fluency"":"""",""L3name"":"""",""L3fluency"":"""",""L4name"":"""",""L4fluency"":""""}"
"survey-multi-choice","101","2511686","0.0-10.0-2.0","941e42086134af220e28caa46099a2d136b0c01f75ebd235f25b74ff1093848d","swim","swim","2108","","","","","","","survey","","","","","","","","","","","","","{""Q0"":""No""}","","","hearing-aid","No"
"survey-multi-choice","102","2515890","0.0-10.0-3.0","941e42086134af220e28caa46099a2d136b0c01f75ebd235f25b74ff1093848d","swim","swim","3951","","","","","","","survey","","","","","","","","","","","","","{""Q0"":""Never""}","","","ringing-ears","Never"
"survey-multi-choice","103","2517916","0.0-10.0-5.0","941e42086134af220e28caa46099a2d136b0c01f75ebd235f25b74ff1093848d","swim","swim","1772","","","","","","","survey","","","","","","","","","","","","","{""Q0"":""No""}","","","neuro-disease","No"
"survey-multi-choice","104","2522738","0.0-10.0-7.0","941e42086134af220e28caa46099a2d136b0c01f75ebd235f25b74ff1093848d","swim","swim","4569","","","","","","","survey","","","","","","","","","","","","","{""Q0"":""Yes""}","","","take-meds","Yes"
"survey-text","105","2532443","0.0-10.0-8.0-0.0","941e42086134af220e28caa46099a2d136b0c01f75ebd235f25b74ff1093848d","swim","swim","9450.09999999404","","","","","","","survey","","","","","","","","","","","","","{""MED"":""Adderall, Ativan""}","","","take-meds-clarify","Adderall, Ativan"
"survey-text","106","2534695","0.0-10.0-9.0","941e42086134af220e28caa46099a2d136b0c01f75ebd235f25b74ff1093848d","swim","swim","1976.2999999970198","","","","","","","survey","","","","","","","","","","","","","{""HC"":""""}","","","health-concerns",""
"html-button-response","107","2537865","0.0-11.0-0.0","941e42086134af220e28caa46099a2d136b0c01f75ebd235f25b74ff1093848d","swim","swim","2918","","<p>How would you describe your musical skills/experiences?</p>","3","","","","survey","","","","","","","","","","","","","","","","music-skill","4"
"survey-multi-choice","108","2541432","0.0-11.0-1.0","941e42086134af220e28caa46099a2d136b0c01f75ebd235f25b74ff1093848d","swim","swim","3312","","","","","","","survey","","","","","","","","","","","","","{""Q0"":""Yes""}","","","music-instrument","Yes"
"survey-text","109","2544253","0.0-11.0-2.0-0.0","941e42086134af220e28caa46099a2d136b0c01f75ebd235f25b74ff1093848d","swim","swim","2567.2999999970198","","","","","","","survey","","","","","","","","","","","","","{""MEXP"":""5""}","","","music-training-yrs","5"
"html-button-response","110","2547934","0.0-12.0-0.0","941e42086134af220e28caa46099a2d136b0c01f75ebd235f25b74ff1093848d","swim","swim","3428","","<p>How would you describe your general hearing abilities?</p>","5","","","","survey","","","","","","","","","","","","","","","","ssq-01","6"
"html-button-response","111","2551211","0.0-12.0-1.0","941e42086134af220e28caa46099a2d136b0c01f75ebd235f25b74ff1093848d","swim","swim","3024","","<p>When you talk with someone at a place that strongly reverberates/echoes (e.g., in a church or train station),</br>can you understand what the person says?</p>","8","","","","survey","","","","","","","","","","","","","","","","ssq-02","8"
"html-button-response","112","2553554","0.0-12.0-2.0","941e42086134af220e28caa46099a2d136b0c01f75ebd235f25b74ff1093848d","swim","swim","2091","","<p>When you are with a group (~5 people) in a lively restaurant, can you follow the group's conversation?</p>","8","","","","survey","","","","","","","","","","","","","","","","ssq-03","8"
"html-button-response","113","2557295","0.0-12.0-3.0","941e42086134af220e28caa46099a2d136b0c01f75ebd235f25b74ff1093848d","swim","swim","3489","","<p>Based on the sound of a bus or truck, can you tell whether it is moving towards or away from you?</p>","6","","","","survey","","","","","","","","","","","","","","","","ssq-04","6"
"html-button-response","114","2560442","0.0-12.0-4.0","941e42086134af220e28caa46099a2d136b0c01f75ebd235f25b74ff1093848d","swim","swim","2895","","<p>When you are in an unknown environment, can you tell from which direction a brief sound originates?</p>","7","","","","survey","","","","","","","","","","","","","","","","ssq-05","7"
"html-button-response","115","2563572","0.0-12.0-5.0","941e42086134af220e28caa46099a2d136b0c01f75ebd235f25b74ff1093848d","swim","swim","2878","","<p>Are you able to ignore distracting sounds when you concentrate on a specific aspect of your acoustic surrounding?</p>","4","","","","survey","","","","","","","","","","","","","","","","ssq-06","4"
"fullscreen","116","2564824","0.0-13.0","941e42086134af220e28caa46099a2d136b0c01f75ebd235f25b74ff1093848d","swim","swim","","","","","","","","","true","","","","","","","","","","","","","","","",""
