"trial_type","trial_index","time_elapsed","internal_node_id","ParticipantID","firstStory","scramStory","rt","url","stimulus","button_pressed","key_press","correctRESP","correct","designation","success","letterStim","letterType","ONSET","TIMEOUT","CONDITION","Participant","ONSET_ACTUAL","RT","RESP","ACC","STORY","responses","response","type","surveyQuestion","QRESP"
"pavlovia","0","3","0.0-0.0","dc0517523a7dc6ac696baed8961b59d075c302321483445afe245b0400c697ce","arctic","swim","","","","","","","","","","","","","","","","","","","","","","","","",""
"external-html","1","70308","0.0-1.0","dc0517523a7dc6ac696baed8961b59d075c302321483445afe245b0400c697ce","arctic","swim","70132","consent/consent_updated.html","","","","","","","","","","","","","","","","","","","","","","",""
"html-button-response","2","76879","0.0-2.0-0.0","dc0517523a7dc6ac696baed8961b59d075c302321483445afe245b0400c697ce","arctic","swim","6570","","<p>Before we begin the main task, you will complete a short volume calibration and headphone check.</p><p>Please make sure you are in a quiet listening environment, that you are wearing headphones, and that your computer's volume is turned on.<p></p>","0","","","","","","","","","","","","","","","","","","","","",""
"html-button-response","3","79807","0.0-2.0-1.0","dc0517523a7dc6ac696baed8961b59d075c302321483445afe245b0400c697ce","arctic","swim","2677","","<p>The volume calibration will be first.</p><p>You will hear a thirty-second noise. Please adjust your computer's volume so that this noise is being presented at a comfortable level.<p></p>","0","","","","","","","","","","","","","","","","","","","","",""
"audio-button-response","4","84610","0.0-2.0-2.0","dc0517523a7dc6ac696baed8961b59d075c302321483445afe245b0400c697ce","arctic","swim","4551","","audio/volumetest.mp3","0","","","","","","","","","","","","","","","","","","","","",""
"html-keyboard-response","5","88739","0.0-3.0-0.0","dc0517523a7dc6ac696baed8961b59d075c302321483445afe245b0400c697ce","arctic","swim","4129","","<p>You will now complete a short headphone check.</p><p>On each trial, you will hear three tones. One of these tones will be quieter than the others. Your task is to identify whether the quiet tone occurred first, second, or third.</p><p>There are six trials in total.<p></p><p></p>(Press SPACEBAR to begin)","","32","","","","","","","","","","","","","","","","","","","",""
"html-keyboard-response","6","89500","0.0-3.0-1.0-0.0","dc0517523a7dc6ac696baed8961b59d075c302321483445afe245b0400c697ce","arctic","swim","null","","<div style=""font-size:60px;"">+</div>","","null","","","","","","","","","","","","","","","","","","","",""
"audio-button-response","7","93618","0.0-3.0-1.0-1.0","dc0517523a7dc6ac696baed8961b59d075c302321483445afe245b0400c697ce","arctic","swim","4115","","audio/t3_2.mp3","2","","2","1","headphone-test","","","","","","","","","","","","","","","","",""
"html-keyboard-response","8","94128","0.0-3.0-1.0-2.0","dc0517523a7dc6ac696baed8961b59d075c302321483445afe245b0400c697ce","arctic","swim","null","","<p>Correct</p>","","null","","","","","","","","","","","","","","","","","","","",""
"html-keyboard-response","9","94635","0.0-3.0-1.0-0.1","dc0517523a7dc6ac696baed8961b59d075c302321483445afe245b0400c697ce","arctic","swim","null","","<div style=""font-size:60px;"">+</div>","","null","","","","","","","","","","","","","","","","","","","",""
"audio-button-response","10","98756","0.0-3.0-1.0-1.1","dc0517523a7dc6ac696baed8961b59d075c302321483445afe245b0400c697ce","arctic","swim","4121","","audio/t1_1.mp3","0","","0","1","headphone-test","","","","","","","","","","","","","","","","",""
"html-keyboard-response","11","99257","0.0-3.0-1.0-2.1","dc0517523a7dc6ac696baed8961b59d075c302321483445afe245b0400c697ce","arctic","swim","null","","<p>Correct</p>","","null","","","","","","","","","","","","","","","","","","","",""
"html-keyboard-response","12","99765","0.0-3.0-1.0-0.2","dc0517523a7dc6ac696baed8961b59d075c302321483445afe245b0400c697ce","arctic","swim","null","","<div style=""font-size:60px;"">+</div>","","null","","","","","","","","","","","","","","","","","","","",""
"audio-button-response","13","104013","0.0-3.0-1.0-1.2","dc0517523a7dc6ac696baed8961b59d075c302321483445afe245b0400c697ce","arctic","swim","4247","","audio/t2_1.mp3","1","","1","1","headphone-test","","","","","","","","","","","","","","","","",""
"html-keyboard-response","14","104514","0.0-3.0-1.0-2.2","dc0517523a7dc6ac696baed8961b59d075c302321483445afe245b0400c697ce","arctic","swim","null","","<p>Correct</p>","","null","","","","","","","","","","","","","","","","","","","",""
"html-keyboard-response","15","105015","0.0-3.0-1.0-0.3","dc0517523a7dc6ac696baed8961b59d075c302321483445afe245b0400c697ce","arctic","swim","null","","<div style=""font-size:60px;"">+</div>","","null","","","","","","","","","","","","","","","","","","","",""
"audio-button-response","16","108779","0.0-3.0-1.0-1.3","dc0517523a7dc6ac696baed8961b59d075c302321483445afe245b0400c697ce","arctic","swim","3763","","audio/t2_2.mp3","1","","1","1","headphone-test","","","","","","","","","","","","","","","","",""
"html-keyboard-response","17","109291","0.0-3.0-1.0-2.3","dc0517523a7dc6ac696baed8961b59d075c302321483445afe245b0400c697ce","arctic","swim","null","","<p>Correct</p>","","null","","","","","","","","","","","","","","","","","","","",""
"html-keyboard-response","18","109798","0.0-3.0-1.0-0.4","dc0517523a7dc6ac696baed8961b59d075c302321483445afe245b0400c697ce","arctic","swim","null","","<div style=""font-size:60px;"">+</div>","","null","","","","","","","","","","","","","","","","","","","",""
"audio-button-response","19","113596","0.0-3.0-1.0-1.4","dc0517523a7dc6ac696baed8961b59d075c302321483445afe245b0400c697ce","arctic","swim","3797","","audio/t1_2.mp3","0","","0","1","headphone-test","","","","","","","","","","","","","","","","",""
"html-keyboard-response","20","114103","0.0-3.0-1.0-2.4","dc0517523a7dc6ac696baed8961b59d075c302321483445afe245b0400c697ce","arctic","swim","null","","<p>Correct</p>","","null","","","","","","","","","","","","","","","","","","","",""
"html-keyboard-response","21","114609","0.0-3.0-1.0-0.5","dc0517523a7dc6ac696baed8961b59d075c302321483445afe245b0400c697ce","arctic","swim","null","","<div style=""font-size:60px;"">+</div>","","null","","","","","","","","","","","","","","","","","","","",""
"audio-button-response","22","118978","0.0-3.0-1.0-1.5","dc0517523a7dc6ac696baed8961b59d075c302321483445afe245b0400c697ce","arctic","swim","4367","","audio/t3_1.mp3","2","","2","1","headphone-test","","","","","","","","","","","","","","","","",""
"html-keyboard-response","23","119483","0.0-3.0-1.0-2.5","dc0517523a7dc6ac696baed8961b59d075c302321483445afe245b0400c697ce","arctic","swim","null","","<p>Correct</p>","","null","","","","","","","","","","","","","","","","","","","",""
"fullscreen","24","154350","0.0-4.0","dc0517523a7dc6ac696baed8961b59d075c302321483445afe245b0400c697ce","arctic","swim","","","","","","","","","true","","","","","","","","","","","","","","","",""
"html-button-response","25","160674","0.0-5.0-0.0","dc0517523a7dc6ac696baed8961b59d075c302321483445afe245b0400c697ce","arctic","swim","6324","","<p>There are two blocks to this experiment.</p><p>In each block, you will hear a ~13.5 minute story. One of the stories will be scrambled. Please listen carefully to both stories and understand them as best you can.</p><p>After each story, you will be asked some questions to assess your comprehension.</p>","0","","","","","","","","","","","","","","","","","","","","",""
"html-button-response","26","178324","0.0-5.0-1.0","dc0517523a7dc6ac696baed8961b59d075c302321483445afe245b0400c697ce","arctic","swim","17650","","<p>During each story, there will be an additional task.</p><p>A letter will occasionally appear on the screen.</br>Your job is to - as quickly as you can - decide whether the letter is lowercase or uppercase and press one of two keys on the keyboard:</p><p>If the letter is <b>lowercase</b>, press key &lt;<b>x</b>&gt;.</p><p>If the letter is <b>uppercase</b>, press key &lt;<b>m</b>&gt;.</p>","0","","","","","","","","","","","","","","","","","","","","",""
"html-keyboard-response","27","186937","0.0-5.0-2.0","dc0517523a7dc6ac696baed8961b59d075c302321483445afe245b0400c697ce","arctic","swim","8612","","<p>Because we want your responses to be as quick as possible, please keep your index fingers over the keys while listening.</p><p>Each block lasts about 20 minutes.</p><p><b>Press &lt;x&gt; or &lt;m&gt; to start the first block!</b></p>","","88","","","","","","","","","","","","","","","","","","","",""
"html-keyboard-response","28","187439","0.0-6.0-0.0-0.0","dc0517523a7dc6ac696baed8961b59d075c302321483445afe245b0400c697ce","arctic","swim","null","","<div style=""font-size:60px;"" tabindex=""0"">+</div>","","null","","","","","","","","","","","","","","","","","","","",""
"dual-task","null","null","null","","arctic","swim","770.5","","F","null","77","77","1","arctic-dual-task","","F","uppercase","12000","0","6","dc0517523a7dc6ac696baed8961b59d075c302321483445afe245b0400c697ce","12003","770.5","77","1","arctic","","","","",""
"dual-task","null","null","null","","arctic","swim","741.3000000007451","","H","null","77","77","1","arctic-dual-task","","H","uppercase","24000","0","6","dc0517523a7dc6ac696baed8961b59d075c302321483445afe245b0400c697ce","24004.39999999851","741.3000000007451","77","1","arctic","","","","",""
"dual-task","null","null","null","","arctic","swim","715.1000000014901","","n","null","88","88","1","arctic-dual-task","","n","lowercase","36000","0","6","dc0517523a7dc6ac696baed8961b59d075c302321483445afe245b0400c697ce","36004.699999999255","715.1000000014901","88","1","arctic","","","","",""
"dual-task","null","null","null","","arctic","swim","656.1999999992549","","f","null","88","88","1","arctic-dual-task","","f","lowercase","46000","0","6","dc0517523a7dc6ac696baed8961b59d075c302321483445afe245b0400c697ce","46013.29999999702","656.1999999992549","88","1","arctic","","","","",""
"dual-task","null","null","null","","arctic","swim","556.6999999992549","","n","null","88","88","1","arctic-dual-task","","n","lowercase","60000","0","6","dc0517523a7dc6ac696baed8961b59d075c302321483445afe245b0400c697ce","60002.699999999255","556.6999999992549","88","1","arctic","","","","",""
"dual-task","null","null","null","","arctic","swim","463.1000000014901","","e","null","88","88","1","arctic-dual-task","","e","lowercase","70000","0","6","dc0517523a7dc6ac696baed8961b59d075c302321483445afe245b0400c697ce","70011.5","463.1000000014901","88","1","arctic","","","","",""
"dual-task","null","null","null","","arctic","swim","588.6000000014901","","B","null","77","77","1","arctic-dual-task","","B","uppercase","82000","0","6","dc0517523a7dc6ac696baed8961b59d075c302321483445afe245b0400c697ce","82013.19999999925","588.6000000014901","77","1","arctic","","","","",""
"dual-task","null","null","null","","arctic","swim","568.3999999985099","","f","null","88","88","1","arctic-dual-task","","f","lowercase","92000","0","6","dc0517523a7dc6ac696baed8961b59d075c302321483445afe245b0400c697ce","92000.09999999776","568.3999999985099","88","1","arctic","","","","",""
"dual-task","null","null","null","","arctic","swim","489","","F","null","88","77","0","arctic-dual-task","","F","uppercase","104000","0","6","dc0517523a7dc6ac696baed8961b59d075c302321483445afe245b0400c697ce","104003.5","489","88","0","arctic","","","","",""
"dual-task","null","null","null","","arctic","swim","532.9000000022352","","A","null","77","77","1","arctic-dual-task","","A","uppercase","112000","0","6","dc0517523a7dc6ac696baed8961b59d075c302321483445afe245b0400c697ce","112001","532.9000000022352","77","1","arctic","","","","",""
"dual-task","null","null","null","","arctic","swim","505.8999999985099","","B","null","77","77","1","arctic-dual-task","","B","uppercase","120000","0","6","dc0517523a7dc6ac696baed8961b59d075c302321483445afe245b0400c697ce","120005.89999999851","505.8999999985099","77","1","arctic","","","","",""
"dual-task","null","null","null","","arctic","swim","564.5","","D","null","77","77","1","arctic-dual-task","","D","uppercase","130000","0","6","dc0517523a7dc6ac696baed8961b59d075c302321483445afe245b0400c697ce","130013.59999999776","564.5","77","1","arctic","","","","",""
"dual-task","null","null","null","","arctic","swim","607","","d","null","88","88","1","arctic-dual-task","","d","lowercase","136000","0","6","dc0517523a7dc6ac696baed8961b59d075c302321483445afe245b0400c697ce","136012.59999999776","607","88","1","arctic","","","","",""
"dual-task","null","null","null","","arctic","swim","698.4000000022352","","b","null","88","88","1","arctic-dual-task","","b","lowercase","144000","0","6","dc0517523a7dc6ac696baed8961b59d075c302321483445afe245b0400c697ce","144014.5","698.4000000022352","88","1","arctic","","","","",""
"dual-task","null","null","null","","arctic","swim","690.6000000014901","","r","null","88","88","1","arctic-dual-task","","r","lowercase","158000","0","6","dc0517523a7dc6ac696baed8961b59d075c302321483445afe245b0400c697ce","158001.69999999925","690.6000000014901","88","1","arctic","","","","",""
"dual-task","null","null","null","","arctic","swim","617.6000000014901","","a","null","88","88","1","arctic-dual-task","","a","lowercase","168000","0","6","dc0517523a7dc6ac696baed8961b59d075c302321483445afe245b0400c697ce","168011.09999999776","617.6000000014901","88","1","arctic","","","","",""
"dual-task","null","null","null","","arctic","swim","596.6999999992549","","a","null","88","88","1","arctic-dual-task","","a","lowercase","178000","0","6","dc0517523a7dc6ac696baed8961b59d075c302321483445afe245b0400c697ce","178013","596.6999999992549","88","1","arctic","","","","",""
"dual-task","null","null","null","","arctic","swim","568.9000000022352","","N","null","77","77","1","arctic-dual-task","","N","uppercase","188000","0","6","dc0517523a7dc6ac696baed8961b59d075c302321483445afe245b0400c697ce","188004.8999999985","568.9000000022352","77","1","arctic","","","","",""
"dual-task","null","null","null","","arctic","swim","674.1999999992549","","G","null","77","77","1","arctic-dual-task","","G","uppercase","202000","0","6","dc0517523a7dc6ac696baed8961b59d075c302321483445afe245b0400c697ce","202010.79999999702","674.1999999992549","77","1","arctic","","","","",""
"dual-task","null","null","null","","arctic","swim","555.3999999985099","","D","null","77","77","1","arctic-dual-task","","D","uppercase","214000","0","6","dc0517523a7dc6ac696baed8961b59d075c302321483445afe245b0400c697ce","214002.29999999702","555.3999999985099","77","1","arctic","","","","",""
"dual-task","null","null","null","","arctic","swim","587","","b","null","88","88","1","arctic-dual-task","","b","lowercase","220000","0","6","dc0517523a7dc6ac696baed8961b59d075c302321483445afe245b0400c697ce","220005.69999999925","587","88","1","arctic","","","","",""
"dual-task","null","null","null","","arctic","swim","483.79999999701977","","Q","null","77","77","1","arctic-dual-task","","Q","uppercase","232000","0","6","dc0517523a7dc6ac696baed8961b59d075c302321483445afe245b0400c697ce","232006.3999999985","483.79999999701977","77","1","arctic","","","","",""
"dual-task","null","null","null","","arctic","swim","720.3000000007451","","q","null","88","88","1","arctic-dual-task","","q","lowercase","240000","0","6","dc0517523a7dc6ac696baed8961b59d075c302321483445afe245b0400c697ce","240011.5","720.3000000007451","88","1","arctic","","","","",""
"dual-task","null","null","null","","arctic","swim","507.80000000074506","","q","null","88","88","1","arctic-dual-task","","q","lowercase","248000","0","6","dc0517523a7dc6ac696baed8961b59d075c302321483445afe245b0400c697ce","248000.09999999776","507.80000000074506","88","1","arctic","","","","",""
"dual-task","null","null","null","","arctic","swim","686.5","","r","null","88","88","1","arctic-dual-task","","r","lowercase","258000","0","6","dc0517523a7dc6ac696baed8961b59d075c302321483445afe245b0400c697ce","258006.29999999702","686.5","88","1","arctic","","","","",""
"dual-task","null","null","null","","arctic","swim","470.5","","G","null","77","77","1","arctic-dual-task","","G","uppercase","270000","0","6","dc0517523a7dc6ac696baed8961b59d075c302321483445afe245b0400c697ce","270007.8999999985","470.5","77","1","arctic","","","","",""
"dual-task","null","null","null","","arctic","swim","588.8999999985099","","d","null","88","88","1","arctic-dual-task","","d","lowercase","282000","0","6","dc0517523a7dc6ac696baed8961b59d075c302321483445afe245b0400c697ce","282010.59999999776","588.8999999985099","88","1","arctic","","","","",""
"dual-task","null","null","null","","arctic","swim","485.8999999985099","","R","null","77","77","1","arctic-dual-task","","R","uppercase","292000","0","6","dc0517523a7dc6ac696baed8961b59d075c302321483445afe245b0400c697ce","292008.299999997","485.8999999985099","77","1","arctic","","","","",""
"dual-task","null","null","null","","arctic","swim","586.5","","e","null","88","88","1","arctic-dual-task","","e","lowercase","300000","0","6","dc0517523a7dc6ac696baed8961b59d075c302321483445afe245b0400c697ce","300013.59999999776","586.5","88","1","arctic","","","","",""
"dual-task","null","null","null","","arctic","swim","669.3000000007451","","H","null","77","77","1","arctic-dual-task","","H","uppercase","306000","0","6","dc0517523a7dc6ac696baed8961b59d075c302321483445afe245b0400c697ce","306009.69999999925","669.3000000007451","77","1","arctic","","","","",""
"dual-task","null","null","null","","arctic","swim","880.6999999992549","","q","null","88","88","1","arctic-dual-task","","q","lowercase","312000","0","6","dc0517523a7dc6ac696baed8961b59d075c302321483445afe245b0400c697ce","312002.5","880.6999999992549","88","1","arctic","","","","",""
"dual-task","null","null","null","","arctic","swim","851.3000000007451","","g","null","88","88","1","arctic-dual-task","","g","lowercase","318000","0","6","dc0517523a7dc6ac696baed8961b59d075c302321483445afe245b0400c697ce","318013","851.3000000007451","88","1","arctic","","","","",""
"dual-task","null","null","null","","arctic","swim","455.8999999985099","","a","null","88","88","1","arctic-dual-task","","a","lowercase","332000","0","6","dc0517523a7dc6ac696baed8961b59d075c302321483445afe245b0400c697ce","332001.8999999985","455.8999999985099","88","1","arctic","","","","",""
"dual-task","null","null","null","","arctic","swim","705.6999999992549","","N","null","77","77","1","arctic-dual-task","","N","uppercase","344000","0","6","dc0517523a7dc6ac696baed8961b59d075c302321483445afe245b0400c697ce","344006.09999999776","705.6999999992549","77","1","arctic","","","","",""
"dual-task","null","null","null","","arctic","swim","755.5999999977648","","Q","null","77","77","1","arctic-dual-task","","Q","uppercase","350000","0","6","dc0517523a7dc6ac696baed8961b59d075c302321483445afe245b0400c697ce","350004.59999999776","755.5999999977648","77","1","arctic","","","","",""
"dual-task","null","null","null","","arctic","swim","595.3999999985099","","D","null","77","77","1","arctic-dual-task","","D","uppercase","356000","0","6","dc0517523a7dc6ac696baed8961b59d075c302321483445afe245b0400c697ce","356007.299999997","595.3999999985099","77","1","arctic","","","","",""
"dual-task","null","null","null","","arctic","swim","708.6999999992549","","d","null","88","88","1","arctic-dual-task","","d","lowercase","368000","0","6","dc0517523a7dc6ac696baed8961b59d075c302321483445afe245b0400c697ce","368012","708.6999999992549","88","1","arctic","","","","",""
"dual-task","null","null","null","","arctic","swim","922.3999999985099","","a","null","88","88","1","arctic-dual-task","","a","lowercase","378000","0","6","dc0517523a7dc6ac696baed8961b59d075c302321483445afe245b0400c697ce","378013.799999997","922.3999999985099","88","1","arctic","","","","",""
"dual-task","null","null","null","","arctic","swim","728.9000000022352","","Q","null","77","77","1","arctic-dual-task","","Q","uppercase","390000","0","6","dc0517523a7dc6ac696baed8961b59d075c302321483445afe245b0400c697ce","390002.3999999985","728.9000000022352","77","1","arctic","","","","",""
"dual-task","null","null","null","","arctic","swim","797.7000000029802","","r","null","88","88","1","arctic-dual-task","","r","lowercase","402000","0","6","dc0517523a7dc6ac696baed8961b59d075c302321483445afe245b0400c697ce","402006.8999999985","797.7000000029802","88","1","arctic","","","","",""
"dual-task","null","null","null","","arctic","swim","607.8000000007451","","E","null","77","77","1","arctic-dual-task","","E","uppercase","408000","0","6","dc0517523a7dc6ac696baed8961b59d075c302321483445afe245b0400c697ce","408000","607.8000000007451","77","1","arctic","","","","",""
"dual-task","null","null","null","","arctic","swim","718.8999999985099","","D","null","77","77","1","arctic-dual-task","","D","uppercase","414000","0","6","dc0517523a7dc6ac696baed8961b59d075c302321483445afe245b0400c697ce","414010","718.8999999985099","77","1","arctic","","","","",""
"dual-task","null","null","null","","arctic","swim","607.3000000007451","","b","null","88","88","1","arctic-dual-task","","b","lowercase","428000","0","6","dc0517523a7dc6ac696baed8961b59d075c302321483445afe245b0400c697ce","428008.5","607.3000000007451","88","1","arctic","","","","",""
"dual-task","null","null","null","","arctic","swim","684.5","","h","null","88","88","1","arctic-dual-task","","h","lowercase","442000","0","6","dc0517523a7dc6ac696baed8961b59d075c302321483445afe245b0400c697ce","442007","684.5","88","1","arctic","","","","",""
"dual-task","null","null","null","","arctic","swim","848.9000000022352","","g","null","88","88","1","arctic-dual-task","","g","lowercase","448000","0","6","dc0517523a7dc6ac696baed8961b59d075c302321483445afe245b0400c697ce","448000","848.9000000022352","88","1","arctic","","","","",""
"dual-task","null","null","null","","arctic","swim","615.5","","f","null","88","88","1","arctic-dual-task","","f","lowercase","458000","0","6","dc0517523a7dc6ac696baed8961b59d075c302321483445afe245b0400c697ce","458002.299999997","615.5","88","1","arctic","","","","",""
"dual-task","null","null","null","","arctic","swim","665.3000000007451","","E","null","77","77","1","arctic-dual-task","","E","uppercase","468000","0","6","dc0517523a7dc6ac696baed8961b59d075c302321483445afe245b0400c697ce","468008.3999999985","665.3000000007451","77","1","arctic","","","","",""
"dual-task","null","null","null","","arctic","swim","924.6000000014901","","r","null","88","88","1","arctic-dual-task","","r","lowercase","476000","0","6","dc0517523a7dc6ac696baed8961b59d075c302321483445afe245b0400c697ce","476001.3999999985","924.6000000014901","88","1","arctic","","","","",""
"dual-task","null","null","null","","arctic","swim","730.2999999970198","","T","null","77","77","1","arctic-dual-task","","T","uppercase","486000","0","6","dc0517523a7dc6ac696baed8961b59d075c302321483445afe245b0400c697ce","486005.69999999925","730.2999999970198","77","1","arctic","","","","",""
"dual-task","null","null","null","","arctic","swim","626","","h","null","88","88","1","arctic-dual-task","","h","lowercase","496000","0","6","dc0517523a7dc6ac696baed8961b59d075c302321483445afe245b0400c697ce","496009.8999999985","626","88","1","arctic","","","","",""
"dual-task","null","null","null","","arctic","swim","990.3999999985099","","g","null","88","88","1","arctic-dual-task","","g","lowercase","506000","0","6","dc0517523a7dc6ac696baed8961b59d075c302321483445afe245b0400c697ce","506002.8999999985","990.3999999985099","88","1","arctic","","","","",""
"dual-task","null","null","null","","arctic","swim","652.6999999992549","","N","null","77","77","1","arctic-dual-task","","N","uppercase","516000","0","6","dc0517523a7dc6ac696baed8961b59d075c302321483445afe245b0400c697ce","516005","652.6999999992549","77","1","arctic","","","","",""
"dual-task","null","null","null","","arctic","swim","647.2999999970198","","B","null","77","77","1","arctic-dual-task","","B","uppercase","524000","0","6","dc0517523a7dc6ac696baed8961b59d075c302321483445afe245b0400c697ce","524013.8999999985","647.2999999970198","77","1","arctic","","","","",""
"dual-task","null","null","null","","arctic","swim","687.5","","F","null","77","77","1","arctic-dual-task","","F","uppercase","532000","0","6","dc0517523a7dc6ac696baed8961b59d075c302321483445afe245b0400c697ce","532007.3999999985","687.5","77","1","arctic","","","","",""
"dual-task","null","null","null","","arctic","swim","1600.800000000745","","e","null","88","88","1","arctic-dual-task","","e","lowercase","540000","0","6","dc0517523a7dc6ac696baed8961b59d075c302321483445afe245b0400c697ce","540001.5","1600.800000000745","88","1","arctic","","","","",""
"dual-task","null","null","null","","arctic","swim","650.3000000007451","","A","null","77","77","1","arctic-dual-task","","A","uppercase","548000","0","6","dc0517523a7dc6ac696baed8961b59d075c302321483445afe245b0400c697ce","548008.6999999993","650.3000000007451","77","1","arctic","","","","",""
"dual-task","null","null","null","","arctic","swim","1086.199999999255","","N","null","77","77","1","arctic-dual-task","","N","uppercase","558000","0","6","dc0517523a7dc6ac696baed8961b59d075c302321483445afe245b0400c697ce","558013","1086.199999999255","77","1","arctic","","","","",""
"dual-task","null","null","null","","arctic","swim","602.0999999977648","","t","null","88","88","1","arctic-dual-task","","t","lowercase","566000","0","6","dc0517523a7dc6ac696baed8961b59d075c302321483445afe245b0400c697ce","566004","602.0999999977648","88","1","arctic","","","","",""
"dual-task","null","null","null","","arctic","swim","783.5","","t","null","88","88","1","arctic-dual-task","","t","lowercase","574000","0","6","dc0517523a7dc6ac696baed8961b59d075c302321483445afe245b0400c697ce","574005.6999999993","783.5","88","1","arctic","","","","",""
"dual-task","null","null","null","","arctic","swim","631.8000000007451","","A","null","77","77","1","arctic-dual-task","","A","uppercase","582000","0","6","dc0517523a7dc6ac696baed8961b59d075c302321483445afe245b0400c697ce","582008.1999999993","631.8000000007451","77","1","arctic","","","","",""
"dual-task","null","null","null","","arctic","swim","841.8999999985099","","t","null","88","88","1","arctic-dual-task","","t","lowercase","588000","0","6","dc0517523a7dc6ac696baed8961b59d075c302321483445afe245b0400c697ce","588013.8999999985","841.8999999985099","88","1","arctic","","","","",""
"dual-task","null","null","null","","arctic","swim","685.6000000014901","","T","null","77","77","1","arctic-dual-task","","T","uppercase","596000","0","6","dc0517523a7dc6ac696baed8961b59d075c302321483445afe245b0400c697ce","596007.0999999978","685.6000000014901","77","1","arctic","","","","",""
"dual-task","null","null","null","","arctic","swim","560","","n","null","88","88","1","arctic-dual-task","","n","lowercase","606000","0","6","dc0517523a7dc6ac696baed8961b59d075c302321483445afe245b0400c697ce","606005.3999999985","560","88","1","arctic","","","","",""
"dual-task","null","null","null","","arctic","swim","584.8999999985099","","T","null","77","77","1","arctic-dual-task","","T","uppercase","616000","0","6","dc0517523a7dc6ac696baed8961b59d075c302321483445afe245b0400c697ce","616009.8999999985","584.8999999985099","77","1","arctic","","","","",""
"dual-task","null","null","null","","arctic","swim","661","","H","null","77","77","1","arctic-dual-task","","H","uppercase","626000","0","6","dc0517523a7dc6ac696baed8961b59d075c302321483445afe245b0400c697ce","626011.3999999985","661","77","1","arctic","","","","",""
"dual-task","null","null","null","","arctic","swim","589.3999999985099","","F","null","77","77","1","arctic-dual-task","","F","uppercase","634000","0","6","dc0517523a7dc6ac696baed8961b59d075c302321483445afe245b0400c697ce","634007.6999999993","589.3999999985099","77","1","arctic","","","","",""
"dual-task","null","null","null","","arctic","swim","931.8000000007451","","f","null","88","88","1","arctic-dual-task","","f","lowercase","640000","0","6","dc0517523a7dc6ac696baed8961b59d075c302321483445afe245b0400c697ce","640012.1999999993","931.8000000007451","88","1","arctic","","","","",""
"dual-task","null","null","null","","arctic","swim","574","","R","null","77","77","1","arctic-dual-task","","R","uppercase","648000","0","6","dc0517523a7dc6ac696baed8961b59d075c302321483445afe245b0400c697ce","648004.299999997","574","77","1","arctic","","","","",""
"dual-task","null","null","null","","arctic","swim","608.5","","Q","null","77","77","1","arctic-dual-task","","Q","uppercase","660000","0","6","dc0517523a7dc6ac696baed8961b59d075c302321483445afe245b0400c697ce","660003.5","608.5","77","1","arctic","","","","",""
"dual-task","null","null","null","","arctic","swim","622.8999999985099","","d","null","88","88","1","arctic-dual-task","","d","lowercase","668000","0","6","dc0517523a7dc6ac696baed8961b59d075c302321483445afe245b0400c697ce","668014","622.8999999985099","88","1","arctic","","","","",""
"dual-task","null","null","null","","arctic","swim","660","","E","null","77","77","1","arctic-dual-task","","E","uppercase","676000","0","6","dc0517523a7dc6ac696baed8961b59d075c302321483445afe245b0400c697ce","676004.299999997","660","77","1","arctic","","","","",""
"dual-task","null","null","null","","arctic","swim","591.1000000014901","","G","null","77","77","1","arctic-dual-task","","G","uppercase","686000","0","6","dc0517523a7dc6ac696baed8961b59d075c302321483445afe245b0400c697ce","686009.8999999985","591.1000000014901","77","1","arctic","","","","",""
"dual-task","null","null","null","","arctic","swim","610.3999999985099","","H","null","77","77","1","arctic-dual-task","","H","uppercase","692000","0","6","dc0517523a7dc6ac696baed8961b59d075c302321483445afe245b0400c697ce","692005.3999999985","610.3999999985099","77","1","arctic","","","","",""
"dual-task","null","null","null","","arctic","swim","698.3999999985099","","h","null","88","88","1","arctic-dual-task","","h","lowercase","702000","0","6","dc0517523a7dc6ac696baed8961b59d075c302321483445afe245b0400c697ce","702009.5999999978","698.3999999985099","88","1","arctic","","","","",""
"dual-task","null","null","null","","arctic","swim","613.6999999992549","","t","null","88","88","1","arctic-dual-task","","t","lowercase","710000","0","6","dc0517523a7dc6ac696baed8961b59d075c302321483445afe245b0400c697ce","710013.8999999985","613.6999999992549","88","1","arctic","","","","",""
"dual-task","null","null","null","","arctic","swim","561.9000000022352","","A","null","77","77","1","arctic-dual-task","","A","uppercase","716000","0","6","dc0517523a7dc6ac696baed8961b59d075c302321483445afe245b0400c697ce","716006.8999999985","561.9000000022352","77","1","arctic","","","","",""
"dual-task","null","null","null","","arctic","swim","501.19999999925494","","G","null","77","77","1","arctic-dual-task","","G","uppercase","724000","0","6","dc0517523a7dc6ac696baed8961b59d075c302321483445afe245b0400c697ce","724013.1999999993","501.19999999925494","77","1","arctic","","","","",""
"dual-task","null","null","null","","arctic","swim","657.3999999985099","","n","null","88","88","1","arctic-dual-task","","n","lowercase","732000","0","6","dc0517523a7dc6ac696baed8961b59d075c302321483445afe245b0400c697ce","732005.8999999985","657.3999999985099","88","1","arctic","","","","",""
"dual-task","null","null","null","","arctic","swim","513.8000000007451","","e","null","88","88","1","arctic-dual-task","","e","lowercase","740000","0","6","dc0517523a7dc6ac696baed8961b59d075c302321483445afe245b0400c697ce","740009.299999997","513.8000000007451","88","1","arctic","","","","",""
"dual-task","null","null","null","","arctic","swim","563.4000000022352","","b","null","88","88","1","arctic-dual-task","","b","lowercase","748000","0","6","dc0517523a7dc6ac696baed8961b59d075c302321483445afe245b0400c697ce","748012","563.4000000022352","88","1","arctic","","","","",""
"dual-task","null","null","null","","arctic","swim","556.5999999977648","","R","null","77","77","1","arctic-dual-task","","R","uppercase","760000","0","6","dc0517523a7dc6ac696baed8961b59d075c302321483445afe245b0400c697ce","760014.3999999985","556.5999999977648","77","1","arctic","","","","",""
"dual-task","null","null","null","","arctic","swim","580.1000000014901","","T","null","77","77","1","arctic-dual-task","","T","uppercase","770000","0","6","dc0517523a7dc6ac696baed8961b59d075c302321483445afe245b0400c697ce","770004.799999997","580.1000000014901","77","1","arctic","","","","",""
"dual-task","null","null","null","","arctic","swim","1074.8999999985099","","g","null","88","88","1","arctic-dual-task","","g","lowercase","776000","0","6","dc0517523a7dc6ac696baed8961b59d075c302321483445afe245b0400c697ce","776012.0999999978","1074.8999999985099","88","1","arctic","","","","",""
"dual-task","null","null","null","","arctic","swim","437.1000000014901","","R","null","77","77","1","arctic-dual-task","","R","uppercase","790000","0","6","dc0517523a7dc6ac696baed8961b59d075c302321483445afe245b0400c697ce","790004.0999999978","437.1000000014901","77","1","arctic","","","","",""
"audio-keyboard-response","29","985503","0.0-6.0-0.0-1.0","dc0517523a7dc6ac696baed8961b59d075c302321483445afe245b0400c697ce","arctic","swim","null","","audio/story_arctic.mp3","","null","","","","","","","","","","","","","","","","","","","",""
"html-button-response","30","988489","0.0-6.0-0.0-2.0","dc0517523a7dc6ac696baed8961b59d075c302321483445afe245b0400c697ce","arctic","swim","2985","","<p>This concludes the story. Thank you for listening.</p><p>You will now answer some questions about the content of the story.</p>","0","","","","","","","","","","","","","","","","","","","","",""
"survey-multi-choice","31","993432","0.0-6.0-0.0-3.0-0.0","dc0517523a7dc6ac696baed8961b59d075c302321483445afe245b0400c697ce","arctic","swim","4942","","<b>What is the name of the narrator&#39;s neighbour?</b>","","","","1","arctic-comprehension","","","","","","","","","","","","","{""Q0"":""Dave""}","","","",""
"survey-multi-choice","32","1000489","0.0-6.0-0.0-3.0-0.1","dc0517523a7dc6ac696baed8961b59d075c302321483445afe245b0400c697ce","arctic","swim","6803","","<b>How did the dogs respond when they saw the bears?</b>","","","","1","arctic-comprehension","","","","","","","","","","","","","{""Q0"":""Approached them""}","","","",""
"survey-multi-choice","33","1007107","0.0-6.0-0.0-3.0-0.2","dc0517523a7dc6ac696baed8961b59d075c302321483445afe245b0400c697ce","arctic","swim","6363","","<b>How did the narrator&#39;s neighbour respond when she told him about her expedition?</b>","","","","1","arctic-comprehension","","","","","","","","","","","","","{""Q0"":""He said she was going to fail.""}","","","",""
"survey-multi-choice","34","1010809","0.0-6.0-0.0-3.0-0.3","dc0517523a7dc6ac696baed8961b59d075c302321483445afe245b0400c697ce","arctic","swim","3431","","<b>What did the narrator do for leisure while in her tent?</b>","","","","1","arctic-comprehension","","","","","","","","","","","","","{""Q0"":""Read""}","","","",""
"survey-multi-choice","35","1015060","0.0-6.0-0.0-3.0-0.4","dc0517523a7dc6ac696baed8961b59d075c302321483445afe245b0400c697ce","arctic","swim","3997","","<b>What was the objective of the narrator&#39;s expedition?</b>","","","","1","arctic-comprehension","","","","","","","","","","","","","{""Q0"":""Dogsled across Arctic America""}","","","",""
"survey-multi-choice","36","1019482","0.0-6.0-0.0-3.0-0.5","dc0517523a7dc6ac696baed8961b59d075c302321483445afe245b0400c697ce","arctic","swim","4166","","<b>How many sponsorships did the narrator receive to support her expedition?</b>","","","","1","arctic-comprehension","","","","","","","","","","","","","{""Q0"":""None""}","","","",""
"survey-multi-choice","37","1024993","0.0-6.0-0.0-3.0-0.6","dc0517523a7dc6ac696baed8961b59d075c302321483445afe245b0400c697ce","arctic","swim","5255","","<b>Which dog on the narrator&#39;s dog team never followed instructions?</b>","","","","1","arctic-comprehension","","","","","","","","","","","","","{""Q0"":""Robert""}","","","",""
"survey-multi-choice","38","1031957","0.0-6.0-0.0-3.0-0.7","dc0517523a7dc6ac696baed8961b59d075c302321483445afe245b0400c697ce","arctic","swim","6704","","<b>How did the narrator prepare for her expedition?</b>","","","","1","arctic-comprehension","","","","","","","","","","","","","{""Q0"":""Trained in Alaska learning how to dogsled""}","","","",""
"survey-multi-choice","39","1037562","0.0-6.0-0.0-3.0-0.8","dc0517523a7dc6ac696baed8961b59d075c302321483445afe245b0400c697ce","arctic","swim","5354","","<b>What were the weather conditions in the Arctic like the winter of the narrator&#39;s expedition?</b>","","","","1","arctic-comprehension","","","","","","","","","","","","","{""Q0"":""There were more storms than any other winter in recorded history.""}","","","",""
"survey-multi-choice","40","1044358","0.0-6.0-0.0-3.0-0.9","dc0517523a7dc6ac696baed8961b59d075c302321483445afe245b0400c697ce","arctic","swim","6543","","<b>How did the narrator&#39;s encounter with the polar bears end?</b>","","","","1","arctic-comprehension","","","","","","","","","","","","","{""Q0"":""The bears walked back to their den.""}","","","",""
"html-button-response","41","1045749","0.0-6.0-0.0-4.0","dc0517523a7dc6ac696baed8961b59d075c302321483445afe245b0400c697ce","arctic","swim","1139","","<p>Thank you for your responses.</p><p>You will now answer some questions about your impressions of the story.</p>","0","","","","","","","","","","","","","","","","","","","","",""
"html-button-response","42","1050413","0.0-6.0-0.0-5.0-0.0","dc0517523a7dc6ac696baed8961b59d075c302321483445afe245b0400c697ce","arctic","swim","4663","","MS3","4","","","","arctic-engagement","","","","","","","","","","","","","","5","mental-sim","",""
"html-button-response","43","1054870","0.0-6.0-0.0-5.0-0.1","dc0517523a7dc6ac696baed8961b59d075c302321483445afe245b0400c697ce","arctic","swim","4205","","A5","5","","","","arctic-engagement","","","","","","","","","","","","","","6","absorption","",""
"html-button-response","44","1057912","0.0-6.0-0.0-5.0-0.2","dc0517523a7dc6ac696baed8961b59d075c302321483445afe245b0400c697ce","arctic","swim","2790","","EE4","3","","","","arctic-engagement","","","","","","","","","","","","","","4","emo-engage","",""
"html-button-response","45","1060139","0.0-6.0-0.0-5.0-0.3","dc0517523a7dc6ac696baed8961b59d075c302321483445afe245b0400c697ce","arctic","swim","1974","","EE2","5","","","","arctic-engagement","","","","","","","","","","","","","","6","emo-engage","",""
"html-button-response","46","1062272","0.0-6.0-0.0-5.0-0.4","dc0517523a7dc6ac696baed8961b59d075c302321483445afe245b0400c697ce","arctic","swim","1880","","E1","6","","","","arctic-engagement","","","","","","","","","","","","","","7","enjoyment","",""
"html-button-response","47","1065212","0.0-6.0-0.0-5.0-0.5","dc0517523a7dc6ac696baed8961b59d075c302321483445afe245b0400c697ce","arctic","swim","2688","","A1","5","","","","arctic-engagement","","","","","","","","","","","","","","6","absorption","",""
"html-button-response","48","1067164","0.0-6.0-0.0-5.0-0.6","dc0517523a7dc6ac696baed8961b59d075c302321483445afe245b0400c697ce","arctic","swim","1700","","E7","6","","","","arctic-engagement","","","","","","","","","","","","","","7","enjoyment","",""
"html-button-response","49","1068612","0.0-6.0-0.0-5.0-0.7","dc0517523a7dc6ac696baed8961b59d075c302321483445afe245b0400c697ce","arctic","swim","1197","","E6","6","","","","arctic-engagement","","","","","","","","","","","","","","7","enjoyment","",""
"html-button-response","50","1070257","0.0-6.0-0.0-5.0-0.8","dc0517523a7dc6ac696baed8961b59d075c302321483445afe245b0400c697ce","arctic","swim","1393","","E10","6","","","","arctic-engagement","","","","","","","","","","","","","","7","enjoyment","",""
"html-button-response","51","1073694","0.0-6.0-0.0-5.0-0.9","dc0517523a7dc6ac696baed8961b59d075c302321483445afe245b0400c697ce","arctic","swim","3185","","MS2","6","","","","arctic-engagement","","","","","","","","","","","","","","7","mental-sim","",""
"html-button-response","52","1076468","0.0-6.0-0.0-5.0-0.10","dc0517523a7dc6ac696baed8961b59d075c302321483445afe245b0400c697ce","arctic","swim","2521","","MS1","5","","","","arctic-engagement","","","","","","","","","","","","","","6","mental-sim","",""
"html-button-response","53","1078673","0.0-6.0-0.0-5.0-0.11","dc0517523a7dc6ac696baed8961b59d075c302321483445afe245b0400c697ce","arctic","swim","1953","","A3","6","","","","arctic-engagement","","","","","","","","","","","","","","7","absorption","",""
"html-button-response","54","1081228","0.0-6.0-0.0-5.0-0.12","dc0517523a7dc6ac696baed8961b59d075c302321483445afe245b0400c697ce","arctic","swim","2302","","EE3","5","","","","arctic-engagement","","","","","","","","","","","","","","6","emo-engage","",""
"html-button-response","55","1083193","0.0-6.0-0.0-5.0-0.13","dc0517523a7dc6ac696baed8961b59d075c302321483445afe245b0400c697ce","arctic","swim","1713","","EE5","5","","","","arctic-engagement","","","","","","","","","","","","","","6","emo-engage","",""
"html-button-response","56","1084963","0.0-6.0-0.0-5.0-0.14","dc0517523a7dc6ac696baed8961b59d075c302321483445afe245b0400c697ce","arctic","swim","1520","","E8","6","","","","arctic-engagement","","","","","","","","","","","","","","7","enjoyment","",""
"html-button-response","57","1088022","0.0-6.0-0.0-5.0-0.15","dc0517523a7dc6ac696baed8961b59d075c302321483445afe245b0400c697ce","arctic","swim","2808","","EE1","4","","","","arctic-engagement","","","","","","","","","","","","","","5","emo-engage","",""
"html-button-response","58","1091341","0.0-6.0-0.0-5.0-0.16","dc0517523a7dc6ac696baed8961b59d075c302321483445afe245b0400c697ce","arctic","swim","3065","","A4","4","","","","arctic-engagement","","","","","","","","","","","","","","5","absorption","",""
"html-button-response","59","1094074","0.0-6.0-0.0-5.0-0.17","dc0517523a7dc6ac696baed8961b59d075c302321483445afe245b0400c697ce","arctic","swim","2479","","A2","6","","","","arctic-engagement","","","","","","","","","","","","","","7","absorption","",""
"html-keyboard-response","60","1100930","0.0-6.0-1.0","dc0517523a7dc6ac696baed8961b59d075c302321483445afe245b0400c697ce","arctic","swim","6603","","<p>Thank you for your responses. You will now listen to the second story.</p><p>Remember, as you listen to the story you will see letters appear on the screen.</br>As quickly as possible, press <b>&lt;x&gt;</b> if the letter is lowercase and <b>&lt;m&gt;</b> if the letter is uppercase.</p><p>Press <b>&lt;x&gt;</b> or <b>&lt;m&gt;</b> to begin listening!</p>","","88","","","","","","","","","","","","","","","","","","","",""
"html-keyboard-response","61","1101432","0.0-6.0-2.0-0.0","dc0517523a7dc6ac696baed8961b59d075c302321483445afe245b0400c697ce","arctic","swim","null","","<div style=""font-size:60px;"" tabindex=""0"">+</div>","","null","","","","","","","","","","","","","","","","","","","",""
"dual-task","null","null","null","","arctic","swim","576.3000000007451","","F","null","77","77","1","swim-dual-task","","F","uppercase","18000","0","6","dc0517523a7dc6ac696baed8961b59d075c302321483445afe245b0400c697ce","18008.199999999255","576.3000000007451","77","1","swim","","","","",""
"dual-task","null","null","null","","arctic","swim","518.1000000014901","","n","null","88","88","1","swim-dual-task","","n","lowercase","30000","0","6","dc0517523a7dc6ac696baed8961b59d075c302321483445afe245b0400c697ce","30006.5","518.1000000014901","88","1","swim","","","","",""
"dual-task","null","null","null","","arctic","swim","603.8000000007451","","b","null","88","88","1","swim-dual-task","","b","lowercase","40000","0","6","dc0517523a7dc6ac696baed8961b59d075c302321483445afe245b0400c697ce","40012.099999997765","603.8000000007451","88","1","swim","","","","",""
"dual-task","null","null","null","","arctic","swim","600.9000000022352","","e","null","88","88","1","swim-dual-task","","e","lowercase","54000","0","6","dc0517523a7dc6ac696baed8961b59d075c302321483445afe245b0400c697ce","54006.199999999255","600.9000000022352","88","1","swim","","","","",""
"dual-task","null","null","null","","arctic","swim","601.5","","R","null","77","77","1","swim-dual-task","","R","uppercase","62000","0","6","dc0517523a7dc6ac696baed8961b59d075c302321483445afe245b0400c697ce","62002.099999997765","601.5","77","1","swim","","","","",""
"dual-task","null","null","null","","arctic","swim","606","","d","null","88","88","1","swim-dual-task","","d","lowercase","76000","0","6","dc0517523a7dc6ac696baed8961b59d075c302321483445afe245b0400c697ce","76000","606","88","1","swim","","","","",""
"dual-task","null","null","null","","arctic","swim","504.5","","G","null","77","77","1","swim-dual-task","","G","uppercase","86000","0","6","dc0517523a7dc6ac696baed8961b59d075c302321483445afe245b0400c697ce","85999.89999999851","504.5","77","1","swim","","","","",""
"dual-task","null","null","null","","arctic","swim","566.6999999992549","","d","null","88","88","1","swim-dual-task","","d","lowercase","100000","0","6","dc0517523a7dc6ac696baed8961b59d075c302321483445afe245b0400c697ce","100004.5","566.6999999992549","88","1","swim","","","","",""
"dual-task","null","null","null","","arctic","swim","821.6000000014901","","b","null","88","88","1","swim-dual-task","","b","lowercase","106000","0","6","dc0517523a7dc6ac696baed8961b59d075c302321483445afe245b0400c697ce","106004.89999999851","821.6000000014901","88","1","swim","","","","",""
"dual-task","null","null","null","","arctic","swim","641.1999999992549","","g","null","88","88","1","swim-dual-task","","g","lowercase","114000","0","6","dc0517523a7dc6ac696baed8961b59d075c302321483445afe245b0400c697ce","114005.89999999851","641.1999999992549","88","1","swim","","","","",""
"dual-task","null","null","null","","arctic","swim","727.1999999992549","","Q","null","88","77","0","swim-dual-task","","Q","uppercase","128000","0","6","dc0517523a7dc6ac696baed8961b59d075c302321483445afe245b0400c697ce","128013.09999999776","727.1999999992549","88","0","swim","","","","",""
"dual-task","null","null","null","","arctic","swim","808.3999999985099","","F","null","77","77","1","swim-dual-task","","F","uppercase","140000","0","6","dc0517523a7dc6ac696baed8961b59d075c302321483445afe245b0400c697ce","140014.30000000075","808.3999999985099","77","1","swim","","","","",""
"dual-task","null","null","null","","arctic","swim","511.6000000014901","","B","null","77","77","1","swim-dual-task","","B","uppercase","152000","0","6","dc0517523a7dc6ac696baed8961b59d075c302321483445afe245b0400c697ce","152014.5","511.6000000014901","77","1","swim","","","","",""
"dual-task","null","null","null","","arctic","swim","723.1000000014901","","e","null","88","88","1","swim-dual-task","","e","lowercase","164000","0","6","dc0517523a7dc6ac696baed8961b59d075c302321483445afe245b0400c697ce","164001.69999999925","723.1000000014901","88","1","swim","","","","",""
"dual-task","null","null","null","","arctic","swim","920.5","","g","null","88","88","1","swim-dual-task","","g","lowercase","172000","0","6","dc0517523a7dc6ac696baed8961b59d075c302321483445afe245b0400c697ce","172006.19999999925","920.5","88","1","swim","","","","",""
"dual-task","null","null","null","","arctic","swim","510","","G","null","77","77","1","swim-dual-task","","G","uppercase","184000","0","6","dc0517523a7dc6ac696baed8961b59d075c302321483445afe245b0400c697ce","184001.8999999985","510","77","1","swim","","","","",""
"dual-task","null","null","null","","arctic","swim","571.1000000014901","","T","null","77","77","1","swim-dual-task","","T","uppercase","194000","0","6","dc0517523a7dc6ac696baed8961b59d075c302321483445afe245b0400c697ce","194001.69999999925","571.1000000014901","77","1","swim","","","","",""
"dual-task","null","null","null","","arctic","swim","873","","n","null","88","88","1","swim-dual-task","","n","lowercase","206000","0","6","dc0517523a7dc6ac696baed8961b59d075c302321483445afe245b0400c697ce","206008.30000000075","873","88","1","swim","","","","",""
"dual-task","null","null","null","","arctic","swim","796.6000000014901","","b","null","88","88","1","swim-dual-task","","b","lowercase","220000","0","6","dc0517523a7dc6ac696baed8961b59d075c302321483445afe245b0400c697ce","220002.80000000075","796.6000000014901","88","1","swim","","","","",""
"dual-task","null","null","null","","arctic","swim","546.7999999970198","","A","null","77","77","1","swim-dual-task","","A","uppercase","232000","0","6","dc0517523a7dc6ac696baed8961b59d075c302321483445afe245b0400c697ce","231999.59999999776","546.7999999970198","77","1","swim","","","","",""
"dual-task","null","null","null","","arctic","swim","903","","B","null","77","77","1","swim-dual-task","","B","uppercase","242000","0","6","dc0517523a7dc6ac696baed8961b59d075c302321483445afe245b0400c697ce","242001.8999999985","903","77","1","swim","","","","",""
"dual-task","null","null","null","","arctic","swim","619.7000000029802","","F","null","77","77","1","swim-dual-task","","F","uppercase","256000","0","6","dc0517523a7dc6ac696baed8961b59d075c302321483445afe245b0400c697ce","256001.3999999985","619.7000000029802","77","1","swim","","","","",""
"dual-task","null","null","null","","arctic","swim","834.9000000022352","","E","null","77","77","1","swim-dual-task","","E","uppercase","262000","0","6","dc0517523a7dc6ac696baed8961b59d075c302321483445afe245b0400c697ce","262008.8999999985","834.9000000022352","77","1","swim","","","","",""
"dual-task","null","null","null","","arctic","swim","704.2999999970198","","f","null","88","88","1","swim-dual-task","","f","lowercase","272000","0","6","dc0517523a7dc6ac696baed8961b59d075c302321483445afe245b0400c697ce","272005.19999999925","704.2999999970198","88","1","swim","","","","",""
"dual-task","null","null","null","","arctic","swim","737.1000000014901","","d","null","88","88","1","swim-dual-task","","d","lowercase","280000","0","6","dc0517523a7dc6ac696baed8961b59d075c302321483445afe245b0400c697ce","280010.80000000075","737.1000000014901","88","1","swim","","","","",""
"dual-task","null","null","null","","arctic","swim","859","","N","null","77","77","1","swim-dual-task","","N","uppercase","288000","0","6","dc0517523a7dc6ac696baed8961b59d075c302321483445afe245b0400c697ce","288005.8999999985","859","77","1","swim","","","","",""
"dual-task","null","null","null","","arctic","swim","616.5","","t","null","88","88","1","swim-dual-task","","t","lowercase","300000","0","6","dc0517523a7dc6ac696baed8961b59d075c302321483445afe245b0400c697ce","300017.59999999776","616.5","88","1","swim","","","","",""
"dual-task","null","null","null","","arctic","swim","530.3000000007451","","R","null","77","77","1","swim-dual-task","","R","uppercase","308000","0","6","dc0517523a7dc6ac696baed8961b59d075c302321483445afe245b0400c697ce","308005.3999999985","530.3000000007451","77","1","swim","","","","",""
"dual-task","null","null","null","","arctic","swim","569.7999999970198","","H","null","77","77","1","swim-dual-task","","H","uppercase","314000","0","6","dc0517523a7dc6ac696baed8961b59d075c302321483445afe245b0400c697ce","314000","569.7999999970198","77","1","swim","","","","",""
"dual-task","null","null","null","","arctic","swim","706.7000000029802","","h","null","88","88","1","swim-dual-task","","h","lowercase","324000","0","6","dc0517523a7dc6ac696baed8961b59d075c302321483445afe245b0400c697ce","324002.19999999925","706.7000000029802","88","1","swim","","","","",""
"dual-task","null","null","null","","arctic","swim","838.3999999985099","","t","null","88","88","1","swim-dual-task","","t","lowercase","334000","0","6","dc0517523a7dc6ac696baed8961b59d075c302321483445afe245b0400c697ce","334010.30000000075","838.3999999985099","88","1","swim","","","","",""
"dual-task","null","null","null","","arctic","swim","544.1000000014901","","r","null","88","88","1","swim-dual-task","","r","lowercase","342000","0","6","dc0517523a7dc6ac696baed8961b59d075c302321483445afe245b0400c697ce","342014.80000000075","544.1000000014901","88","1","swim","","","","",""
"dual-task","null","null","null","","arctic","swim","574.3000000007451","","D","null","77","77","1","swim-dual-task","","D","uppercase","350000","0","6","dc0517523a7dc6ac696baed8961b59d075c302321483445afe245b0400c697ce","350005.09999999776","574.3000000007451","77","1","swim","","","","",""
"dual-task","null","null","null","","arctic","swim","466.9000000022352","","a","null","88","88","1","swim-dual-task","","a","lowercase","358000","0","6","dc0517523a7dc6ac696baed8961b59d075c302321483445afe245b0400c697ce","358010.59999999776","466.9000000022352","88","1","swim","","","","",""
"dual-task","null","null","null","","arctic","swim","594","","r","null","88","88","1","swim-dual-task","","r","lowercase","368000","0","6","dc0517523a7dc6ac696baed8961b59d075c302321483445afe245b0400c697ce","368000.5","594","88","1","swim","","","","",""
"dual-task","null","null","null","","arctic","swim","756","","d","null","88","88","1","swim-dual-task","","d","lowercase","376000","0","6","dc0517523a7dc6ac696baed8961b59d075c302321483445afe245b0400c697ce","376005.80000000075","756","88","1","swim","","","","",""
"dual-task","null","null","null","","arctic","swim","798.1000000014901","","R","null","77","77","1","swim-dual-task","","R","uppercase","386000","0","6","dc0517523a7dc6ac696baed8961b59d075c302321483445afe245b0400c697ce","386010.8999999985","798.1000000014901","77","1","swim","","","","",""
"dual-task","null","null","null","","arctic","swim","920.3000000007451","","E","null","77","77","1","swim-dual-task","","E","uppercase","396000","0","6","dc0517523a7dc6ac696baed8961b59d075c302321483445afe245b0400c697ce","396011.09999999776","920.3000000007451","77","1","swim","","","","",""
"dual-task","null","null","null","","arctic","swim","770.8999999985099","","f","null","88","88","1","swim-dual-task","","f","lowercase","402000","0","6","dc0517523a7dc6ac696baed8961b59d075c302321483445afe245b0400c697ce","402000.5","770.8999999985099","88","1","swim","","","","",""
"dual-task","null","null","null","","arctic","swim","634.6999999992549","","f","null","88","88","1","swim-dual-task","","f","lowercase","414000","0","6","dc0517523a7dc6ac696baed8961b59d075c302321483445afe245b0400c697ce","414014.5","634.6999999992549","88","1","swim","","","","",""
"dual-task","null","null","null","","arctic","swim","743.1000000014901","","h","null","88","88","1","swim-dual-task","","h","lowercase","426000","0","6","dc0517523a7dc6ac696baed8961b59d075c302321483445afe245b0400c697ce","426000.3999999985","743.1000000014901","88","1","swim","","","","",""
"dual-task","null","null","null","","arctic","swim","610.5999999977648","","Q","null","77","77","1","swim-dual-task","","Q","uppercase","434000","0","6","dc0517523a7dc6ac696baed8961b59d075c302321483445afe245b0400c697ce","434002.69999999925","610.5999999977648","77","1","swim","","","","",""
"dual-task","null","null","null","","arctic","swim","598.6000000014901","","A","null","77","77","1","swim-dual-task","","A","uppercase","446000","0","6","dc0517523a7dc6ac696baed8961b59d075c302321483445afe245b0400c697ce","446014.5","598.6000000014901","77","1","swim","","","","",""
"dual-task","null","null","null","","arctic","swim","701.5","","f","null","88","88","1","swim-dual-task","","f","lowercase","452000","0","6","dc0517523a7dc6ac696baed8961b59d075c302321483445afe245b0400c697ce","452006.59999999776","701.5","88","1","swim","","","","",""
"dual-task","null","null","null","","arctic","swim","1255.300000000745","","E","null","88","77","0","swim-dual-task","","E","uppercase","462000","0","6","dc0517523a7dc6ac696baed8961b59d075c302321483445afe245b0400c697ce","462009.09999999776","1255.300000000745","88","0","swim","","","","",""
"dual-task","null","null","null","","arctic","swim","1835.6000000014901","","Q","null","77","77","1","swim-dual-task","","Q","uppercase","468000","0","6","dc0517523a7dc6ac696baed8961b59d075c302321483445afe245b0400c697ce","468002.59999999776","1835.6000000014901","77","1","swim","","","","",""
"dual-task","null","null","null","","arctic","swim","575.8999999985099","","N","null","77","77","1","swim-dual-task","","N","uppercase","480000","0","6","dc0517523a7dc6ac696baed8961b59d075c302321483445afe245b0400c697ce","480012","575.8999999985099","77","1","swim","","","","",""
"dual-task","null","null","null","","arctic","swim","729.1000000014901","","N","null","77","77","1","swim-dual-task","","N","uppercase","488000","0","6","dc0517523a7dc6ac696baed8961b59d075c302321483445afe245b0400c697ce","488004.19999999925","729.1000000014901","77","1","swim","","","","",""
"dual-task","null","null","null","","arctic","swim","613.4000000022352","","n","null","88","88","1","swim-dual-task","","n","lowercase","496000","0","6","dc0517523a7dc6ac696baed8961b59d075c302321483445afe245b0400c697ce","496009.09999999776","613.4000000022352","88","1","swim","","","","",""
"dual-task","null","null","null","","arctic","swim","505.5","","a","null","88","88","1","swim-dual-task","","a","lowercase","504000","0","6","dc0517523a7dc6ac696baed8961b59d075c302321483445afe245b0400c697ce","504010.80000000075","505.5","88","1","swim","","","","",""
"dual-task","null","null","null","","arctic","swim","569.7999999970198","","T","null","77","77","1","swim-dual-task","","T","uppercase","514000","0","6","dc0517523a7dc6ac696baed8961b59d075c302321483445afe245b0400c697ce","514013.69999999925","569.7999999970198","77","1","swim","","","","",""
"dual-task","null","null","null","","arctic","swim","649.4000000022352","","h","null","88","88","1","swim-dual-task","","h","lowercase","526000","0","6","dc0517523a7dc6ac696baed8961b59d075c302321483445afe245b0400c697ce","526011.0999999978","649.4000000022352","88","1","swim","","","","",""
"dual-task","null","null","null","","arctic","swim","749.1000000014901","","Q","null","77","77","1","swim-dual-task","","Q","uppercase","534000","0","6","dc0517523a7dc6ac696baed8961b59d075c302321483445afe245b0400c697ce","534003","749.1000000014901","77","1","swim","","","","",""
"dual-task","null","null","null","","arctic","swim","604.3999999985099","","n","null","88","88","1","swim-dual-task","","n","lowercase","546000","0","6","dc0517523a7dc6ac696baed8961b59d075c302321483445afe245b0400c697ce","546001.8000000007","604.3999999985099","88","1","swim","","","","",""
"dual-task","null","null","null","","arctic","swim","762.8000000007451","","g","null","88","88","1","swim-dual-task","","g","lowercase","558000","0","6","dc0517523a7dc6ac696baed8961b59d075c302321483445afe245b0400c697ce","558007.0999999978","762.8000000007451","88","1","swim","","","","",""
"dual-task","null","null","null","","arctic","swim","604.9000000022352","","R","null","77","77","1","swim-dual-task","","R","uppercase","570000","0","6","dc0517523a7dc6ac696baed8961b59d075c302321483445afe245b0400c697ce","570005.8999999985","604.9000000022352","77","1","swim","","","","",""
"dual-task","null","null","null","","arctic","swim","486.79999999701977","","G","null","77","77","1","swim-dual-task","","G","uppercase","582000","0","6","dc0517523a7dc6ac696baed8961b59d075c302321483445afe245b0400c697ce","582007.3999999985","486.79999999701977","77","1","swim","","","","",""
"dual-task","null","null","null","","arctic","swim","611.9000000022352","","q","null","88","88","1","swim-dual-task","","q","lowercase","594000","0","6","dc0517523a7dc6ac696baed8961b59d075c302321483445afe245b0400c697ce","594012.0999999978","611.9000000022352","88","1","swim","","","","",""
"dual-task","null","null","null","","arctic","swim","NA","","A","null","NA","77","0","swim-dual-task","","A","uppercase","602000","1","6","dc0517523a7dc6ac696baed8961b59d075c302321483445afe245b0400c697ce","602003.3000000007","NA","NA","0","swim","","","","",""
"dual-task","null","null","null","","arctic","swim","768.1000000014901","","e","null","88","88","1","swim-dual-task","","e","lowercase","616000","0","6","dc0517523a7dc6ac696baed8961b59d075c302321483445afe245b0400c697ce","616003.0999999978","768.1000000014901","88","1","swim","","","","",""
"dual-task","null","null","null","","arctic","swim","1396.0999999977648","","F","null","77","77","1","swim-dual-task","","F","uppercase","622000","0","6","dc0517523a7dc6ac696baed8961b59d075c302321483445afe245b0400c697ce","622009.5999999978","1396.0999999977648","77","1","swim","","","","",""
"dual-task","null","null","null","","arctic","swim","776.7000000029802","","a","null","88","88","1","swim-dual-task","","a","lowercase","636000","0","6","dc0517523a7dc6ac696baed8961b59d075c302321483445afe245b0400c697ce","636006.3999999985","776.7000000029802","88","1","swim","","","","",""
"dual-task","null","null","null","","arctic","swim","553.8000000007451","","H","null","77","77","1","swim-dual-task","","H","uppercase","644000","0","6","dc0517523a7dc6ac696baed8961b59d075c302321483445afe245b0400c697ce","644012.3000000007","553.8000000007451","77","1","swim","","","","",""
"dual-task","null","null","null","","arctic","swim","608","","t","null","88","88","1","swim-dual-task","","t","lowercase","654000","0","6","dc0517523a7dc6ac696baed8961b59d075c302321483445afe245b0400c697ce","654001.0999999978","608","88","1","swim","","","","",""
"dual-task","null","null","null","","arctic","swim","833.8999999985099","","t","null","88","88","1","swim-dual-task","","t","lowercase","668000","0","6","dc0517523a7dc6ac696baed8961b59d075c302321483445afe245b0400c697ce","668003.1999999993","833.8999999985099","88","1","swim","","","","",""
"dual-task","null","null","null","","arctic","swim","NA","","r","null","NA","88","0","swim-dual-task","","r","lowercase","676000","1","6","dc0517523a7dc6ac696baed8961b59d075c302321483445afe245b0400c697ce","676011.3000000007","NA","NA","0","swim","","","","",""
"dual-task","null","null","null","","arctic","swim","683","","G","null","77","77","1","swim-dual-task","","G","uppercase","686000","0","6","dc0517523a7dc6ac696baed8961b59d075c302321483445afe245b0400c697ce","686002.3000000007","683","77","1","swim","","","","",""
"dual-task","null","null","null","","arctic","swim","855.5","","H","null","77","77","1","swim-dual-task","","H","uppercase","698000","0","6","dc0517523a7dc6ac696baed8961b59d075c302321483445afe245b0400c697ce","698000.8999999985","855.5","77","1","swim","","","","",""
"dual-task","null","null","null","","arctic","swim","1382.199999999255","","e","null","88","88","1","swim-dual-task","","e","lowercase","708000","0","6","dc0517523a7dc6ac696baed8961b59d075c302321483445afe245b0400c697ce","708011","1382.199999999255","88","1","swim","","","","",""
"dual-task","null","null","null","","arctic","swim","1030","","h","null","88","88","1","swim-dual-task","","h","lowercase","720000","0","6","dc0517523a7dc6ac696baed8961b59d075c302321483445afe245b0400c697ce","720009.8000000007","1030","88","1","swim","","","","",""
"dual-task","null","null","null","","arctic","swim","918.5","","g","null","88","88","1","swim-dual-task","","g","lowercase","728000","0","6","dc0517523a7dc6ac696baed8961b59d075c302321483445afe245b0400c697ce","728015.0999999978","918.5","88","1","swim","","","","",""
"dual-task","null","null","null","","arctic","swim","NA","","r","null","NA","88","0","swim-dual-task","","r","lowercase","740000","1","6","dc0517523a7dc6ac696baed8961b59d075c302321483445afe245b0400c697ce","740001.8999999985","NA","NA","0","swim","","","","",""
"dual-task","null","null","null","","arctic","swim","611.1000000014901","","q","null","88","88","1","swim-dual-task","","q","lowercase","754000","0","6","dc0517523a7dc6ac696baed8961b59d075c302321483445afe245b0400c697ce","754001.1999999993","611.1000000014901","88","1","swim","","","","",""
"dual-task","null","null","null","","arctic","swim","806.3999999985099","","B","null","77","77","1","swim-dual-task","","B","uppercase","762000","0","6","dc0517523a7dc6ac696baed8961b59d075c302321483445afe245b0400c697ce","762007.3999999985","806.3999999985099","77","1","swim","","","","",""
"dual-task","null","null","null","","arctic","swim","870.1999999992549","","q","null","88","88","1","swim-dual-task","","q","lowercase","770000","0","6","dc0517523a7dc6ac696baed8961b59d075c302321483445afe245b0400c697ce","770011.3000000007","870.1999999992549","88","1","swim","","","","",""
"dual-task","null","null","null","","arctic","swim","838.6999999992549","","B","null","77","77","1","swim-dual-task","","B","uppercase","778000","0","6","dc0517523a7dc6ac696baed8961b59d075c302321483445afe245b0400c697ce","778002.5999999978","838.6999999992549","77","1","swim","","","","",""
"dual-task","null","null","null","","arctic","swim","441.5","","A","null","77","77","1","swim-dual-task","","A","uppercase","786000","0","6","dc0517523a7dc6ac696baed8961b59d075c302321483445afe245b0400c697ce","786006.5999999978","441.5","77","1","swim","","","","",""
"dual-task","null","null","null","","arctic","swim","586","","T","null","77","77","1","swim-dual-task","","T","uppercase","800000","0","6","dc0517523a7dc6ac696baed8961b59d075c302321483445afe245b0400c697ce","800009.6999999993","586","77","1","swim","","","","",""
"audio-keyboard-response","62","1911454","0.0-6.0-2.0-1.0","dc0517523a7dc6ac696baed8961b59d075c302321483445afe245b0400c697ce","arctic","swim","null","","audio/story_swim_scrambled.mp3","","null","","","","","","","","","","","","","","","","","","","",""
"html-button-response","63","1914590","0.0-6.0-2.0-2.0","dc0517523a7dc6ac696baed8961b59d075c302321483445afe245b0400c697ce","arctic","swim","3134","","<p>This concludes the story. Thank you for listening.</p><p>You will now answer some questions about the content of the story.</p>","0","","","","","","","","","","","","","","","","","","","","",""
"survey-multi-choice","64","1920497","0.0-6.0-2.0-3.0-0.0","dc0517523a7dc6ac696baed8961b59d075c302321483445afe245b0400c697ce","arctic","swim","5905","","<b>How many astronaut candidates passed the first swim test?</b>","","","","1","swim-comprehension","","","","","","","","","","","","","{""Q0"":""All of them""}","","","",""
"survey-multi-choice","65","1923498","0.0-6.0-2.0-3.0-0.1","dc0517523a7dc6ac696baed8961b59d075c302321483445afe245b0400c697ce","arctic","swim","2749","","<b>Where is the home of naval aviation?</b>","","","","1","swim-comprehension","","","","","","","","","","","","","{""Q0"":""Pensacola""}","","","",""
"survey-multi-choice","66","1931040","0.0-6.0-2.0-3.0-0.2","dc0517523a7dc6ac696baed8961b59d075c302321483445afe245b0400c697ce","arctic","swim","7278","","<b>How often does the narrator swim, now that he is a good swimmer?</b>","","","","0","swim-comprehension","","","","","","","","","","","","","{""Q0"":""Every day at the local pool""}","","","",""
"survey-multi-choice","67","1938304","0.0-6.0-2.0-3.0-0.3","dc0517523a7dc6ac696baed8961b59d075c302321483445afe245b0400c697ce","arctic","swim","7006","","<b>How many times did the astronaut candidates have to complete the final exercise to pass?</b>","","","","1","swim-comprehension","","","","","","","","","","","","","{""Q0"":""Two""}","","","",""
"survey-multi-choice","68","1948326","0.0-6.0-2.0-3.0-0.4","dc0517523a7dc6ac696baed8961b59d075c302321483445afe245b0400c697ce","arctic","swim","9763","","<b>What were the astronaut candidates trained to do at the naval air station?</b>","","","","1","swim-comprehension","","","","","","","","","","","","","{""Q0"":""Eject out of aircraft and survive in water long enough to be rescued""}","","","",""
"survey-multi-choice","69","1954241","0.0-6.0-2.0-3.0-0.5","dc0517523a7dc6ac696baed8961b59d075c302321483445afe245b0400c697ce","arctic","swim","5662","","<b>How many astronaut candidates reported for duty at the Johnson Space Center?</b>","","","","1","swim-comprehension","","","","","","","","","","","","","{""Q0"":""Forty-four""}","","","",""
"survey-multi-choice","70","1958159","0.0-6.0-2.0-3.0-0.6","dc0517523a7dc6ac696baed8961b59d075c302321483445afe245b0400c697ce","arctic","swim","3664","","<b>What is the narrator afraid of, aside from the water?</b>","","","","1","swim-comprehension","","","","","","","","","","","","","{""Q0"":""Heights""}","","","",""
"survey-multi-choice","71","1967472","0.0-6.0-2.0-3.0-0.7","dc0517523a7dc6ac696baed8961b59d075c302321483445afe245b0400c697ce","arctic","swim","9059","","<b>How did the narrator train for his swim test?</b>","","","","1","swim-comprehension","","","","","","","","","","","","","{""Q0"":""Took his kids to the pool every day""}","","","",""
"survey-multi-choice","72","1977195","0.0-6.0-2.0-3.0-0.8","dc0517523a7dc6ac696baed8961b59d075c302321483445afe245b0400c697ce","arctic","swim","9469","","<b>What was the final step of the first swim test in the pool?</b>","","","","1","swim-comprehension","","","","","","","","","","","","","{""Q0"":""Tread water with hands above the water""}","","","",""
"survey-multi-choice","73","1988956","0.0-6.0-2.0-3.0-0.9","dc0517523a7dc6ac696baed8961b59d075c302321483445afe245b0400c697ce","arctic","swim","11507","","<b>What gave the narrator his greatest feeling of accomplishment?</b>","","","","1","swim-comprehension","","","","","","","","","","","","","{""Q0"":""Passing the water survival course""}","","","",""
"html-button-response","74","1990577","0.0-6.0-2.0-4.0","dc0517523a7dc6ac696baed8961b59d075c302321483445afe245b0400c697ce","arctic","swim","1370","","<p>Thank you for your responses.</p><p>You will now answer some questions about your impressions of the story.</p>","0","","","","","","","","","","","","","","","","","","","","",""
"html-button-response","75","1993350","0.0-6.0-2.0-5.0-0.0","dc0517523a7dc6ac696baed8961b59d075c302321483445afe245b0400c697ce","arctic","swim","2771","","MS1","3","","","","swim-engagement","","","","","","","","","","","","","","4","mental-sim","",""
"html-button-response","76","1995823","0.0-6.0-2.0-5.0-0.1","dc0517523a7dc6ac696baed8961b59d075c302321483445afe245b0400c697ce","arctic","swim","2220","","E8","0","","","","swim-engagement","","","","","","","","","","","","","","1","enjoyment","",""
"html-button-response","77","1998465","0.0-6.0-2.0-5.0-0.2","dc0517523a7dc6ac696baed8961b59d075c302321483445afe245b0400c697ce","arctic","swim","2390","","A4","0","","","","swim-engagement","","","","","","","","","","","","","","1","absorption","",""
"html-button-response","78","2001114","0.0-6.0-2.0-5.0-0.3","dc0517523a7dc6ac696baed8961b59d075c302321483445afe245b0400c697ce","arctic","swim","2398","","EE4","1","","","","swim-engagement","","","","","","","","","","","","","","2","emo-engage","",""
"html-button-response","79","2004965","0.0-6.0-2.0-5.0-0.4","dc0517523a7dc6ac696baed8961b59d075c302321483445afe245b0400c697ce","arctic","swim","3599","","A2","3","","","","swim-engagement","","","","","","","","","","","","","","4","absorption","",""
"html-button-response","80","2007070","0.0-6.0-2.0-5.0-0.5","dc0517523a7dc6ac696baed8961b59d075c302321483445afe245b0400c697ce","arctic","swim","1853","","E1","0","","","","swim-engagement","","","","","","","","","","","","","","1","enjoyment","",""
"html-button-response","81","2013282","0.0-6.0-2.0-5.0-0.6","dc0517523a7dc6ac696baed8961b59d075c302321483445afe245b0400c697ce","arctic","swim","5960","","MS2","1","","","","swim-engagement","","","","","","","","","","","","","","2","mental-sim","",""
"html-button-response","82","2015771","0.0-6.0-2.0-5.0-0.7","dc0517523a7dc6ac696baed8961b59d075c302321483445afe245b0400c697ce","arctic","swim","2236","","E6","1","","","","swim-engagement","","","","","","","","","","","","","","2","enjoyment","",""
"html-button-response","83","2017962","0.0-6.0-2.0-5.0-0.8","dc0517523a7dc6ac696baed8961b59d075c302321483445afe245b0400c697ce","arctic","swim","1939","","A5","0","","","","swim-engagement","","","","","","","","","","","","","","1","absorption","",""
"html-button-response","84","2019616","0.0-6.0-2.0-5.0-0.9","dc0517523a7dc6ac696baed8961b59d075c302321483445afe245b0400c697ce","arctic","swim","1403","","E7","0","","","","swim-engagement","","","","","","","","","","","","","","1","enjoyment","",""
"html-button-response","85","2021892","0.0-6.0-2.0-5.0-0.10","dc0517523a7dc6ac696baed8961b59d075c302321483445afe245b0400c697ce","arctic","swim","2008","","EE1","0","","","","swim-engagement","","","","","","","","","","","","","","1","emo-engage","",""
"html-button-response","86","2024101","0.0-6.0-2.0-5.0-0.11","dc0517523a7dc6ac696baed8961b59d075c302321483445afe245b0400c697ce","arctic","swim","1957","","A1","0","","","","swim-engagement","","","","","","","","","","","","","","1","absorption","",""
"html-button-response","87","2025690","0.0-6.0-2.0-5.0-0.12","dc0517523a7dc6ac696baed8961b59d075c302321483445afe245b0400c697ce","arctic","swim","1333","","E10","0","","","","swim-engagement","","","","","","","","","","","","","","1","enjoyment","",""
"html-button-response","88","2027276","0.0-6.0-2.0-5.0-0.13","dc0517523a7dc6ac696baed8961b59d075c302321483445afe245b0400c697ce","arctic","swim","1334","","A3","0","","","","swim-engagement","","","","","","","","","","","","","","1","absorption","",""
"html-button-response","89","2030132","0.0-6.0-2.0-5.0-0.14","dc0517523a7dc6ac696baed8961b59d075c302321483445afe245b0400c697ce","arctic","swim","2604","","EE2","1","","","","swim-engagement","","","","","","","","","","","","","","2","emo-engage","",""
"html-button-response","90","2032441","0.0-6.0-2.0-5.0-0.15","dc0517523a7dc6ac696baed8961b59d075c302321483445afe245b0400c697ce","arctic","swim","2058","","MS3","1","","","","swim-engagement","","","","","","","","","","","","","","2","mental-sim","",""
"html-button-response","91","2034444","0.0-6.0-2.0-5.0-0.16","dc0517523a7dc6ac696baed8961b59d075c302321483445afe245b0400c697ce","arctic","swim","1751","","EE5","0","","","","swim-engagement","","","","","","","","","","","","","","1","emo-engage","",""
"html-button-response","92","2036791","0.0-6.0-2.0-5.0-0.17","dc0517523a7dc6ac696baed8961b59d075c302321483445afe245b0400c697ce","arctic","swim","2097","","EE3","1","","","","swim-engagement","","","","","","","","","","","","","","2","emo-engage","",""
"html-button-response","93","2039053","0.0-8.0","dc0517523a7dc6ac696baed8961b59d075c302321483445afe245b0400c697ce","arctic","swim","2009","","<p>Thank you for your responses.</p><p>You will now answer some demographic, hearing, and general health questions.</p>","0","","","","","","","","","","","","","","","","","","","","",""
"survey-multi-choice","94","2041391","0.0-9.0-0.0","dc0517523a7dc6ac696baed8961b59d075c302321483445afe245b0400c697ce","arctic","swim","2337","","","","","","","survey","","","","","","","","","","","","","{""Q0"":""Chrome""}","","","browser",""
"survey-text","95","2044745","0.0-9.0-1.0","dc0517523a7dc6ac696baed8961b59d075c302321483445afe245b0400c697ce","arctic","swim","3098.39999999851","","","","","","","survey","","","","","","","","","","","","","{""AGE"":""35""}","","","age","35"
"survey-multi-choice","96","2047770","0.0-9.0-2.0","dc0517523a7dc6ac696baed8961b59d075c302321483445afe245b0400c697ce","arctic","swim","2773","","","","","","","survey","","","","","","","","","","","","","{""Q0"":""Female""}","","","gender","Female"
"survey-multi-choice","97","2049797","0.0-9.0-4.0","dc0517523a7dc6ac696baed8961b59d075c302321483445afe245b0400c697ce","arctic","swim","1775","","","","","","","survey","","","","","","","","","","","","","{""Q0"":""Right""}","","","handedness","Right"
"survey-multi-choice","98","2052895","0.0-9.0-5.0","dc0517523a7dc6ac696baed8961b59d075c302321483445afe245b0400c697ce","arctic","swim","2842","","","","","","","survey","","","","","","","","","","","","","{""Q0"":""Bachelor's Degree""}","","","education","Bachelor's Degree"
"survey-text","99","2057409","0.0-10.0-0.0","dc0517523a7dc6ac696baed8961b59d075c302321483445afe245b0400c697ce","arctic","swim","4259.900000002235","","","","","","","survey","","","","","","","","","","","","","{""L1"":""english""}","","","first-language","english"
"survey-text","100","2062504","0.0-10.0-1.0","dc0517523a7dc6ac696baed8961b59d075c302321483445afe245b0400c697ce","arctic","swim","4817.20000000298","","","","","","","survey","","","","","","","","","","","","","{""L2name"":"""",""L2fluency"":"""",""L3name"":"""",""L3fluency"":"""",""L4name"":"""",""L4fluency"":""""}","","","additional-languages","{""L2name"":"""",""L2fluency"":"""",""L3name"":"""",""L3fluency"":"""",""L4name"":"""",""L4fluency"":""""}"
"survey-multi-choice","101","2065333","0.0-10.0-2.0","dc0517523a7dc6ac696baed8961b59d075c302321483445afe245b0400c697ce","arctic","swim","2575","","","","","","","survey","","","","","","","","","","","","","{""Q0"":""No""}","","","hearing-aid","No"
"survey-multi-choice","102","2068658","0.0-10.0-3.0","dc0517523a7dc6ac696baed8961b59d075c302321483445afe245b0400c697ce","arctic","swim","3072","","","","","","","survey","","","","","","","","","","","","","{""Q0"":""Never""}","","","ringing-ears","Never"
"survey-multi-choice","103","2071649","0.0-10.0-5.0","dc0517523a7dc6ac696baed8961b59d075c302321483445afe245b0400c697ce","arctic","swim","2738","","","","","","","survey","","","","","","","","","","","","","{""Q0"":""No""}","","","neuro-disease","No"
"survey-multi-choice","104","2074915","0.0-10.0-7.0","dc0517523a7dc6ac696baed8961b59d075c302321483445afe245b0400c697ce","arctic","swim","3013","","","","","","","survey","","","","","","","","","","","","","{""Q0"":""Yes""}","","","take-meds","Yes"
"survey-text","105","2083071","0.0-10.0-8.0-0.0","dc0517523a7dc6ac696baed8961b59d075c302321483445afe245b0400c697ce","arctic","swim","7902.10000000149","","","","","","","survey","","","","","","","","","","","","","{""MED"":""sertraline 200mg daily""}","","","take-meds-clarify","sertraline 200mg daily"
"survey-text","106","2087155","0.0-10.0-9.0","dc0517523a7dc6ac696baed8961b59d075c302321483445afe245b0400c697ce","arctic","swim","3800.400000002235","","","","","","","survey","","","","","","","","","","","","","{""HC"":""""}","","","health-concerns",""
"html-button-response","107","2091210","0.0-11.0-0.0","dc0517523a7dc6ac696baed8961b59d075c302321483445afe245b0400c697ce","arctic","swim","3803","","<p>How would you describe your musical skills/experiences?</p>","1","","","","survey","","","","","","","","","","","","","","","","music-skill","2"
"survey-multi-choice","108","2093696","0.0-11.0-1.0","dc0517523a7dc6ac696baed8961b59d075c302321483445afe245b0400c697ce","arctic","swim","2235","","","","","","","survey","","","","","","","","","","","","","{""Q0"":""Yes""}","","","music-instrument","Yes"
"survey-text","109","2096890","0.0-11.0-2.0-0.0","dc0517523a7dc6ac696baed8961b59d075c302321483445afe245b0400c697ce","arctic","swim","2940.5","","","","","","","survey","","","","","","","","","","","","","{""MEXP"":""1""}","","","music-training-yrs","1"
"html-button-response","110","2099797","0.0-12.0-0.0","dc0517523a7dc6ac696baed8961b59d075c302321483445afe245b0400c697ce","arctic","swim","2654","","<p>How would you describe your general hearing abilities?</p>","3","","","","survey","","","","","","","","","","","","","","","","ssq-01","4"
"html-button-response","111","2108821","0.0-12.0-1.0","dc0517523a7dc6ac696baed8961b59d075c302321483445afe245b0400c697ce","arctic","swim","8771","","<p>When you talk with someone at a place that strongly reverberates/echoes (e.g., in a church or train station),</br>can you understand what the person says?</p>","9","","","","survey","","","","","","","","","","","","","","","","ssq-02","9"
"html-button-response","112","2115307","0.0-12.0-2.0","dc0517523a7dc6ac696baed8961b59d075c302321483445afe245b0400c697ce","arctic","swim","6233","","<p>When you are with a group (~5 people) in a lively restaurant, can you follow the group's conversation?</p>","8","","","","survey","","","","","","","","","","","","","","","","ssq-03","8"
"html-button-response","113","2122277","0.0-12.0-3.0","dc0517523a7dc6ac696baed8961b59d075c302321483445afe245b0400c697ce","arctic","swim","6719","","<p>Based on the sound of a bus or truck, can you tell whether it is moving towards or away from you?</p>","8","","","","survey","","","","","","","","","","","","","","","","ssq-04","8"
"html-button-response","114","2127192","0.0-12.0-4.0","dc0517523a7dc6ac696baed8961b59d075c302321483445afe245b0400c697ce","arctic","swim","4662","","<p>When you are in an unknown environment, can you tell from which direction a brief sound originates?</p>","5","","","","survey","","","","","","","","","","","","","","","","ssq-05","5"
"html-button-response","115","2133875","0.0-12.0-5.0","dc0517523a7dc6ac696baed8961b59d075c302321483445afe245b0400c697ce","arctic","swim","6431","","<p>Are you able to ignore distracting sounds when you concentrate on a specific aspect of your acoustic surrounding?</p>","1","","","","survey","","","","","","","","","","","","","","","","ssq-06","1"
"fullscreen","116","2135128","0.0-13.0","dc0517523a7dc6ac696baed8961b59d075c302321483445afe245b0400c697ce","arctic","swim","","","","","","","","","true","","","","","","","","","","","","","","","",""
