"trial_type","trial_index","time_elapsed","internal_node_id","ParticipantID","firstStory","scramStory","rt","url","stimulus","button_pressed","key_press","correctRESP","correct","designation","success","letterStim","letterType","ONSET","TIMEOUT","CONDITION","Participant","ONSET_ACTUAL","RT","RESP","ACC","STORY","responses","response","type","surveyQuestion","QRESP"
"pavlovia","0","8","0.0-0.0","699e23c59c2d94ced65b4798f4f4b7785c4f0fed0892f5b7c3a51fea67ef5290","swim","arctic","","","","","","","","","","","","","","","","","","","","","","","","",""
"external-html","1","2654","0.0-1.0","699e23c59c2d94ced65b4798f4f4b7785c4f0fed0892f5b7c3a51fea67ef5290","swim","arctic","2414","consent/consent_updated.html","","","","","","","","","","","","","","","","","","","","","","",""
"html-button-response","2","21901","0.0-2.0-0.0","699e23c59c2d94ced65b4798f4f4b7785c4f0fed0892f5b7c3a51fea67ef5290","swim","arctic","19246","","<p>Before we begin the main task, you will complete a short volume calibration and headphone check.</p><p>Please make sure you are in a quiet listening environment, that you are wearing headphones, and that your computer's volume is turned on.<p></p>","0","","","","","","","","","","","","","","","","","","","","",""
"html-button-response","3","28686","0.0-2.0-1.0","699e23c59c2d94ced65b4798f4f4b7785c4f0fed0892f5b7c3a51fea67ef5290","swim","arctic","6534","","<p>The volume calibration will be first.</p><p>You will hear a thirty-second noise. Please adjust your computer's volume so that this noise is being presented at a comfortable level.<p></p>","0","","","","","","","","","","","","","","","","","","","","",""
"audio-button-response","4","32128","0.0-2.0-2.0","699e23c59c2d94ced65b4798f4f4b7785c4f0fed0892f5b7c3a51fea67ef5290","swim","arctic","3181","","audio/volumetest.mp3","0","","","","","","","","","","","","","","","","","","","","",""
"html-keyboard-response","5","37969","0.0-3.0-0.0","699e23c59c2d94ced65b4798f4f4b7785c4f0fed0892f5b7c3a51fea67ef5290","swim","arctic","5839","","<p>You will now complete a short headphone check.</p><p>On each trial, you will hear three tones. One of these tones will be quieter than the others. Your task is to identify whether the quiet tone occurred first, second, or third.</p><p>There are six trials in total.<p></p><p></p>(Press SPACEBAR to begin)","","32","","","","","","","","","","","","","","","","","","","",""
"html-keyboard-response","6","38746","0.0-3.0-1.0-0.0","699e23c59c2d94ced65b4798f4f4b7785c4f0fed0892f5b7c3a51fea67ef5290","swim","arctic","null","","<div style=""font-size:60px;"">+</div>","","null","","","","","","","","","","","","","","","","","","","",""
"audio-button-response","7","43282","0.0-3.0-1.0-1.0","699e23c59c2d94ced65b4798f4f4b7785c4f0fed0892f5b7c3a51fea67ef5290","swim","arctic","4534","","audio/t2_2.mp3","1","","1","1","headphone-test","","","","","","","","","","","","","","","","",""
"html-keyboard-response","8","43784","0.0-3.0-1.0-2.0","699e23c59c2d94ced65b4798f4f4b7785c4f0fed0892f5b7c3a51fea67ef5290","swim","arctic","null","","<p>Correct</p>","","null","","","","","","","","","","","","","","","","","","","",""
"html-keyboard-response","9","44296","0.0-3.0-1.0-0.1","699e23c59c2d94ced65b4798f4f4b7785c4f0fed0892f5b7c3a51fea67ef5290","swim","arctic","null","","<div style=""font-size:60px;"">+</div>","","null","","","","","","","","","","","","","","","","","","","",""
"audio-button-response","10","49207","0.0-3.0-1.0-1.1","699e23c59c2d94ced65b4798f4f4b7785c4f0fed0892f5b7c3a51fea67ef5290","swim","arctic","4910","","audio/t3_1.mp3","2","","2","1","headphone-test","","","","","","","","","","","","","","","","",""
"html-keyboard-response","11","49725","0.0-3.0-1.0-2.1","699e23c59c2d94ced65b4798f4f4b7785c4f0fed0892f5b7c3a51fea67ef5290","swim","arctic","null","","<p>Correct</p>","","null","","","","","","","","","","","","","","","","","","","",""
"html-keyboard-response","12","50246","0.0-3.0-1.0-0.2","699e23c59c2d94ced65b4798f4f4b7785c4f0fed0892f5b7c3a51fea67ef5290","swim","arctic","null","","<div style=""font-size:60px;"">+</div>","","null","","","","","","","","","","","","","","","","","","","",""
"audio-button-response","13","54991","0.0-3.0-1.0-1.2","699e23c59c2d94ced65b4798f4f4b7785c4f0fed0892f5b7c3a51fea67ef5290","swim","arctic","4743","","audio/t2_1.mp3","1","","1","1","headphone-test","","","","","","","","","","","","","","","","",""
"html-keyboard-response","14","55496","0.0-3.0-1.0-2.2","699e23c59c2d94ced65b4798f4f4b7785c4f0fed0892f5b7c3a51fea67ef5290","swim","arctic","null","","<p>Correct</p>","","null","","","","","","","","","","","","","","","","","","","",""
"html-keyboard-response","15","56016","0.0-3.0-1.0-0.3","699e23c59c2d94ced65b4798f4f4b7785c4f0fed0892f5b7c3a51fea67ef5290","swim","arctic","null","","<div style=""font-size:60px;"">+</div>","","null","","","","","","","","","","","","","","","","","","","",""
"audio-button-response","16","60630","0.0-3.0-1.0-1.3","699e23c59c2d94ced65b4798f4f4b7785c4f0fed0892f5b7c3a51fea67ef5290","swim","arctic","4612","","audio/t3_2.mp3","2","","2","1","headphone-test","","","","","","","","","","","","","","","","",""
"html-keyboard-response","17","61132","0.0-3.0-1.0-2.3","699e23c59c2d94ced65b4798f4f4b7785c4f0fed0892f5b7c3a51fea67ef5290","swim","arctic","null","","<p>Correct</p>","","null","","","","","","","","","","","","","","","","","","","",""
"html-keyboard-response","18","61645","0.0-3.0-1.0-0.4","699e23c59c2d94ced65b4798f4f4b7785c4f0fed0892f5b7c3a51fea67ef5290","swim","arctic","null","","<div style=""font-size:60px;"">+</div>","","null","","","","","","","","","","","","","","","","","","","",""
"audio-button-response","19","66288","0.0-3.0-1.0-1.4","699e23c59c2d94ced65b4798f4f4b7785c4f0fed0892f5b7c3a51fea67ef5290","swim","arctic","4640","","audio/t1_2.mp3","0","","0","1","headphone-test","","","","","","","","","","","","","","","","",""
"html-keyboard-response","20","66789","0.0-3.0-1.0-2.4","699e23c59c2d94ced65b4798f4f4b7785c4f0fed0892f5b7c3a51fea67ef5290","swim","arctic","null","","<p>Correct</p>","","null","","","","","","","","","","","","","","","","","","","",""
"html-keyboard-response","21","67305","0.0-3.0-1.0-0.5","699e23c59c2d94ced65b4798f4f4b7785c4f0fed0892f5b7c3a51fea67ef5290","swim","arctic","null","","<div style=""font-size:60px;"">+</div>","","null","","","","","","","","","","","","","","","","","","","",""
"audio-button-response","22","72328","0.0-3.0-1.0-1.5","699e23c59c2d94ced65b4798f4f4b7785c4f0fed0892f5b7c3a51fea67ef5290","swim","arctic","5019","","audio/t1_1.mp3","0","","0","1","headphone-test","","","","","","","","","","","","","","","","",""
"html-keyboard-response","23","72846","0.0-3.0-1.0-2.5","699e23c59c2d94ced65b4798f4f4b7785c4f0fed0892f5b7c3a51fea67ef5290","swim","arctic","null","","<p>Correct</p>","","null","","","","","","","","","","","","","","","","","","","",""
"fullscreen","24","75664","0.0-4.0","699e23c59c2d94ced65b4798f4f4b7785c4f0fed0892f5b7c3a51fea67ef5290","swim","arctic","","","","","","","","","true","","","","","","","","","","","","","","","",""
"html-button-response","25","90504","0.0-5.0-0.0","699e23c59c2d94ced65b4798f4f4b7785c4f0fed0892f5b7c3a51fea67ef5290","swim","arctic","14838","","<p>There are two blocks to this experiment.</p><p>In each block, you will hear a ~13.5 minute story. One of the stories will be scrambled. Please listen carefully to both stories and understand them as best you can.</p><p>After each story, you will be asked some questions to assess your comprehension.</p>","0","","","","","","","","","","","","","","","","","","","","",""
"html-button-response","26","103273","0.0-5.0-1.0","699e23c59c2d94ced65b4798f4f4b7785c4f0fed0892f5b7c3a51fea67ef5290","swim","arctic","12767","","<p>During each story, there will be an additional task.</p><p>A letter will occasionally appear on the screen.</br>Your job is to - as quickly as you can - decide whether the letter is lowercase or uppercase and press one of two keys on the keyboard:</p><p>If the letter is <b>lowercase</b>, press key &lt;<b>x</b>&gt;.</p><p>If the letter is <b>uppercase</b>, press key &lt;<b>m</b>&gt;.</p>","0","","","","","","","","","","","","","","","","","","","","",""
"html-keyboard-response","27","108623","0.0-5.0-2.0","699e23c59c2d94ced65b4798f4f4b7785c4f0fed0892f5b7c3a51fea67ef5290","swim","arctic","5350","","<p>Because we want your responses to be as quick as possible, please keep your index fingers over the keys while listening.</p><p>Each block lasts about 20 minutes.</p><p><b>Press &lt;x&gt; or &lt;m&gt; to start the first block!</b></p>","","88","","","","","","","","","","","","","","","","","","","",""
"html-keyboard-response","28","109126","0.0-7.0-0.0-0.0","699e23c59c2d94ced65b4798f4f4b7785c4f0fed0892f5b7c3a51fea67ef5290","swim","arctic","null","","<div style=""font-size:60px;"" tabindex=""0"">+</div>","","null","","","","","","","","","","","","","","","","","","","",""
"dual-task","null","null","null","","swim","arctic","843.1999998092651","","A","null","88","77","0","swim-dual-task","","A","uppercase","14000","0","3","699e23c59c2d94ced65b4798f4f4b7785c4f0fed0892f5b7c3a51fea67ef5290","14009.299999952316","843.1999998092651","88","0","swim","","","","",""
"dual-task","null","null","null","","swim","arctic","523.4000000953674","","B","null","88","77","0","swim-dual-task","","B","uppercase","20000","0","3","699e23c59c2d94ced65b4798f4f4b7785c4f0fed0892f5b7c3a51fea67ef5290","20006.700000047684","523.4000000953674","88","0","swim","","","","",""
"dual-task","null","null","null","","swim","arctic","690.1999998092651","","H","null","88","77","0","swim-dual-task","","H","uppercase","32000","0","3","699e23c59c2d94ced65b4798f4f4b7785c4f0fed0892f5b7c3a51fea67ef5290","32006.799999952316","690.1999998092651","88","0","swim","","","","",""
"dual-task","null","null","null","","swim","arctic","556.5","","R","null","88","77","0","swim-dual-task","","R","uppercase","44000","0","3","699e23c59c2d94ced65b4798f4f4b7785c4f0fed0892f5b7c3a51fea67ef5290","44006.799999952316","556.5","88","0","swim","","","","",""
"dual-task","null","null","null","","swim","arctic","735.5999999046326","","E","null","88","77","0","swim-dual-task","","E","uppercase","56000","0","3","699e23c59c2d94ced65b4798f4f4b7785c4f0fed0892f5b7c3a51fea67ef5290","56008.700000047684","735.5999999046326","88","0","swim","","","","",""
"dual-task","null","null","null","","swim","arctic","758.8999998569489","","f","null","77","88","0","swim-dual-task","","f","lowercase","66000","0","3","699e23c59c2d94ced65b4798f4f4b7785c4f0fed0892f5b7c3a51fea67ef5290","66008","758.8999998569489","77","0","swim","","","","",""
"dual-task","null","null","null","","swim","arctic","556.5999999046326","","e","null","77","88","0","swim-dual-task","","e","lowercase","80000","0","3","699e23c59c2d94ced65b4798f4f4b7785c4f0fed0892f5b7c3a51fea67ef5290","80017.70000004768","556.5999999046326","77","0","swim","","","","",""
"dual-task","null","null","null","","swim","arctic","883.8000001907349","","n","null","77","88","0","swim-dual-task","","n","lowercase","88000","0","3","699e23c59c2d94ced65b4798f4f4b7785c4f0fed0892f5b7c3a51fea67ef5290","88017.90000009537","883.8000001907349","77","0","swim","","","","",""
"dual-task","null","null","null","","swim","arctic","533.9000000953674","","d","null","77","88","0","swim-dual-task","","d","lowercase","96000","0","3","699e23c59c2d94ced65b4798f4f4b7785c4f0fed0892f5b7c3a51fea67ef5290","96016.90000009537","533.9000000953674","77","0","swim","","","","",""
"dual-task","null","null","null","","swim","arctic","856.5999999046326","","F","null","88","77","0","swim-dual-task","","F","uppercase","106000","0","3","699e23c59c2d94ced65b4798f4f4b7785c4f0fed0892f5b7c3a51fea67ef5290","106006.90000009537","856.5999999046326","88","0","swim","","","","",""
"dual-task","null","null","null","","swim","arctic","602.8999998569489","","f","null","77","88","0","swim-dual-task","","f","lowercase","112000","0","3","699e23c59c2d94ced65b4798f4f4b7785c4f0fed0892f5b7c3a51fea67ef5290","112007.20000004768","602.8999998569489","77","0","swim","","","","",""
"dual-task","null","null","null","","swim","arctic","619.4000000953674","","H","null","88","77","0","swim-dual-task","","H","uppercase","120000","0","3","699e23c59c2d94ced65b4798f4f4b7785c4f0fed0892f5b7c3a51fea67ef5290","120007.79999995232","619.4000000953674","88","0","swim","","","","",""
"dual-task","null","null","null","","swim","arctic","566.2000000476837","","g","null","77","88","0","swim-dual-task","","g","lowercase","134000","0","3","699e23c59c2d94ced65b4798f4f4b7785c4f0fed0892f5b7c3a51fea67ef5290","134007.20000004768","566.2000000476837","77","0","swim","","","","",""
"dual-task","null","null","null","","swim","arctic","606.0999999046326","","d","null","77","88","0","swim-dual-task","","d","lowercase","144000","0","3","699e23c59c2d94ced65b4798f4f4b7785c4f0fed0892f5b7c3a51fea67ef5290","144007.90000009537","606.0999999046326","77","0","swim","","","","",""
"dual-task","null","null","null","","swim","arctic","588.0999999046326","","D","null","88","77","0","swim-dual-task","","D","uppercase","152000","0","3","699e23c59c2d94ced65b4798f4f4b7785c4f0fed0892f5b7c3a51fea67ef5290","152016.90000009537","588.0999999046326","88","0","swim","","","","",""
"dual-task","null","null","null","","swim","arctic","727.5","","g","null","88","88","1","swim-dual-task","","g","lowercase","164000","0","3","699e23c59c2d94ced65b4798f4f4b7785c4f0fed0892f5b7c3a51fea67ef5290","164008.10000014305","727.5","88","1","swim","","","","",""
"dual-task","null","null","null","","swim","arctic","702.9000000953674","","h","null","77","88","0","swim-dual-task","","h","lowercase","176000","0","3","699e23c59c2d94ced65b4798f4f4b7785c4f0fed0892f5b7c3a51fea67ef5290","176017.29999995232","702.9000000953674","77","0","swim","","","","",""
"dual-task","null","null","null","","swim","arctic","669.0999999046326","","h","null","77","88","0","swim-dual-task","","h","lowercase","188000","0","3","699e23c59c2d94ced65b4798f4f4b7785c4f0fed0892f5b7c3a51fea67ef5290","188007","669.0999999046326","77","0","swim","","","","",""
"dual-task","null","null","null","","swim","arctic","657.6999998092651","","b","null","77","88","0","swim-dual-task","","b","lowercase","198000","0","3","699e23c59c2d94ced65b4798f4f4b7785c4f0fed0892f5b7c3a51fea67ef5290","198018.90000009537","657.6999998092651","77","0","swim","","","","",""
"dual-task","null","null","null","","swim","arctic","900.2000000476837","","T","null","88","77","0","swim-dual-task","","T","uppercase","208000","0","3","699e23c59c2d94ced65b4798f4f4b7785c4f0fed0892f5b7c3a51fea67ef5290","208009.90000009537","900.2000000476837","88","0","swim","","","","",""
"dual-task","null","null","null","","swim","arctic","680.2999999523163","","t","null","77","88","0","swim-dual-task","","t","lowercase","218000","0","3","699e23c59c2d94ced65b4798f4f4b7785c4f0fed0892f5b7c3a51fea67ef5290","218012.60000014305","680.2999999523163","77","0","swim","","","","",""
"dual-task","null","null","null","","swim","arctic","675.1000001430511","","Q","null","88","77","0","swim-dual-task","","Q","uppercase","228000","0","3","699e23c59c2d94ced65b4798f4f4b7785c4f0fed0892f5b7c3a51fea67ef5290","228006.90000009537","675.1000001430511","88","0","swim","","","","",""
"dual-task","null","null","null","","swim","arctic","856.5999999046326","","H","null","88","77","0","swim-dual-task","","H","uppercase","240000","0","3","699e23c59c2d94ced65b4798f4f4b7785c4f0fed0892f5b7c3a51fea67ef5290","240015.40000009537","856.5999999046326","88","0","swim","","","","",""
"dual-task","null","null","null","","swim","arctic","669.6000001430511","","A","null","88","77","0","swim-dual-task","","A","uppercase","252000","0","3","699e23c59c2d94ced65b4798f4f4b7785c4f0fed0892f5b7c3a51fea67ef5290","252014.40000009537","669.6000001430511","88","0","swim","","","","",""
"dual-task","null","null","null","","swim","arctic","819","","A","null","88","77","0","swim-dual-task","","A","uppercase","260000","0","3","699e23c59c2d94ced65b4798f4f4b7785c4f0fed0892f5b7c3a51fea67ef5290","260010.29999995232","819","88","0","swim","","","","",""
"dual-task","null","null","null","","swim","arctic","624.3000001907349","","G","null","88","77","0","swim-dual-task","","G","uppercase","274000","0","3","699e23c59c2d94ced65b4798f4f4b7785c4f0fed0892f5b7c3a51fea67ef5290","274011.60000014305","624.3000001907349","88","0","swim","","","","",""
"dual-task","null","null","null","","swim","arctic","811.3999998569489","","q","null","77","88","0","swim-dual-task","","q","lowercase","284000","0","3","699e23c59c2d94ced65b4798f4f4b7785c4f0fed0892f5b7c3a51fea67ef5290","284009.10000014305","811.3999998569489","77","0","swim","","","","",""
"dual-task","null","null","null","","swim","arctic","832.0999999046326","","D","null","88","77","0","swim-dual-task","","D","uppercase","296000","0","3","699e23c59c2d94ced65b4798f4f4b7785c4f0fed0892f5b7c3a51fea67ef5290","296009.5","832.0999999046326","88","0","swim","","","","",""
"dual-task","null","null","null","","swim","arctic","972.7999999523163","","N","null","88","77","0","swim-dual-task","","N","uppercase","310000","0","3","699e23c59c2d94ced65b4798f4f4b7785c4f0fed0892f5b7c3a51fea67ef5290","310016.90000009537","972.7999999523163","88","0","swim","","","","",""
"dual-task","null","null","null","","swim","arctic","604.1999998092651","","Q","null","88","77","0","swim-dual-task","","Q","uppercase","318000","0","3","699e23c59c2d94ced65b4798f4f4b7785c4f0fed0892f5b7c3a51fea67ef5290","318007.7999999523","604.1999998092651","88","0","swim","","","","",""
"dual-task","null","null","null","","swim","arctic","642.7999999523163","","d","null","77","88","0","swim-dual-task","","d","lowercase","328000","0","3","699e23c59c2d94ced65b4798f4f4b7785c4f0fed0892f5b7c3a51fea67ef5290","328000.7000000477","642.7999999523163","77","0","swim","","","","",""
"dual-task","null","null","null","","swim","arctic","642.9000000953674","","q","null","77","88","0","swim-dual-task","","q","lowercase","334000","0","3","699e23c59c2d94ced65b4798f4f4b7785c4f0fed0892f5b7c3a51fea67ef5290","334014.2000000477","642.9000000953674","77","0","swim","","","","",""
"dual-task","null","null","null","","swim","arctic","441.60000014305115","","b","null","77","88","0","swim-dual-task","","b","lowercase","344000","0","3","699e23c59c2d94ced65b4798f4f4b7785c4f0fed0892f5b7c3a51fea67ef5290","344009.2000000477","441.60000014305115","77","0","swim","","","","",""
"dual-task","null","null","null","","swim","arctic","521.5","","R","null","88","77","0","swim-dual-task","","R","uppercase","352000","0","3","699e23c59c2d94ced65b4798f4f4b7785c4f0fed0892f5b7c3a51fea67ef5290","352003.60000014305","521.5","88","0","swim","","","","",""
"dual-task","null","null","null","","swim","arctic","650.9000000953674","","G","null","88","77","0","swim-dual-task","","G","uppercase","366000","0","3","699e23c59c2d94ced65b4798f4f4b7785c4f0fed0892f5b7c3a51fea67ef5290","366015.60000014305","650.9000000953674","88","0","swim","","","","",""
"dual-task","null","null","null","","swim","arctic","810.2999999523163","","g","null","77","88","0","swim-dual-task","","g","lowercase","374000","0","3","699e23c59c2d94ced65b4798f4f4b7785c4f0fed0892f5b7c3a51fea67ef5290","374006.10000014305","810.2999999523163","77","0","swim","","","","",""
"dual-task","null","null","null","","swim","arctic","613.6000001430511","","h","null","77","88","0","swim-dual-task","","h","lowercase","382000","0","3","699e23c59c2d94ced65b4798f4f4b7785c4f0fed0892f5b7c3a51fea67ef5290","382009.90000009537","613.6000001430511","77","0","swim","","","","",""
"dual-task","null","null","null","","swim","arctic","956.0999999046326","","t","null","77","88","0","swim-dual-task","","t","lowercase","392000","0","3","699e23c59c2d94ced65b4798f4f4b7785c4f0fed0892f5b7c3a51fea67ef5290","392004.7000000477","956.0999999046326","77","0","swim","","","","",""
"dual-task","null","null","null","","swim","arctic","534.5999999046326","","G","null","88","77","0","swim-dual-task","","G","uppercase","400000","0","3","699e23c59c2d94ced65b4798f4f4b7785c4f0fed0892f5b7c3a51fea67ef5290","400003.5","534.5999999046326","88","0","swim","","","","",""
"dual-task","null","null","null","","swim","arctic","587.4000000953674","","t","null","77","88","0","swim-dual-task","","t","lowercase","414000","0","3","699e23c59c2d94ced65b4798f4f4b7785c4f0fed0892f5b7c3a51fea67ef5290","414006.60000014305","587.4000000953674","77","0","swim","","","","",""
"dual-task","null","null","null","","swim","arctic","687.2000000476837","","B","null","88","77","0","swim-dual-task","","B","uppercase","424000","0","3","699e23c59c2d94ced65b4798f4f4b7785c4f0fed0892f5b7c3a51fea67ef5290","424005.90000009537","687.2000000476837","88","0","swim","","","","",""
"dual-task","null","null","null","","swim","arctic","733.6000001430511","","a","null","77","88","0","swim-dual-task","","a","lowercase","434000","0","3","699e23c59c2d94ced65b4798f4f4b7785c4f0fed0892f5b7c3a51fea67ef5290","434007.2000000477","733.6000001430511","77","0","swim","","","","",""
"dual-task","null","null","null","","swim","arctic","579.9000000953674","","n","null","77","88","0","swim-dual-task","","n","lowercase","446000","0","3","699e23c59c2d94ced65b4798f4f4b7785c4f0fed0892f5b7c3a51fea67ef5290","446003.2000000477","579.9000000953674","77","0","swim","","","","",""
"dual-task","null","null","null","","swim","arctic","640.6999998092651","","a","null","77","88","0","swim-dual-task","","a","lowercase","456000","0","3","699e23c59c2d94ced65b4798f4f4b7785c4f0fed0892f5b7c3a51fea67ef5290","456003.5","640.6999998092651","77","0","swim","","","","",""
"dual-task","null","null","null","","swim","arctic","781.2000000476837","","N","null","88","77","0","swim-dual-task","","N","uppercase","466000","0","3","699e23c59c2d94ced65b4798f4f4b7785c4f0fed0892f5b7c3a51fea67ef5290","466006.7000000477","781.2000000476837","88","0","swim","","","","",""
"dual-task","null","null","null","","swim","arctic","635.6000001430511","","a","null","77","88","0","swim-dual-task","","a","lowercase","478000","0","3","699e23c59c2d94ced65b4798f4f4b7785c4f0fed0892f5b7c3a51fea67ef5290","478009.90000009537","635.6000001430511","77","0","swim","","","","",""
"dual-task","null","null","null","","swim","arctic","506.59999990463257","","T","null","88","77","0","swim-dual-task","","T","uppercase","488000","0","3","699e23c59c2d94ced65b4798f4f4b7785c4f0fed0892f5b7c3a51fea67ef5290","488007.5","506.59999990463257","88","0","swim","","","","",""
"dual-task","null","null","null","","swim","arctic","571.7000000476837","","f","null","77","88","0","swim-dual-task","","f","lowercase","498000","0","3","699e23c59c2d94ced65b4798f4f4b7785c4f0fed0892f5b7c3a51fea67ef5290","498016.7000000477","571.7000000476837","77","0","swim","","","","",""
"dual-task","null","null","null","","swim","arctic","964.2000000476837","","F","null","88","77","0","swim-dual-task","","F","uppercase","512000","0","3","699e23c59c2d94ced65b4798f4f4b7785c4f0fed0892f5b7c3a51fea67ef5290","512011.10000014305","964.2000000476837","88","0","swim","","","","",""
"dual-task","null","null","null","","swim","arctic","722.4000000953674","","b","null","77","88","0","swim-dual-task","","b","lowercase","518000","0","3","699e23c59c2d94ced65b4798f4f4b7785c4f0fed0892f5b7c3a51fea67ef5290","518006.7000000477","722.4000000953674","77","0","swim","","","","",""
"dual-task","null","null","null","","swim","arctic","874.8999998569489","","N","null","88","77","0","swim-dual-task","","N","uppercase","524000","0","3","699e23c59c2d94ced65b4798f4f4b7785c4f0fed0892f5b7c3a51fea67ef5290","524006.7999999523","874.8999998569489","88","0","swim","","","","",""
"dual-task","null","null","null","","swim","arctic","644.5","","h","null","77","88","0","swim-dual-task","","h","lowercase","536000","0","3","699e23c59c2d94ced65b4798f4f4b7785c4f0fed0892f5b7c3a51fea67ef5290","536006.7999999523","644.5","77","0","swim","","","","",""
"dual-task","null","null","null","","swim","arctic","649.4000000953674","","D","null","88","77","0","swim-dual-task","","D","uppercase","550000","0","3","699e23c59c2d94ced65b4798f4f4b7785c4f0fed0892f5b7c3a51fea67ef5290","550000.9000000954","649.4000000953674","88","0","swim","","","","",""
"dual-task","null","null","null","","swim","arctic","660.8999998569489","","E","null","77","77","1","swim-dual-task","","E","uppercase","556000","0","3","699e23c59c2d94ced65b4798f4f4b7785c4f0fed0892f5b7c3a51fea67ef5290","556001.100000143","660.8999998569489","77","1","swim","","","","",""
"dual-task","null","null","null","","swim","arctic","537","","B","null","88","77","0","swim-dual-task","","B","uppercase","562000","0","3","699e23c59c2d94ced65b4798f4f4b7785c4f0fed0892f5b7c3a51fea67ef5290","562011.600000143","537","88","0","swim","","","","",""
"dual-task","null","null","null","","swim","arctic","679.5","","H","null","88","77","0","swim-dual-task","","H","uppercase","568000","0","3","699e23c59c2d94ced65b4798f4f4b7785c4f0fed0892f5b7c3a51fea67ef5290","568014.9000000954","679.5","88","0","swim","","","","",""
"dual-task","null","null","null","","swim","arctic","1083.8999998569489","","Q","null","88","77","0","swim-dual-task","","Q","uppercase","580000","0","3","699e23c59c2d94ced65b4798f4f4b7785c4f0fed0892f5b7c3a51fea67ef5290","580010.100000143","1083.8999998569489","88","0","swim","","","","",""
"dual-task","null","null","null","","swim","arctic","666.2000000476837","","N","null","88","77","0","swim-dual-task","","N","uppercase","590000","0","3","699e23c59c2d94ced65b4798f4f4b7785c4f0fed0892f5b7c3a51fea67ef5290","590005.2999999523","666.2000000476837","88","0","swim","","","","",""
"dual-task","null","null","null","","swim","arctic","648.2000000476837","","r","null","77","88","0","swim-dual-task","","r","lowercase","604000","0","3","699e23c59c2d94ced65b4798f4f4b7785c4f0fed0892f5b7c3a51fea67ef5290","604004.2000000477","648.2000000476837","77","0","swim","","","","",""
"dual-task","null","null","null","","swim","arctic","682.5999999046326","","e","null","77","88","0","swim-dual-task","","e","lowercase","614000","0","3","699e23c59c2d94ced65b4798f4f4b7785c4f0fed0892f5b7c3a51fea67ef5290","614016.2999999523","682.5999999046326","77","0","swim","","","","",""
"dual-task","null","null","null","","swim","arctic","535.2999999523163","","F","null","88","77","0","swim-dual-task","","F","uppercase","624000","0","3","699e23c59c2d94ced65b4798f4f4b7785c4f0fed0892f5b7c3a51fea67ef5290","624015.4000000954","535.2999999523163","88","0","swim","","","","",""
"dual-task","null","null","null","","swim","arctic","805.8000001907349","","T","null","88","77","0","swim-dual-task","","T","uppercase","632000","0","3","699e23c59c2d94ced65b4798f4f4b7785c4f0fed0892f5b7c3a51fea67ef5290","632012.7999999523","805.8000001907349","88","0","swim","","","","",""
"dual-task","null","null","null","","swim","arctic","690.8999998569489","","g","null","77","88","0","swim-dual-task","","g","lowercase","642000","0","3","699e23c59c2d94ced65b4798f4f4b7785c4f0fed0892f5b7c3a51fea67ef5290","642001","690.8999998569489","77","0","swim","","","","",""
"dual-task","null","null","null","","swim","arctic","810.2999999523163","","R","null","88","77","0","swim-dual-task","","R","uppercase","648000","0","3","699e23c59c2d94ced65b4798f4f4b7785c4f0fed0892f5b7c3a51fea67ef5290","648006.7000000477","810.2999999523163","88","0","swim","","","","",""
"dual-task","null","null","null","","swim","arctic","553","","A","null","88","77","0","swim-dual-task","","A","uppercase","660000","0","3","699e23c59c2d94ced65b4798f4f4b7785c4f0fed0892f5b7c3a51fea67ef5290","660012.2000000477","553","88","0","swim","","","","",""
"dual-task","null","null","null","","swim","arctic","374.2999999523163","","E","null","88","77","0","swim-dual-task","","E","uppercase","670000","0","3","699e23c59c2d94ced65b4798f4f4b7785c4f0fed0892f5b7c3a51fea67ef5290","670017","374.2999999523163","88","0","swim","","","","",""
"dual-task","null","null","null","","swim","arctic","719.6000001430511","","e","null","77","88","0","swim-dual-task","","e","lowercase","680000","0","3","699e23c59c2d94ced65b4798f4f4b7785c4f0fed0892f5b7c3a51fea67ef5290","680017.5","719.6000001430511","77","0","swim","","","","",""
"dual-task","null","null","null","","swim","arctic","721.4000000953674","","n","null","77","88","0","swim-dual-task","","n","lowercase","692000","0","3","699e23c59c2d94ced65b4798f4f4b7785c4f0fed0892f5b7c3a51fea67ef5290","692017.7999999523","721.4000000953674","77","0","swim","","","","",""
"dual-task","null","null","null","","swim","arctic","1021.4000000953674","","T","null","88","77","0","swim-dual-task","","T","uppercase","702000","0","3","699e23c59c2d94ced65b4798f4f4b7785c4f0fed0892f5b7c3a51fea67ef5290","702017.100000143","1021.4000000953674","88","0","swim","","","","",""
"dual-task","null","null","null","","swim","arctic","625.2999999523163","","R","null","77","77","1","swim-dual-task","","R","uppercase","710000","0","3","699e23c59c2d94ced65b4798f4f4b7785c4f0fed0892f5b7c3a51fea67ef5290","710007.7000000477","625.2999999523163","77","1","swim","","","","",""
"dual-task","null","null","null","","swim","arctic","670.2999999523163","","e","null","77","88","0","swim-dual-task","","e","lowercase","718000","0","3","699e23c59c2d94ced65b4798f4f4b7785c4f0fed0892f5b7c3a51fea67ef5290","718007.9000000954","670.2999999523163","77","0","swim","","","","",""
"dual-task","null","null","null","","swim","arctic","552","","t","null","77","88","0","swim-dual-task","","t","lowercase","730000","0","3","699e23c59c2d94ced65b4798f4f4b7785c4f0fed0892f5b7c3a51fea67ef5290","730007","552","77","0","swim","","","","",""
"dual-task","null","null","null","","swim","arctic","825.5","","D","null","88","77","0","swim-dual-task","","D","uppercase","742000","0","3","699e23c59c2d94ced65b4798f4f4b7785c4f0fed0892f5b7c3a51fea67ef5290","742016.9000000954","825.5","88","0","swim","","","","",""
"dual-task","null","null","null","","swim","arctic","703.4000000953674","","r","null","77","88","0","swim-dual-task","","r","lowercase","748000","0","3","699e23c59c2d94ced65b4798f4f4b7785c4f0fed0892f5b7c3a51fea67ef5290","748017.600000143","703.4000000953674","77","0","swim","","","","",""
"dual-task","null","null","null","","swim","arctic","835.9000000953674","","Q","null","88","77","0","swim-dual-task","","Q","uppercase","762000","0","3","699e23c59c2d94ced65b4798f4f4b7785c4f0fed0892f5b7c3a51fea67ef5290","762007.2999999523","835.9000000953674","88","0","swim","","","","",""
"dual-task","null","null","null","","swim","arctic","563.1000001430511","","n","null","77","88","0","swim-dual-task","","n","lowercase","772000","0","3","699e23c59c2d94ced65b4798f4f4b7785c4f0fed0892f5b7c3a51fea67ef5290","772007","563.1000001430511","77","0","swim","","","","",""
"dual-task","null","null","null","","swim","arctic","534.9000000953674","","r","null","88","88","1","swim-dual-task","","r","lowercase","784000","0","3","699e23c59c2d94ced65b4798f4f4b7785c4f0fed0892f5b7c3a51fea67ef5290","784017.4000000954","534.9000000953674","88","1","swim","","","","",""
"dual-task","null","null","null","","swim","arctic","597.9000000953674","","q","null","77","88","0","swim-dual-task","","q","lowercase","792000","0","3","699e23c59c2d94ced65b4798f4f4b7785c4f0fed0892f5b7c3a51fea67ef5290","792007","597.9000000953674","77","0","swim","","","","",""
"audio-keyboard-response","29","919167","0.0-7.0-0.0-1.0","699e23c59c2d94ced65b4798f4f4b7785c4f0fed0892f5b7c3a51fea67ef5290","swim","arctic","null","","audio/story_swim.mp3","","null","","","","","","","","","","","","","","","","","","","",""
"html-button-response","30","922299","0.0-7.0-0.0-2.0","699e23c59c2d94ced65b4798f4f4b7785c4f0fed0892f5b7c3a51fea67ef5290","swim","arctic","3131","","<p>This concludes the story. Thank you for listening.</p><p>You will now answer some questions about the content of the story.</p>","0","","","","","","","","","","","","","","","","","","","","",""
"survey-multi-choice","31","927671","0.0-7.0-0.0-3.0-0.0","699e23c59c2d94ced65b4798f4f4b7785c4f0fed0892f5b7c3a51fea67ef5290","swim","arctic","5366","","<b>How many times did the astronaut candidates have to complete the final exercise to pass?</b>","","","","1","swim-comprehension","","","","","","","","","","","","","{""Q0"":""Two""}","","","",""
"survey-multi-choice","32","932111","0.0-7.0-0.0-3.0-0.1","699e23c59c2d94ced65b4798f4f4b7785c4f0fed0892f5b7c3a51fea67ef5290","swim","arctic","4173","","<b>Where is the home of naval aviation?</b>","","","","1","swim-comprehension","","","","","","","","","","","","","{""Q0"":""Pensacola""}","","","",""
"survey-multi-choice","33","938180","0.0-7.0-0.0-3.0-0.2","699e23c59c2d94ced65b4798f4f4b7785c4f0fed0892f5b7c3a51fea67ef5290","swim","arctic","5812","","<b>How did the narrator train for his swim test?</b>","","","","1","swim-comprehension","","","","","","","","","","","","","{""Q0"":""Took his kids to the pool every day""}","","","",""
"survey-multi-choice","34","942112","0.0-7.0-0.0-3.0-0.3","699e23c59c2d94ced65b4798f4f4b7785c4f0fed0892f5b7c3a51fea67ef5290","swim","arctic","3676","","<b>What is the narrator afraid of, aside from the water?</b>","","","","1","swim-comprehension","","","","","","","","","","","","","{""Q0"":""Heights""}","","","",""
"survey-multi-choice","35","952793","0.0-7.0-0.0-3.0-0.4","699e23c59c2d94ced65b4798f4f4b7785c4f0fed0892f5b7c3a51fea67ef5290","swim","arctic","10425","","<b>What were the astronaut candidates trained to do at the naval air station?</b>","","","","1","swim-comprehension","","","","","","","","","","","","","{""Q0"":""Eject out of aircraft and survive in water long enough to be rescued""}","","","",""
"survey-multi-choice","36","961206","0.0-7.0-0.0-3.0-0.5","699e23c59c2d94ced65b4798f4f4b7785c4f0fed0892f5b7c3a51fea67ef5290","swim","arctic","8154","","<b>What gave the narrator his greatest feeling of accomplishment?</b>","","","","1","swim-comprehension","","","","","","","","","","","","","{""Q0"":""Passing the water survival course""}","","","",""
"survey-multi-choice","37","968587","0.0-7.0-0.0-3.0-0.6","699e23c59c2d94ced65b4798f4f4b7785c4f0fed0892f5b7c3a51fea67ef5290","swim","arctic","7125","","<b>What was the final step of the first swim test in the pool?</b>","","","","1","swim-comprehension","","","","","","","","","","","","","{""Q0"":""Tread water with hands above the water""}","","","",""
"survey-multi-choice","38","972459","0.0-7.0-0.0-3.0-0.7","699e23c59c2d94ced65b4798f4f4b7785c4f0fed0892f5b7c3a51fea67ef5290","swim","arctic","3615","","<b>How many astronaut candidates passed the first swim test?</b>","","","","1","swim-comprehension","","","","","","","","","","","","","{""Q0"":""All of them""}","","","",""
"survey-multi-choice","39","977736","0.0-7.0-0.0-3.0-0.8","699e23c59c2d94ced65b4798f4f4b7785c4f0fed0892f5b7c3a51fea67ef5290","swim","arctic","5018","","<b>How often does the narrator swim, now that he is a good swimmer?</b>","","","","1","swim-comprehension","","","","","","","","","","","","","{""Q0"":""Never swam again in his life""}","","","",""
"survey-multi-choice","40","981260","0.0-7.0-0.0-3.0-0.9","699e23c59c2d94ced65b4798f4f4b7785c4f0fed0892f5b7c3a51fea67ef5290","swim","arctic","3265","","<b>How many astronaut candidates reported for duty at the Johnson Space Center?</b>","","","","1","swim-comprehension","","","","","","","","","","","","","{""Q0"":""Forty-four""}","","","",""
"html-button-response","41","983323","0.0-7.0-0.0-4.0","699e23c59c2d94ced65b4798f4f4b7785c4f0fed0892f5b7c3a51fea67ef5290","swim","arctic","1807","","<p>Thank you for your responses.</p><p>You will now answer some questions about your impressions of the story.</p>","0","","","","","","","","","","","","","","","","","","","","",""
"html-button-response","42","989645","0.0-7.0-0.0-5.0-0.0","699e23c59c2d94ced65b4798f4f4b7785c4f0fed0892f5b7c3a51fea67ef5290","swim","arctic","6319","","A4","4","","","","swim-engagement","","","","","","","","","","","","","","5","absorption","",""
"html-button-response","43","991505","0.0-7.0-0.0-5.0-0.1","699e23c59c2d94ced65b4798f4f4b7785c4f0fed0892f5b7c3a51fea67ef5290","swim","arctic","1607","","E7","5","","","","swim-engagement","","","","","","","","","","","","","","6","enjoyment","",""
"html-button-response","44","993722","0.0-7.0-0.0-5.0-0.2","699e23c59c2d94ced65b4798f4f4b7785c4f0fed0892f5b7c3a51fea67ef5290","swim","arctic","1964","","E6","5","","","","swim-engagement","","","","","","","","","","","","","","6","enjoyment","",""
"html-button-response","45","999480","0.0-7.0-0.0-5.0-0.3","699e23c59c2d94ced65b4798f4f4b7785c4f0fed0892f5b7c3a51fea67ef5290","swim","arctic","5505","","MS3","5","","","","swim-engagement","","","","","","","","","","","","","","6","mental-sim","",""
"html-button-response","46","1002665","0.0-7.0-0.0-5.0-0.4","699e23c59c2d94ced65b4798f4f4b7785c4f0fed0892f5b7c3a51fea67ef5290","swim","arctic","2933","","EE4","4","","","","swim-engagement","","","","","","","","","","","","","","5","emo-engage","",""
"html-button-response","47","1004490","0.0-7.0-0.0-5.0-0.5","699e23c59c2d94ced65b4798f4f4b7785c4f0fed0892f5b7c3a51fea67ef5290","swim","arctic","1572","","E10","5","","","","swim-engagement","","","","","","","","","","","","","","6","enjoyment","",""
"html-button-response","48","1007513","0.0-7.0-0.0-5.0-0.6","699e23c59c2d94ced65b4798f4f4b7785c4f0fed0892f5b7c3a51fea67ef5290","swim","arctic","2771","","EE2","5","","","","swim-engagement","","","","","","","","","","","","","","6","emo-engage","",""
"html-button-response","49","1011711","0.0-7.0-0.0-5.0-0.7","699e23c59c2d94ced65b4798f4f4b7785c4f0fed0892f5b7c3a51fea67ef5290","swim","arctic","3944","","A5","4","","","","swim-engagement","","","","","","","","","","","","","","5","absorption","",""
"html-button-response","50","1015684","0.0-7.0-0.0-5.0-0.8","699e23c59c2d94ced65b4798f4f4b7785c4f0fed0892f5b7c3a51fea67ef5290","swim","arctic","3721","","A1","3","","","","swim-engagement","","","","","","","","","","","","","","4","absorption","",""
"html-button-response","51","1019318","0.0-7.0-0.0-5.0-0.9","699e23c59c2d94ced65b4798f4f4b7785c4f0fed0892f5b7c3a51fea67ef5290","swim","arctic","3380","","MS1","5","","","","swim-engagement","","","","","","","","","","","","","","6","mental-sim","",""
"html-button-response","52","1021011","0.0-7.0-0.0-5.0-0.10","699e23c59c2d94ced65b4798f4f4b7785c4f0fed0892f5b7c3a51fea67ef5290","swim","arctic","1437","","A3","5","","","","swim-engagement","","","","","","","","","","","","","","6","absorption","",""
"html-button-response","53","1023888","0.0-7.0-0.0-5.0-0.11","699e23c59c2d94ced65b4798f4f4b7785c4f0fed0892f5b7c3a51fea67ef5290","swim","arctic","2624","","EE5","5","","","","swim-engagement","","","","","","","","","","","","","","6","emo-engage","",""
"html-button-response","54","1031129","0.0-7.0-0.0-5.0-0.12","699e23c59c2d94ced65b4798f4f4b7785c4f0fed0892f5b7c3a51fea67ef5290","swim","arctic","6988","","EE1","4","","","","swim-engagement","","","","","","","","","","","","","","5","emo-engage","",""
"html-button-response","55","1033201","0.0-7.0-0.0-5.0-0.13","699e23c59c2d94ced65b4798f4f4b7785c4f0fed0892f5b7c3a51fea67ef5290","swim","arctic","1818","","E8","4","","","","swim-engagement","","","","","","","","","","","","","","5","enjoyment","",""
"html-button-response","56","1037662","0.0-7.0-0.0-5.0-0.14","699e23c59c2d94ced65b4798f4f4b7785c4f0fed0892f5b7c3a51fea67ef5290","swim","arctic","4209","","MS2","4","","","","swim-engagement","","","","","","","","","","","","","","5","mental-sim","",""
"html-button-response","57","1039551","0.0-7.0-0.0-5.0-0.15","699e23c59c2d94ced65b4798f4f4b7785c4f0fed0892f5b7c3a51fea67ef5290","swim","arctic","1634","","EE3","4","","","","swim-engagement","","","","","","","","","","","","","","5","emo-engage","",""
"html-button-response","58","1041299","0.0-7.0-0.0-5.0-0.16","699e23c59c2d94ced65b4798f4f4b7785c4f0fed0892f5b7c3a51fea67ef5290","swim","arctic","1495","","E1","4","","","","swim-engagement","","","","","","","","","","","","","","5","enjoyment","",""
"html-button-response","59","1043629","0.0-7.0-0.0-5.0-0.17","699e23c59c2d94ced65b4798f4f4b7785c4f0fed0892f5b7c3a51fea67ef5290","swim","arctic","2076","","A2","5","","","","swim-engagement","","","","","","","","","","","","","","6","absorption","",""
"html-keyboard-response","60","1056987","0.0-7.0-1.0","699e23c59c2d94ced65b4798f4f4b7785c4f0fed0892f5b7c3a51fea67ef5290","swim","arctic","13105","","<p>Thank you for your responses. You will now listen to the second story.</p><p>Remember, as you listen to the story you will see letters appear on the screen.</br>As quickly as possible, press <b>&lt;x&gt;</b> if the letter is lowercase and <b>&lt;m&gt;</b> if the letter is uppercase.</p><p>Press <b>&lt;x&gt;</b> or <b>&lt;m&gt;</b> to begin listening!</p>","","88","","","","","","","","","","","","","","","","","","","",""
"html-keyboard-response","61","1057496","0.0-7.0-2.0-0.0","699e23c59c2d94ced65b4798f4f4b7785c4f0fed0892f5b7c3a51fea67ef5290","swim","arctic","null","","<div style=""font-size:60px;"" tabindex=""0"">+</div>","","null","","","","","","","","","","","","","","","","","","","",""
"dual-task","null","null","null","","swim","arctic","717.1000001430511","","e","null","77","88","0","arctic-dual-task","","e","lowercase","14000","0","3","699e23c59c2d94ced65b4798f4f4b7785c4f0fed0892f5b7c3a51fea67ef5290","14008.5","717.1000001430511","77","0","arctic","","","","",""
"dual-task","null","null","null","","swim","arctic","1486.3000001907349","","q","null","88","88","1","arctic-dual-task","","q","lowercase","28000","0","3","699e23c59c2d94ced65b4798f4f4b7785c4f0fed0892f5b7c3a51fea67ef5290","28002.89999985695","1486.3000001907349","88","1","arctic","","","","",""
"dual-task","null","null","null","","swim","arctic","1255.7999999523163","","D","null","77","77","1","arctic-dual-task","","D","uppercase","38000","0","3","699e23c59c2d94ced65b4798f4f4b7785c4f0fed0892f5b7c3a51fea67ef5290","38004.39999985695","1255.7999999523163","77","1","arctic","","","","",""
"dual-task","null","null","null","","swim","arctic","741.2999999523163","","N","null","88","77","0","arctic-dual-task","","N","uppercase","50000","0","3","699e23c59c2d94ced65b4798f4f4b7785c4f0fed0892f5b7c3a51fea67ef5290","50010.39999985695","741.2999999523163","88","0","arctic","","","","",""
"dual-task","null","null","null","","swim","arctic","771.7999999523163","","H","null","77","77","1","arctic-dual-task","","H","uppercase","58000","0","3","699e23c59c2d94ced65b4798f4f4b7785c4f0fed0892f5b7c3a51fea67ef5290","58001.799999952316","771.7999999523163","77","1","arctic","","","","",""
"dual-task","null","null","null","","swim","arctic","489.59999990463257","","a","null","88","88","1","arctic-dual-task","","a","lowercase","70000","0","3","699e23c59c2d94ced65b4798f4f4b7785c4f0fed0892f5b7c3a51fea67ef5290","70009.29999995232","489.59999990463257","88","1","arctic","","","","",""
"dual-task","null","null","null","","swim","arctic","854.7999999523163","","N","null","77","77","1","arctic-dual-task","","N","uppercase","84000","0","3","699e23c59c2d94ced65b4798f4f4b7785c4f0fed0892f5b7c3a51fea67ef5290","84009.09999990463","854.7999999523163","77","1","arctic","","","","",""
"dual-task","null","null","null","","swim","arctic","738.2000000476837","","e","null","88","88","1","arctic-dual-task","","e","lowercase","98000","0","3","699e23c59c2d94ced65b4798f4f4b7785c4f0fed0892f5b7c3a51fea67ef5290","98005.39999985695","738.2000000476837","88","1","arctic","","","","",""
"dual-task","null","null","null","","swim","arctic","911.7999999523163","","A","null","77","77","1","arctic-dual-task","","A","uppercase","112000","0","3","699e23c59c2d94ced65b4798f4f4b7785c4f0fed0892f5b7c3a51fea67ef5290","112009.09999990463","911.7999999523163","77","1","arctic","","","","",""
"dual-task","null","null","null","","swim","arctic","895.8999998569489","","g","null","88","88","1","arctic-dual-task","","g","lowercase","120000","0","3","699e23c59c2d94ced65b4798f4f4b7785c4f0fed0892f5b7c3a51fea67ef5290","120019.5","895.8999998569489","88","1","arctic","","","","",""
"dual-task","null","null","null","","swim","arctic","680.2000000476837","","g","null","88","88","1","arctic-dual-task","","g","lowercase","132000","0","3","699e23c59c2d94ced65b4798f4f4b7785c4f0fed0892f5b7c3a51fea67ef5290","132009.19999980927","680.2000000476837","88","1","arctic","","","","",""
"dual-task","null","null","null","","swim","arctic","1098","","T","null","77","77","1","arctic-dual-task","","T","uppercase","146000","0","3","699e23c59c2d94ced65b4798f4f4b7785c4f0fed0892f5b7c3a51fea67ef5290","146010.59999990463","1098","77","1","arctic","","","","",""
"dual-task","null","null","null","","swim","arctic","660.1999998092651","","G","null","77","77","1","arctic-dual-task","","G","uppercase","154000","0","3","699e23c59c2d94ced65b4798f4f4b7785c4f0fed0892f5b7c3a51fea67ef5290","154020.19999980927","660.1999998092651","77","1","arctic","","","","",""
"dual-task","null","null","null","","swim","arctic","502.90000009536743","","G","null","77","77","1","arctic-dual-task","","G","uppercase","164000","0","3","699e23c59c2d94ced65b4798f4f4b7785c4f0fed0892f5b7c3a51fea67ef5290","164019.29999995232","502.90000009536743","77","1","arctic","","","","",""
"dual-task","null","null","null","","swim","arctic","596.2000000476837","","h","null","88","88","1","arctic-dual-task","","h","lowercase","178000","0","3","699e23c59c2d94ced65b4798f4f4b7785c4f0fed0892f5b7c3a51fea67ef5290","178019.89999985695","596.2000000476837","88","1","arctic","","","","",""
"dual-task","null","null","null","","swim","arctic","731.2999999523163","","f","null","88","88","1","arctic-dual-task","","f","lowercase","186000","0","3","699e23c59c2d94ced65b4798f4f4b7785c4f0fed0892f5b7c3a51fea67ef5290","186008.79999995232","731.2999999523163","88","1","arctic","","","","",""
"dual-task","null","null","null","","swim","arctic","828","","R","null","77","77","1","arctic-dual-task","","R","uppercase","200000","0","3","699e23c59c2d94ced65b4798f4f4b7785c4f0fed0892f5b7c3a51fea67ef5290","200018.89999985695","828","77","1","arctic","","","","",""
"dual-task","null","null","null","","swim","arctic","1226.7999999523163","","t","null","88","88","1","arctic-dual-task","","t","lowercase","212000","0","3","699e23c59c2d94ced65b4798f4f4b7785c4f0fed0892f5b7c3a51fea67ef5290","212019.09999990463","1226.7999999523163","88","1","arctic","","","","",""
"dual-task","null","null","null","","swim","arctic","1028.0999999046326","","g","null","88","88","1","arctic-dual-task","","g","lowercase","220000","0","3","699e23c59c2d94ced65b4798f4f4b7785c4f0fed0892f5b7c3a51fea67ef5290","220009.59999990463","1028.0999999046326","88","1","arctic","","","","",""
"dual-task","null","null","null","","swim","arctic","694.5999999046326","","r","null","88","88","1","arctic-dual-task","","r","lowercase","234000","0","3","699e23c59c2d94ced65b4798f4f4b7785c4f0fed0892f5b7c3a51fea67ef5290","234007.09999990463","694.5999999046326","88","1","arctic","","","","",""
"dual-task","null","null","null","","swim","arctic","813.1000001430511","","B","null","77","77","1","arctic-dual-task","","B","uppercase","246000","0","3","699e23c59c2d94ced65b4798f4f4b7785c4f0fed0892f5b7c3a51fea67ef5290","246001.69999980927","813.1000001430511","77","1","arctic","","","","",""
"dual-task","null","null","null","","swim","arctic","513","","n","null","88","88","1","arctic-dual-task","","n","lowercase","256000","0","3","699e23c59c2d94ced65b4798f4f4b7785c4f0fed0892f5b7c3a51fea67ef5290","256003.19999980927","513","88","1","arctic","","","","",""
"dual-task","null","null","null","","swim","arctic","600.2999999523163","","e","null","88","88","1","arctic-dual-task","","e","lowercase","264000","0","3","699e23c59c2d94ced65b4798f4f4b7785c4f0fed0892f5b7c3a51fea67ef5290","264005.5","600.2999999523163","88","1","arctic","","","","",""
"dual-task","null","null","null","","swim","arctic","719","","H","null","77","77","1","arctic-dual-task","","H","uppercase","274000","0","3","699e23c59c2d94ced65b4798f4f4b7785c4f0fed0892f5b7c3a51fea67ef5290","274013.2999999523","719","77","1","arctic","","","","",""
"dual-task","null","null","null","","swim","arctic","709.7999999523163","","B","null","77","77","1","arctic-dual-task","","B","uppercase","286000","0","3","699e23c59c2d94ced65b4798f4f4b7785c4f0fed0892f5b7c3a51fea67ef5290","286005.2999999523","709.7999999523163","77","1","arctic","","","","",""
"dual-task","null","null","null","","swim","arctic","1450.9000000953674","","r","null","88","88","1","arctic-dual-task","","r","lowercase","296000","0","3","699e23c59c2d94ced65b4798f4f4b7785c4f0fed0892f5b7c3a51fea67ef5290","296006.5","1450.9000000953674","88","1","arctic","","","","",""
"dual-task","null","null","null","","swim","arctic","694.6000001430511","","A","null","77","77","1","arctic-dual-task","","A","uppercase","306000","0","3","699e23c59c2d94ced65b4798f4f4b7785c4f0fed0892f5b7c3a51fea67ef5290","306006.09999990463","694.6000001430511","77","1","arctic","","","","",""
"dual-task","null","null","null","","swim","arctic","709.5999999046326","","d","null","88","88","1","arctic-dual-task","","d","lowercase","314000","0","3","699e23c59c2d94ced65b4798f4f4b7785c4f0fed0892f5b7c3a51fea67ef5290","314008.19999980927","709.5999999046326","88","1","arctic","","","","",""
"dual-task","null","null","null","","swim","arctic","639.6000001430511","","a","null","88","88","1","arctic-dual-task","","a","lowercase","326000","0","3","699e23c59c2d94ced65b4798f4f4b7785c4f0fed0892f5b7c3a51fea67ef5290","326000.7999999523","639.6000001430511","88","1","arctic","","","","",""
"dual-task","null","null","null","","swim","arctic","595.8999998569489","","G","null","77","77","1","arctic-dual-task","","G","uppercase","334000","0","3","699e23c59c2d94ced65b4798f4f4b7785c4f0fed0892f5b7c3a51fea67ef5290","334013.5","595.8999998569489","77","1","arctic","","","","",""
"dual-task","null","null","null","","swim","arctic","587","","r","null","88","88","1","arctic-dual-task","","r","lowercase","346000","0","3","699e23c59c2d94ced65b4798f4f4b7785c4f0fed0892f5b7c3a51fea67ef5290","346005.7999999523","587","88","1","arctic","","","","",""
"dual-task","null","null","null","","swim","arctic","886.9000000953674","","D","null","77","77","1","arctic-dual-task","","D","uppercase","356000","0","3","699e23c59c2d94ced65b4798f4f4b7785c4f0fed0892f5b7c3a51fea67ef5290","356016.2999999523","886.9000000953674","77","1","arctic","","","","",""
"dual-task","null","null","null","","swim","arctic","675","","R","null","77","77","1","arctic-dual-task","","R","uppercase","366000","0","3","699e23c59c2d94ced65b4798f4f4b7785c4f0fed0892f5b7c3a51fea67ef5290","366003.59999990463","675","77","1","arctic","","","","",""
"dual-task","null","null","null","","swim","arctic","670.8999998569489","","B","null","77","77","1","arctic-dual-task","","B","uppercase","376000","0","3","699e23c59c2d94ced65b4798f4f4b7785c4f0fed0892f5b7c3a51fea67ef5290","376006.19999980927","670.8999998569489","77","1","arctic","","","","",""
"dual-task","null","null","null","","swim","arctic","640.3999998569489","","A","null","88","77","0","arctic-dual-task","","A","uppercase","386000","0","3","699e23c59c2d94ced65b4798f4f4b7785c4f0fed0892f5b7c3a51fea67ef5290","386015.69999980927","640.3999998569489","88","0","arctic","","","","",""
"dual-task","null","null","null","","swim","arctic","827","","h","null","88","88","1","arctic-dual-task","","h","lowercase","398000","0","3","699e23c59c2d94ced65b4798f4f4b7785c4f0fed0892f5b7c3a51fea67ef5290","398003.69999980927","827","88","1","arctic","","","","",""
"dual-task","null","null","null","","swim","arctic","787.2999999523163","","d","null","88","88","1","arctic-dual-task","","d","lowercase","404000","0","3","699e23c59c2d94ced65b4798f4f4b7785c4f0fed0892f5b7c3a51fea67ef5290","404004.5","787.2999999523163","88","1","arctic","","","","",""
"dual-task","null","null","null","","swim","arctic","507.10000014305115","","a","null","88","88","1","arctic-dual-task","","a","lowercase","418000","0","3","699e23c59c2d94ced65b4798f4f4b7785c4f0fed0892f5b7c3a51fea67ef5290","418004.09999990463","507.10000014305115","88","1","arctic","","","","",""
"dual-task","null","null","null","","swim","arctic","731.8999998569489","","F","null","77","77","1","arctic-dual-task","","F","uppercase","424000","0","3","699e23c59c2d94ced65b4798f4f4b7785c4f0fed0892f5b7c3a51fea67ef5290","424014.09999990463","731.8999998569489","77","1","arctic","","","","",""
"dual-task","null","null","null","","swim","arctic","531.1000001430511","","F","null","77","77","1","arctic-dual-task","","F","uppercase","436000","0","3","699e23c59c2d94ced65b4798f4f4b7785c4f0fed0892f5b7c3a51fea67ef5290","436014.59999990463","531.1000001430511","77","1","arctic","","","","",""
"dual-task","null","null","null","","swim","arctic","835.4000000953674","","G","null","77","77","1","arctic-dual-task","","G","uppercase","446000","0","3","699e23c59c2d94ced65b4798f4f4b7785c4f0fed0892f5b7c3a51fea67ef5290","446018.69999980927","835.4000000953674","77","1","arctic","","","","",""
"dual-task","null","null","null","","swim","arctic","700.2000000476837","","b","null","88","88","1","arctic-dual-task","","b","lowercase","452000","0","3","699e23c59c2d94ced65b4798f4f4b7785c4f0fed0892f5b7c3a51fea67ef5290","452019","700.2000000476837","88","1","arctic","","","","",""
"dual-task","null","null","null","","swim","arctic","665.0999999046326","","Q","null","77","77","1","arctic-dual-task","","Q","uppercase","460000","0","3","699e23c59c2d94ced65b4798f4f4b7785c4f0fed0892f5b7c3a51fea67ef5290","460010","665.0999999046326","77","1","arctic","","","","",""
"dual-task","null","null","null","","swim","arctic","719.2000000476837","","f","null","88","88","1","arctic-dual-task","","f","lowercase","468000","0","3","699e23c59c2d94ced65b4798f4f4b7785c4f0fed0892f5b7c3a51fea67ef5290","468010.09999990463","719.2000000476837","88","1","arctic","","","","",""
"dual-task","null","null","null","","swim","arctic","648.3999998569489","","Q","null","77","77","1","arctic-dual-task","","Q","uppercase","474000","0","3","699e23c59c2d94ced65b4798f4f4b7785c4f0fed0892f5b7c3a51fea67ef5290","474006.5","648.3999998569489","77","1","arctic","","","","",""
"dual-task","null","null","null","","swim","arctic","610.9000000953674","","H","null","77","77","1","arctic-dual-task","","H","uppercase","484000","0","3","699e23c59c2d94ced65b4798f4f4b7785c4f0fed0892f5b7c3a51fea67ef5290","484002","610.9000000953674","77","1","arctic","","","","",""
"dual-task","null","null","null","","swim","arctic","801.5","","T","null","77","77","1","arctic-dual-task","","T","uppercase","498000","0","3","699e23c59c2d94ced65b4798f4f4b7785c4f0fed0892f5b7c3a51fea67ef5290","498014.7999999523","801.5","77","1","arctic","","","","",""
"dual-task","null","null","null","","swim","arctic","783.7000000476837","","d","null","88","88","1","arctic-dual-task","","d","lowercase","504000","0","3","699e23c59c2d94ced65b4798f4f4b7785c4f0fed0892f5b7c3a51fea67ef5290","504005.59999990463","783.7000000476837","88","1","arctic","","","","",""
"dual-task","null","null","null","","swim","arctic","524.3999998569489","","D","null","77","77","1","arctic-dual-task","","D","uppercase","512000","0","3","699e23c59c2d94ced65b4798f4f4b7785c4f0fed0892f5b7c3a51fea67ef5290","512009.59999990463","524.3999998569489","77","1","arctic","","","","",""
"dual-task","null","null","null","","swim","arctic","624.4000000953674","","a","null","88","88","1","arctic-dual-task","","a","lowercase","518000","0","3","699e23c59c2d94ced65b4798f4f4b7785c4f0fed0892f5b7c3a51fea67ef5290","518013.59999990463","624.4000000953674","88","1","arctic","","","","",""
"dual-task","null","null","null","","swim","arctic","650.2999999523163","","f","null","88","88","1","arctic-dual-task","","f","lowercase","528000","0","3","699e23c59c2d94ced65b4798f4f4b7785c4f0fed0892f5b7c3a51fea67ef5290","528007.5999999046","650.2999999523163","88","1","arctic","","","","",""
"dual-task","null","null","null","","swim","arctic","497.2000000476837","","D","null","77","77","1","arctic-dual-task","","D","uppercase","536000","0","3","699e23c59c2d94ced65b4798f4f4b7785c4f0fed0892f5b7c3a51fea67ef5290","536012.5999999046","497.2000000476837","77","1","arctic","","","","",""
"dual-task","null","null","null","","swim","arctic","862.0999999046326","","q","null","88","88","1","arctic-dual-task","","q","lowercase","548000","0","3","699e23c59c2d94ced65b4798f4f4b7785c4f0fed0892f5b7c3a51fea67ef5290","548010.2999999523","862.0999999046326","88","1","arctic","","","","",""
"dual-task","null","null","null","","swim","arctic","465.10000014305115","","e","null","88","88","1","arctic-dual-task","","e","lowercase","556000","0","3","699e23c59c2d94ced65b4798f4f4b7785c4f0fed0892f5b7c3a51fea67ef5290","556004.1999998093","465.10000014305115","88","1","arctic","","","","",""
"dual-task","null","null","null","","swim","arctic","735.6000001430511","","b","null","88","88","1","arctic-dual-task","","b","lowercase","568000","0","3","699e23c59c2d94ced65b4798f4f4b7785c4f0fed0892f5b7c3a51fea67ef5290","568018.7999999523","735.6000001430511","88","1","arctic","","","","",""
"dual-task","null","null","null","","swim","arctic","863","","g","null","88","88","1","arctic-dual-task","","g","lowercase","576000","0","3","699e23c59c2d94ced65b4798f4f4b7785c4f0fed0892f5b7c3a51fea67ef5290","576020.0999999046","863","88","1","arctic","","","","",""
"dual-task","null","null","null","","swim","arctic","747.2000000476837","","F","null","77","77","1","arctic-dual-task","","F","uppercase","584000","0","3","699e23c59c2d94ced65b4798f4f4b7785c4f0fed0892f5b7c3a51fea67ef5290","584009.7999999523","747.2000000476837","77","1","arctic","","","","",""
"dual-task","null","null","null","","swim","arctic","601.8000001907349","","R","null","77","77","1","arctic-dual-task","","R","uppercase","592000","0","3","699e23c59c2d94ced65b4798f4f4b7785c4f0fed0892f5b7c3a51fea67ef5290","592009.2999999523","601.8000001907349","77","1","arctic","","","","",""
"dual-task","null","null","null","","swim","arctic","712.5","","n","null","88","88","1","arctic-dual-task","","n","lowercase","600000","0","3","699e23c59c2d94ced65b4798f4f4b7785c4f0fed0892f5b7c3a51fea67ef5290","600009.2999999523","712.5","88","1","arctic","","","","",""
"dual-task","null","null","null","","swim","arctic","578.3999998569489","","N","null","77","77","1","arctic-dual-task","","N","uppercase","614000","0","3","699e23c59c2d94ced65b4798f4f4b7785c4f0fed0892f5b7c3a51fea67ef5290","614019.1999998093","578.3999998569489","77","1","arctic","","","","",""
"dual-task","null","null","null","","swim","arctic","650.5999999046326","","n","null","88","88","1","arctic-dual-task","","n","lowercase","622000","0","3","699e23c59c2d94ced65b4798f4f4b7785c4f0fed0892f5b7c3a51fea67ef5290","622011.6999998093","650.5999999046326","88","1","arctic","","","","",""
"dual-task","null","null","null","","swim","arctic","563.1000001430511","","q","null","88","88","1","arctic-dual-task","","q","lowercase","628000","0","3","699e23c59c2d94ced65b4798f4f4b7785c4f0fed0892f5b7c3a51fea67ef5290","628020.0999999046","563.1000001430511","88","1","arctic","","","","",""
"dual-task","null","null","null","","swim","arctic","704.2999999523163","","t","null","88","88","1","arctic-dual-task","","t","lowercase","636000","0","3","699e23c59c2d94ced65b4798f4f4b7785c4f0fed0892f5b7c3a51fea67ef5290","636019.2999999523","704.2999999523163","88","1","arctic","","","","",""
"dual-task","null","null","null","","swim","arctic","386.89999985694885","","n","null","88","88","1","arctic-dual-task","","n","lowercase","642000","0","3","699e23c59c2d94ced65b4798f4f4b7785c4f0fed0892f5b7c3a51fea67ef5290","642010","386.89999985694885","88","1","arctic","","","","",""
"dual-task","null","null","null","","swim","arctic","667.0999999046326","","Q","null","77","77","1","arctic-dual-task","","Q","uppercase","650000","0","3","699e23c59c2d94ced65b4798f4f4b7785c4f0fed0892f5b7c3a51fea67ef5290","650013.399999857","667.0999999046326","77","1","arctic","","","","",""
"dual-task","null","null","null","","swim","arctic","386","","T","null","88","77","0","arctic-dual-task","","T","uppercase","662000","0","3","699e23c59c2d94ced65b4798f4f4b7785c4f0fed0892f5b7c3a51fea67ef5290","662002.899999857","386","88","0","arctic","","","","",""
"dual-task","null","null","null","","swim","arctic","770.5","","E","null","77","77","1","arctic-dual-task","","E","uppercase","668000","0","3","699e23c59c2d94ced65b4798f4f4b7785c4f0fed0892f5b7c3a51fea67ef5290","668011.899999857","770.5","77","1","arctic","","","","",""
"dual-task","null","null","null","","swim","arctic","569.8999998569489","","R","null","77","77","1","arctic-dual-task","","R","uppercase","674000","0","3","699e23c59c2d94ced65b4798f4f4b7785c4f0fed0892f5b7c3a51fea67ef5290","674015.2999999523","569.8999998569489","77","1","arctic","","","","",""
"dual-task","null","null","null","","swim","arctic","951.7000000476837","","A","null","88","77","0","arctic-dual-task","","A","uppercase","682000","0","3","699e23c59c2d94ced65b4798f4f4b7785c4f0fed0892f5b7c3a51fea67ef5290","682009.6999998093","951.7000000476837","88","0","arctic","","","","",""
"dual-task","null","null","null","","swim","arctic","483","","b","null","88","88","1","arctic-dual-task","","b","lowercase","696000","0","3","699e23c59c2d94ced65b4798f4f4b7785c4f0fed0892f5b7c3a51fea67ef5290","696006.899999857","483","88","1","arctic","","","","",""
"dual-task","null","null","null","","swim","arctic","708.5","","r","null","88","88","1","arctic-dual-task","","r","lowercase","704000","0","3","699e23c59c2d94ced65b4798f4f4b7785c4f0fed0892f5b7c3a51fea67ef5290","704001.7999999523","708.5","88","1","arctic","","","","",""
"dual-task","null","null","null","","swim","arctic","764.7999999523163","","E","null","77","77","1","arctic-dual-task","","E","uppercase","710000","0","3","699e23c59c2d94ced65b4798f4f4b7785c4f0fed0892f5b7c3a51fea67ef5290","710001.5999999046","764.7999999523163","77","1","arctic","","","","",""
"dual-task","null","null","null","","swim","arctic","562.0999999046326","","q","null","88","88","1","arctic-dual-task","","q","lowercase","722000","0","3","699e23c59c2d94ced65b4798f4f4b7785c4f0fed0892f5b7c3a51fea67ef5290","722015.7999999523","562.0999999046326","88","1","arctic","","","","",""
"dual-task","null","null","null","","swim","arctic","858.5","","h","null","88","88","1","arctic-dual-task","","h","lowercase","730000","0","3","699e23c59c2d94ced65b4798f4f4b7785c4f0fed0892f5b7c3a51fea67ef5290","730006.899999857","858.5","88","1","arctic","","","","",""
"dual-task","null","null","null","","swim","arctic","614.7000000476837","","H","null","77","77","1","arctic-dual-task","","H","uppercase","740000","0","3","699e23c59c2d94ced65b4798f4f4b7785c4f0fed0892f5b7c3a51fea67ef5290","740013.7999999523","614.7000000476837","77","1","arctic","","","","",""
"dual-task","null","null","null","","swim","arctic","791.2999999523163","","t","null","77","88","0","arctic-dual-task","","t","lowercase","750000","0","3","699e23c59c2d94ced65b4798f4f4b7785c4f0fed0892f5b7c3a51fea67ef5290","750006","791.2999999523163","77","0","arctic","","","","",""
"dual-task","null","null","null","","swim","arctic","849.7000000476837","","N","null","77","77","1","arctic-dual-task","","N","uppercase","758000","0","3","699e23c59c2d94ced65b4798f4f4b7785c4f0fed0892f5b7c3a51fea67ef5290","758005.5","849.7000000476837","77","1","arctic","","","","",""
"dual-task","null","null","null","","swim","arctic","569","","f","null","88","88","1","arctic-dual-task","","f","lowercase","772000","0","3","699e23c59c2d94ced65b4798f4f4b7785c4f0fed0892f5b7c3a51fea67ef5290","772001.0999999046","569","88","1","arctic","","","","",""
"dual-task","null","null","null","","swim","arctic","619.8999998569489","","B","null","77","77","1","arctic-dual-task","","B","uppercase","782000","0","3","699e23c59c2d94ced65b4798f4f4b7785c4f0fed0892f5b7c3a51fea67ef5290","782009.5999999046","619.8999998569489","77","1","arctic","","","","",""
"audio-keyboard-response","62","1855578","0.0-7.0-2.0-1.0","699e23c59c2d94ced65b4798f4f4b7785c4f0fed0892f5b7c3a51fea67ef5290","swim","arctic","null","","audio/story_arctic_scrambled.mp3","","null","","","","","","","","","","","","","","","","","","","",""
"html-button-response","63","1861195","0.0-7.0-2.0-2.0","699e23c59c2d94ced65b4798f4f4b7785c4f0fed0892f5b7c3a51fea67ef5290","swim","arctic","5615","","<p>This concludes the story. Thank you for listening.</p><p>You will now answer some questions about the content of the story.</p>","0","","","","","","","","","","","","","","","","","","","","",""
"survey-multi-choice","64","1867207","0.0-7.0-2.0-3.0-0.0","699e23c59c2d94ced65b4798f4f4b7785c4f0fed0892f5b7c3a51fea67ef5290","swim","arctic","6005","","<b>What is the name of the narrator&#39;s neighbour?</b>","","","","1","arctic-comprehension","","","","","","","","","","","","","{""Q0"":""Dave""}","","","",""
"survey-multi-choice","65","1872233","0.0-7.0-2.0-3.0-0.1","699e23c59c2d94ced65b4798f4f4b7785c4f0fed0892f5b7c3a51fea67ef5290","swim","arctic","4770","","<b>What was the objective of the narrator&#39;s expedition?</b>","","","","1","arctic-comprehension","","","","","","","","","","","","","{""Q0"":""Dogsled across Arctic America""}","","","",""
"survey-multi-choice","66","1879565","0.0-7.0-2.0-3.0-0.2","699e23c59c2d94ced65b4798f4f4b7785c4f0fed0892f5b7c3a51fea67ef5290","swim","arctic","7075","","<b>How did the narrator prepare for her expedition?</b>","","","","1","arctic-comprehension","","","","","","","","","","","","","{""Q0"":""Trained in Alaska learning how to dogsled""}","","","",""
"survey-multi-choice","67","1888552","0.0-7.0-2.0-3.0-0.3","699e23c59c2d94ced65b4798f4f4b7785c4f0fed0892f5b7c3a51fea67ef5290","swim","arctic","8730","","<b>How did the narrator&#39;s encounter with the polar bears end?</b>","","","","1","arctic-comprehension","","","","","","","","","","","","","{""Q0"":""The bears walked back to their den.""}","","","",""
"survey-multi-choice","68","1892339","0.0-7.0-2.0-3.0-0.4","699e23c59c2d94ced65b4798f4f4b7785c4f0fed0892f5b7c3a51fea67ef5290","swim","arctic","3528","","<b>What did the narrator do for leisure while in her tent?</b>","","","","1","arctic-comprehension","","","","","","","","","","","","","{""Q0"":""Read""}","","","",""
"survey-multi-choice","69","1907994","0.0-7.0-2.0-3.0-0.5","699e23c59c2d94ced65b4798f4f4b7785c4f0fed0892f5b7c3a51fea67ef5290","swim","arctic","15384","","<b>How did the narrator&#39;s neighbour respond when she told him about her expedition?</b>","","","","1","arctic-comprehension","","","","","","","","","","","","","{""Q0"":""He said she was going to fail.""}","","","",""
"survey-multi-choice","70","1914206","0.0-7.0-2.0-3.0-0.6","699e23c59c2d94ced65b4798f4f4b7785c4f0fed0892f5b7c3a51fea67ef5290","swim","arctic","5957","","<b>What were the weather conditions in the Arctic like the winter of the narrator&#39;s expedition?</b>","","","","1","arctic-comprehension","","","","","","","","","","","","","{""Q0"":""There were more storms than any other winter in recorded history.""}","","","",""
"survey-multi-choice","71","1928294","0.0-7.0-2.0-3.0-0.7","699e23c59c2d94ced65b4798f4f4b7785c4f0fed0892f5b7c3a51fea67ef5290","swim","arctic","13834","","<b>How did the dogs respond when they saw the bears?</b>","","","","1","arctic-comprehension","","","","","","","","","","","","","{""Q0"":""Approached them""}","","","",""
"survey-multi-choice","72","1933178","0.0-7.0-2.0-3.0-0.8","699e23c59c2d94ced65b4798f4f4b7785c4f0fed0892f5b7c3a51fea67ef5290","swim","arctic","4623","","<b>Which dog on the narrator&#39;s dog team never followed instructions?</b>","","","","1","arctic-comprehension","","","","","","","","","","","","","{""Q0"":""Robert""}","","","",""
"survey-multi-choice","73","1936002","0.0-7.0-2.0-3.0-0.9","699e23c59c2d94ced65b4798f4f4b7785c4f0fed0892f5b7c3a51fea67ef5290","swim","arctic","2567","","<b>How many sponsorships did the narrator receive to support her expedition?</b>","","","","1","arctic-comprehension","","","","","","","","","","","","","{""Q0"":""None""}","","","",""
"html-button-response","74","1937566","0.0-7.0-2.0-4.0","699e23c59c2d94ced65b4798f4f4b7785c4f0fed0892f5b7c3a51fea67ef5290","swim","arctic","1311","","<p>Thank you for your responses.</p><p>You will now answer some questions about your impressions of the story.</p>","0","","","","","","","","","","","","","","","","","","","","",""
"html-button-response","75","1940500","0.0-7.0-2.0-5.0-0.0","699e23c59c2d94ced65b4798f4f4b7785c4f0fed0892f5b7c3a51fea67ef5290","swim","arctic","2932","","A1","1","","","","arctic-engagement","","","","","","","","","","","","","","2","absorption","",""
"html-button-response","76","1942811","0.0-7.0-2.0-5.0-0.1","699e23c59c2d94ced65b4798f4f4b7785c4f0fed0892f5b7c3a51fea67ef5290","swim","arctic","2057","","E1","2","","","","arctic-engagement","","","","","","","","","","","","","","3","enjoyment","",""
"html-button-response","77","1944881","0.0-7.0-2.0-5.0-0.2","699e23c59c2d94ced65b4798f4f4b7785c4f0fed0892f5b7c3a51fea67ef5290","swim","arctic","1816","","MS3","3","","","","arctic-engagement","","","","","","","","","","","","","","4","mental-sim","",""
"html-button-response","78","1947004","0.0-7.0-2.0-5.0-0.3","699e23c59c2d94ced65b4798f4f4b7785c4f0fed0892f5b7c3a51fea67ef5290","swim","arctic","1870","","E10","0","","","","arctic-engagement","","","","","","","","","","","","","","1","enjoyment","",""
"html-button-response","79","1949108","0.0-7.0-2.0-5.0-0.4","699e23c59c2d94ced65b4798f4f4b7785c4f0fed0892f5b7c3a51fea67ef5290","swim","arctic","1849","","EE5","2","","","","arctic-engagement","","","","","","","","","","","","","","3","emo-engage","",""
"html-button-response","80","1950970","0.0-7.0-2.0-5.0-0.5","699e23c59c2d94ced65b4798f4f4b7785c4f0fed0892f5b7c3a51fea67ef5290","swim","arctic","1609","","E8","3","","","","arctic-engagement","","","","","","","","","","","","","","4","enjoyment","",""
"html-button-response","81","1953013","0.0-7.0-2.0-5.0-0.6","699e23c59c2d94ced65b4798f4f4b7785c4f0fed0892f5b7c3a51fea67ef5290","swim","arctic","1789","","A3","1","","","","arctic-engagement","","","","","","","","","","","","","","2","absorption","",""
"html-button-response","82","1955789","0.0-7.0-2.0-5.0-0.7","699e23c59c2d94ced65b4798f4f4b7785c4f0fed0892f5b7c3a51fea67ef5290","swim","arctic","2523","","MS2","2","","","","arctic-engagement","","","","","","","","","","","","","","3","mental-sim","",""
"html-button-response","83","1957890","0.0-7.0-2.0-5.0-0.8","699e23c59c2d94ced65b4798f4f4b7785c4f0fed0892f5b7c3a51fea67ef5290","swim","arctic","1848","","A5","1","","","","arctic-engagement","","","","","","","","","","","","","","2","absorption","",""
"html-button-response","84","1959781","0.0-7.0-2.0-5.0-0.9","699e23c59c2d94ced65b4798f4f4b7785c4f0fed0892f5b7c3a51fea67ef5290","swim","arctic","1639","","EE2","4","","","","arctic-engagement","","","","","","","","","","","","","","5","emo-engage","",""
"html-button-response","85","1961998","0.0-7.0-2.0-5.0-0.10","699e23c59c2d94ced65b4798f4f4b7785c4f0fed0892f5b7c3a51fea67ef5290","swim","arctic","1965","","A2","3","","","","arctic-engagement","","","","","","","","","","","","","","4","absorption","",""
"html-button-response","86","1963778","0.0-7.0-2.0-5.0-0.11","699e23c59c2d94ced65b4798f4f4b7785c4f0fed0892f5b7c3a51fea67ef5290","swim","arctic","1524","","E7","2","","","","arctic-engagement","","","","","","","","","","","","","","3","enjoyment","",""
"html-button-response","87","1966335","0.0-7.0-2.0-5.0-0.12","699e23c59c2d94ced65b4798f4f4b7785c4f0fed0892f5b7c3a51fea67ef5290","swim","arctic","2304","","A4","1","","","","arctic-engagement","","","","","","","","","","","","","","2","absorption","",""
"html-button-response","88","1968260","0.0-7.0-2.0-5.0-0.13","699e23c59c2d94ced65b4798f4f4b7785c4f0fed0892f5b7c3a51fea67ef5290","swim","arctic","1671","","EE1","2","","","","arctic-engagement","","","","","","","","","","","","","","3","emo-engage","",""
"html-button-response","89","1970369","0.0-7.0-2.0-5.0-0.14","699e23c59c2d94ced65b4798f4f4b7785c4f0fed0892f5b7c3a51fea67ef5290","swim","arctic","1857","","EE4","2","","","","arctic-engagement","","","","","","","","","","","","","","3","emo-engage","",""
"html-button-response","90","1972598","0.0-7.0-2.0-5.0-0.15","699e23c59c2d94ced65b4798f4f4b7785c4f0fed0892f5b7c3a51fea67ef5290","swim","arctic","1976","","EE3","1","","","","arctic-engagement","","","","","","","","","","","","","","2","emo-engage","",""
"html-button-response","91","1974399","0.0-7.0-2.0-5.0-0.16","699e23c59c2d94ced65b4798f4f4b7785c4f0fed0892f5b7c3a51fea67ef5290","swim","arctic","1547","","E6","2","","","","arctic-engagement","","","","","","","","","","","","","","3","enjoyment","",""
"html-button-response","92","1976571","0.0-7.0-2.0-5.0-0.17","699e23c59c2d94ced65b4798f4f4b7785c4f0fed0892f5b7c3a51fea67ef5290","swim","arctic","1919","","MS1","2","","","","arctic-engagement","","","","","","","","","","","","","","3","mental-sim","",""
"html-button-response","93","1977860","0.0-8.0","699e23c59c2d94ced65b4798f4f4b7785c4f0fed0892f5b7c3a51fea67ef5290","swim","arctic","1036","","<p>Thank you for your responses.</p><p>You will now answer some demographic, hearing, and general health questions.</p>","0","","","","","","","","","","","","","","","","","","","","",""
"survey-multi-choice","94","1980749","0.0-9.0-0.0","699e23c59c2d94ced65b4798f4f4b7785c4f0fed0892f5b7c3a51fea67ef5290","swim","arctic","2881","","","","","","","survey","","","","","","","","","","","","","{""Q0"":""Chrome""}","","","browser",""
"survey-text","95","1983308","0.0-9.0-1.0","699e23c59c2d94ced65b4798f4f4b7785c4f0fed0892f5b7c3a51fea67ef5290","swim","arctic","2302.2000000476837","","","","","","","survey","","","","","","","","","","","","","{""AGE"":""40""}","","","age","40"
"survey-multi-choice","96","1984963","0.0-9.0-2.0","699e23c59c2d94ced65b4798f4f4b7785c4f0fed0892f5b7c3a51fea67ef5290","swim","arctic","1399","","","","","","","survey","","","","","","","","","","","","","{""Q0"":""Male""}","","","gender","Male"
"survey-multi-choice","97","1986795","0.0-9.0-4.0","699e23c59c2d94ced65b4798f4f4b7785c4f0fed0892f5b7c3a51fea67ef5290","swim","arctic","1579","","","","","","","survey","","","","","","","","","","","","","{""Q0"":""Right""}","","","handedness","Right"
"survey-multi-choice","98","1990659","0.0-9.0-5.0","699e23c59c2d94ced65b4798f4f4b7785c4f0fed0892f5b7c3a51fea67ef5290","swim","arctic","3597","","","","","","","survey","","","","","","","","","","","","","{""Q0"":""Some university undergraduate schooling""}","","","education","Some university undergraduate schooling"
"survey-text","99","1994642","0.0-10.0-0.0","699e23c59c2d94ced65b4798f4f4b7785c4f0fed0892f5b7c3a51fea67ef5290","swim","arctic","3729.100000143051","","","","","","","survey","","","","","","","","","","","","","{""L1"":""english""}","","","first-language","english"
"survey-text","100","1997717","0.0-10.0-1.0","699e23c59c2d94ced65b4798f4f4b7785c4f0fed0892f5b7c3a51fea67ef5290","swim","arctic","2817.2999999523163","","","","","","","survey","","","","","","","","","","","","","{""L2name"":"""",""L2fluency"":"""",""L3name"":"""",""L3fluency"":"""",""L4name"":"""",""L4fluency"":""""}","","","additional-languages","{""L2name"":"""",""L2fluency"":"""",""L3name"":"""",""L3fluency"":"""",""L4name"":"""",""L4fluency"":""""}"
"survey-multi-choice","101","1999771","0.0-10.0-2.0","699e23c59c2d94ced65b4798f4f4b7785c4f0fed0892f5b7c3a51fea67ef5290","swim","arctic","1795","","","","","","","survey","","","","","","","","","","","","","{""Q0"":""No""}","","","hearing-aid","No"
"survey-multi-choice","102","2002451","0.0-10.0-3.0","699e23c59c2d94ced65b4798f4f4b7785c4f0fed0892f5b7c3a51fea67ef5290","swim","arctic","2425","","","","","","","survey","","","","","","","","","","","","","{""Q0"":""Never""}","","","ringing-ears","Never"
"survey-multi-choice","103","2004734","0.0-10.0-5.0","699e23c59c2d94ced65b4798f4f4b7785c4f0fed0892f5b7c3a51fea67ef5290","swim","arctic","2028","","","","","","","survey","","","","","","","","","","","","","{""Q0"":""No""}","","","neuro-disease","No"
"survey-multi-choice","104","2007799","0.0-10.0-7.0","699e23c59c2d94ced65b4798f4f4b7785c4f0fed0892f5b7c3a51fea67ef5290","swim","arctic","2810","","","","","","","survey","","","","","","","","","","","","","{""Q0"":""No""}","","","take-meds","No"
"survey-text","105","2011716","0.0-10.0-9.0","699e23c59c2d94ced65b4798f4f4b7785c4f0fed0892f5b7c3a51fea67ef5290","swim","arctic","3655.2999999523163","","","","","","","survey","","","","","","","","","","","","","{""HC"":""""}","","","health-concerns",""
"html-button-response","106","2015229","0.0-11.0-0.0","699e23c59c2d94ced65b4798f4f4b7785c4f0fed0892f5b7c3a51fea67ef5290","swim","arctic","3260","","<p>How would you describe your musical skills/experiences?</p>","0","","","","survey","","","","","","","","","","","","","","","","music-skill","1"
"survey-multi-choice","107","2017164","0.0-11.0-1.0","699e23c59c2d94ced65b4798f4f4b7785c4f0fed0892f5b7c3a51fea67ef5290","swim","arctic","1680","","","","","","","survey","","","","","","","","","","","","","{""Q0"":""No""}","","","music-instrument","No"
"html-button-response","108","2020215","0.0-12.0-0.0","699e23c59c2d94ced65b4798f4f4b7785c4f0fed0892f5b7c3a51fea67ef5290","swim","arctic","2799","","<p>How would you describe your general hearing abilities?</p>","5","","","","survey","","","","","","","","","","","","","","","","ssq-01","6"
"html-button-response","109","2027859","0.0-12.0-1.0","699e23c59c2d94ced65b4798f4f4b7785c4f0fed0892f5b7c3a51fea67ef5290","swim","arctic","7392","","<p>When you talk with someone at a place that strongly reverberates/echoes (e.g., in a church or train station),</br>can you understand what the person says?</p>","9","","","","survey","","","","","","","","","","","","","","","","ssq-02","9"
"html-button-response","110","2032033","0.0-12.0-2.0","699e23c59c2d94ced65b4798f4f4b7785c4f0fed0892f5b7c3a51fea67ef5290","swim","arctic","3921","","<p>When you are with a group (~5 people) in a lively restaurant, can you follow the group's conversation?</p>","9","","","","survey","","","","","","","","","","","","","","","","ssq-03","9"
"html-button-response","111","2037003","0.0-12.0-3.0","699e23c59c2d94ced65b4798f4f4b7785c4f0fed0892f5b7c3a51fea67ef5290","swim","arctic","4717","","<p>Based on the sound of a bus or truck, can you tell whether it is moving towards or away from you?</p>","9","","","","survey","","","","","","","","","","","","","","","","ssq-04","9"
"html-button-response","112","2041165","0.0-12.0-4.0","699e23c59c2d94ced65b4798f4f4b7785c4f0fed0892f5b7c3a51fea67ef5290","swim","arctic","3909","","<p>When you are in an unknown environment, can you tell from which direction a brief sound originates?</p>","9","","","","survey","","","","","","","","","","","","","","","","ssq-05","9"
"html-button-response","113","2046296","0.0-12.0-5.0","699e23c59c2d94ced65b4798f4f4b7785c4f0fed0892f5b7c3a51fea67ef5290","swim","arctic","4878","","<p>Are you able to ignore distracting sounds when you concentrate on a specific aspect of your acoustic surrounding?</p>","8","","","","survey","","","","","","","","","","","","","","","","ssq-06","8"
"fullscreen","114","2047554","0.0-13.0","699e23c59c2d94ced65b4798f4f4b7785c4f0fed0892f5b7c3a51fea67ef5290","swim","arctic","","","","","","","","","true","","","","","","","","","","","","","","","",""
