"trial_type","trial_index","time_elapsed","internal_node_id","ParticipantID","firstStory","scramStory","rt","url","stimulus","button_pressed","key_press","correctRESP","correct","designation","success","letterStim","letterType","ONSET","TIMEOUT","CONDITION","Participant","ONSET_ACTUAL","RT","RESP","ACC","STORY","responses","response","type","surveyQuestion","QRESP"
"pavlovia","0","15","0.0-0.0","e4e4a8f1efe3205b5a21bac703dfc1b2217843ce61c779e0b61281d47f640bd8","swim","swim","","","","","","","","","","","","","","","","","","","","","","","","",""
"external-html","1","16724","0.0-1.0","e4e4a8f1efe3205b5a21bac703dfc1b2217843ce61c779e0b61281d47f640bd8","swim","swim","16300","consent/consent_updated.html","","","","","","","","","","","","","","","","","","","","","","",""
"html-button-response","2","30799","0.0-2.0-0.0","e4e4a8f1efe3205b5a21bac703dfc1b2217843ce61c779e0b61281d47f640bd8","swim","swim","14073","","<p>Before we begin the main task, you will complete a short volume calibration and headphone check.</p><p>Please make sure you are in a quiet listening environment, that you are wearing headphones, and that your computer's volume is turned on.<p></p>","0","","","","","","","","","","","","","","","","","","","","",""
"html-button-response","3","36803","0.0-2.0-1.0","e4e4a8f1efe3205b5a21bac703dfc1b2217843ce61c779e0b61281d47f640bd8","swim","swim","5738","","<p>The volume calibration will be first.</p><p>You will hear a thirty-second noise. Please adjust your computer's volume so that this noise is being presented at a comfortable level.<p></p>","0","","","","","","","","","","","","","","","","","","","","",""
"audio-button-response","4","43948","0.0-2.0-2.0","e4e4a8f1efe3205b5a21bac703dfc1b2217843ce61c779e0b61281d47f640bd8","swim","swim","6868","","audio/volumetest.mp3","0","","","","","","","","","","","","","","","","","","","","",""
"html-keyboard-response","5","60659","0.0-3.0-0.0","e4e4a8f1efe3205b5a21bac703dfc1b2217843ce61c779e0b61281d47f640bd8","swim","swim","16705","","<p>You will now complete a short headphone check.</p><p>On each trial, you will hear three tones. One of these tones will be quieter than the others. Your task is to identify whether the quiet tone occurred first, second, or third.</p><p>There are six trials in total.<p></p><p></p>(Press SPACEBAR to begin)","","32","","","","","","","","","","","","","","","","","","","",""
"html-keyboard-response","6","61430","0.0-3.0-1.0-0.0","e4e4a8f1efe3205b5a21bac703dfc1b2217843ce61c779e0b61281d47f640bd8","swim","swim","null","","<div style=""font-size:60px;"">+</div>","","null","","","","","","","","","","","","","","","","","","","",""
"audio-button-response","7","71838","0.0-3.0-1.0-1.0","e4e4a8f1efe3205b5a21bac703dfc1b2217843ce61c779e0b61281d47f640bd8","swim","swim","10404","","audio/t1_1.mp3","0","","0","1","headphone-test","","","","","","","","","","","","","","","","",""
"html-keyboard-response","8","72351","0.0-3.0-1.0-2.0","e4e4a8f1efe3205b5a21bac703dfc1b2217843ce61c779e0b61281d47f640bd8","swim","swim","null","","<p>Correct</p>","","null","","","","","","","","","","","","","","","","","","","",""
"html-keyboard-response","9","72861","0.0-3.0-1.0-0.1","e4e4a8f1efe3205b5a21bac703dfc1b2217843ce61c779e0b61281d47f640bd8","swim","swim","null","","<div style=""font-size:60px;"">+</div>","","null","","","","","","","","","","","","","","","","","","","",""
"audio-button-response","10","77902","0.0-3.0-1.0-1.1","e4e4a8f1efe3205b5a21bac703dfc1b2217843ce61c779e0b61281d47f640bd8","swim","swim","5038","","audio/t2_1.mp3","1","","1","1","headphone-test","","","","","","","","","","","","","","","","",""
"html-keyboard-response","11","78403","0.0-3.0-1.0-2.1","e4e4a8f1efe3205b5a21bac703dfc1b2217843ce61c779e0b61281d47f640bd8","swim","swim","null","","<p>Correct</p>","","null","","","","","","","","","","","","","","","","","","","",""
"html-keyboard-response","12","78913","0.0-3.0-1.0-0.2","e4e4a8f1efe3205b5a21bac703dfc1b2217843ce61c779e0b61281d47f640bd8","swim","swim","null","","<div style=""font-size:60px;"">+</div>","","null","","","","","","","","","","","","","","","","","","","",""
"audio-button-response","13","83773","0.0-3.0-1.0-1.2","e4e4a8f1efe3205b5a21bac703dfc1b2217843ce61c779e0b61281d47f640bd8","swim","swim","4857","","audio/t1_2.mp3","0","","0","1","headphone-test","","","","","","","","","","","","","","","","",""
"html-keyboard-response","14","84275","0.0-3.0-1.0-2.2","e4e4a8f1efe3205b5a21bac703dfc1b2217843ce61c779e0b61281d47f640bd8","swim","swim","null","","<p>Correct</p>","","null","","","","","","","","","","","","","","","","","","","",""
"html-keyboard-response","15","84794","0.0-3.0-1.0-0.3","e4e4a8f1efe3205b5a21bac703dfc1b2217843ce61c779e0b61281d47f640bd8","swim","swim","null","","<div style=""font-size:60px;"">+</div>","","null","","","","","","","","","","","","","","","","","","","",""
"audio-button-response","16","90255","0.0-3.0-1.0-1.3","e4e4a8f1efe3205b5a21bac703dfc1b2217843ce61c779e0b61281d47f640bd8","swim","swim","5460","","audio/t3_2.mp3","2","","2","1","headphone-test","","","","","","","","","","","","","","","","",""
"html-keyboard-response","17","90757","0.0-3.0-1.0-2.3","e4e4a8f1efe3205b5a21bac703dfc1b2217843ce61c779e0b61281d47f640bd8","swim","swim","null","","<p>Correct</p>","","null","","","","","","","","","","","","","","","","","","","",""
"html-keyboard-response","18","91273","0.0-3.0-1.0-0.4","e4e4a8f1efe3205b5a21bac703dfc1b2217843ce61c779e0b61281d47f640bd8","swim","swim","null","","<div style=""font-size:60px;"">+</div>","","null","","","","","","","","","","","","","","","","","","","",""
"audio-button-response","19","96000","0.0-3.0-1.0-1.4","e4e4a8f1efe3205b5a21bac703dfc1b2217843ce61c779e0b61281d47f640bd8","swim","swim","4725","","audio/t2_2.mp3","1","","1","1","headphone-test","","","","","","","","","","","","","","","","",""
"html-keyboard-response","20","96508","0.0-3.0-1.0-2.4","e4e4a8f1efe3205b5a21bac703dfc1b2217843ce61c779e0b61281d47f640bd8","swim","swim","null","","<p>Correct</p>","","null","","","","","","","","","","","","","","","","","","","",""
"html-keyboard-response","21","97015","0.0-3.0-1.0-0.5","e4e4a8f1efe3205b5a21bac703dfc1b2217843ce61c779e0b61281d47f640bd8","swim","swim","null","","<div style=""font-size:60px;"">+</div>","","null","","","","","","","","","","","","","","","","","","","",""
"audio-button-response","22","102006","0.0-3.0-1.0-1.5","e4e4a8f1efe3205b5a21bac703dfc1b2217843ce61c779e0b61281d47f640bd8","swim","swim","4989","","audio/t3_1.mp3","2","","2","1","headphone-test","","","","","","","","","","","","","","","","",""
"html-keyboard-response","23","102513","0.0-3.0-1.0-2.5","e4e4a8f1efe3205b5a21bac703dfc1b2217843ce61c779e0b61281d47f640bd8","swim","swim","null","","<p>Correct</p>","","null","","","","","","","","","","","","","","","","","","","",""
"fullscreen","24","106329","0.0-4.0","e4e4a8f1efe3205b5a21bac703dfc1b2217843ce61c779e0b61281d47f640bd8","swim","swim","","","","","","","","","true","","","","","","","","","","","","","","","",""
"html-button-response","25","127955","0.0-5.0-0.0","e4e4a8f1efe3205b5a21bac703dfc1b2217843ce61c779e0b61281d47f640bd8","swim","swim","21624","","<p>There are two blocks to this experiment.</p><p>In each block, you will hear a ~13.5 minute story. One of the stories will be scrambled. Please listen carefully to both stories and understand them as best you can.</p><p>After each story, you will be asked some questions to assess your comprehension.</p>","0","","","","","","","","","","","","","","","","","","","","",""
"html-button-response","26","156206","0.0-5.0-1.0","e4e4a8f1efe3205b5a21bac703dfc1b2217843ce61c779e0b61281d47f640bd8","swim","swim","28250","","<p>During each story, there will be an additional task.</p><p>A letter will occasionally appear on the screen.</br>Your job is to - as quickly as you can - decide whether the letter is lowercase or uppercase and press one of two keys on the keyboard:</p><p>If the letter is <b>lowercase</b>, press key &lt;<b>x</b>&gt;.</p><p>If the letter is <b>uppercase</b>, press key &lt;<b>m</b>&gt;.</p>","0","","","","","","","","","","","","","","","","","","","","",""
"html-keyboard-response","27","164987","0.0-5.0-2.0","e4e4a8f1efe3205b5a21bac703dfc1b2217843ce61c779e0b61281d47f640bd8","swim","swim","8774","","<p>Because we want your responses to be as quick as possible, please keep your index fingers over the keys while listening.</p><p>Each block lasts about 20 minutes.</p><p><b>Press &lt;x&gt; or &lt;m&gt; to start the first block!</b></p>","","88","","","","","","","","","","","","","","","","","","","",""
"html-keyboard-response","28","165500","0.0-7.0-0.0-0.0","e4e4a8f1efe3205b5a21bac703dfc1b2217843ce61c779e0b61281d47f640bd8","swim","swim","null","","<div style=""font-size:60px;"" tabindex=""0"">+</div>","","null","","","","","","","","","","","","","","","","","","","",""
"dual-task","null","null","null","","swim","swim","NA","","D","null","NA","77","0","swim-dual-task","","D","uppercase","16000","1","5","e4e4a8f1efe3205b5a21bac703dfc1b2217843ce61c779e0b61281d47f640bd8","16002.5","NA","NA","0","swim","","","","",""
"dual-task","null","null","null","","swim","swim","1020.6999999284744","","b","null","88","88","1","swim-dual-task","","b","lowercase","26000","0","5","e4e4a8f1efe3205b5a21bac703dfc1b2217843ce61c779e0b61281d47f640bd8","26000.399999976158","1020.6999999284744","88","1","swim","","","","",""
"dual-task","null","null","null","","swim","swim","735.7000000476837","","t","null","88","88","1","swim-dual-task","","t","lowercase","38000","0","5","e4e4a8f1efe3205b5a21bac703dfc1b2217843ce61c779e0b61281d47f640bd8","38006.199999928474","735.7000000476837","88","1","swim","","","","",""
"dual-task","null","null","null","","swim","swim","634.6999999284744","","t","null","88","88","1","swim-dual-task","","t","lowercase","48000","0","5","e4e4a8f1efe3205b5a21bac703dfc1b2217843ce61c779e0b61281d47f640bd8","48000","634.6999999284744","88","1","swim","","","","",""
"dual-task","null","null","null","","swim","swim","566.1000000238419","","Q","null","77","77","1","swim-dual-task","","Q","uppercase","54000","0","5","e4e4a8f1efe3205b5a21bac703dfc1b2217843ce61c779e0b61281d47f640bd8","54000.89999997616","566.1000000238419","77","1","swim","","","","",""
"dual-task","null","null","null","","swim","swim","1220.0999999046326","","e","null","88","88","1","swim-dual-task","","e","lowercase","64000","0","5","e4e4a8f1efe3205b5a21bac703dfc1b2217843ce61c779e0b61281d47f640bd8","64003.39999997616","1220.0999999046326","88","1","swim","","","","",""
"dual-task","null","null","null","","swim","swim","586","","R","null","77","77","1","swim-dual-task","","R","uppercase","74000","0","5","e4e4a8f1efe3205b5a21bac703dfc1b2217843ce61c779e0b61281d47f640bd8","74003.39999997616","586","77","1","swim","","","","",""
"dual-task","null","null","null","","swim","swim","541","","h","null","88","88","1","swim-dual-task","","h","lowercase","80000","0","5","e4e4a8f1efe3205b5a21bac703dfc1b2217843ce61c779e0b61281d47f640bd8","80007.60000002384","541","88","1","swim","","","","",""
"dual-task","null","null","null","","swim","swim","809.7000000476837","","T","null","77","77","1","swim-dual-task","","T","uppercase","92000","0","5","e4e4a8f1efe3205b5a21bac703dfc1b2217843ce61c779e0b61281d47f640bd8","92013.89999997616","809.7000000476837","77","1","swim","","","","",""
"dual-task","null","null","null","","swim","swim","879.2000000476837","","n","null","88","88","1","swim-dual-task","","n","lowercase","104000","0","5","e4e4a8f1efe3205b5a21bac703dfc1b2217843ce61c779e0b61281d47f640bd8","103999.10000002384","879.2000000476837","88","1","swim","","","","",""
"dual-task","null","null","null","","swim","swim","624.1999999284744","","h","null","88","88","1","swim-dual-task","","h","lowercase","112000","0","5","e4e4a8f1efe3205b5a21bac703dfc1b2217843ce61c779e0b61281d47f640bd8","112000.89999997616","624.1999999284744","88","1","swim","","","","",""
"dual-task","null","null","null","","swim","swim","845.7999999523163","","d","null","88","88","1","swim-dual-task","","d","lowercase","126000","0","5","e4e4a8f1efe3205b5a21bac703dfc1b2217843ce61c779e0b61281d47f640bd8","126009.60000002384","845.7999999523163","88","1","swim","","","","",""
"dual-task","null","null","null","","swim","swim","1531.3999999761581","","F","null","77","77","1","swim-dual-task","","F","uppercase","138000","0","5","e4e4a8f1efe3205b5a21bac703dfc1b2217843ce61c779e0b61281d47f640bd8","138002.79999995232","1531.3999999761581","77","1","swim","","","","",""
"dual-task","null","null","null","","swim","swim","613","","D","null","77","77","1","swim-dual-task","","D","uppercase","144000","0","5","e4e4a8f1efe3205b5a21bac703dfc1b2217843ce61c779e0b61281d47f640bd8","144001.69999992847","613","77","1","swim","","","","",""
"dual-task","null","null","null","","swim","swim","550.1999999284744","","H","null","77","77","1","swim-dual-task","","H","uppercase","156000","0","5","e4e4a8f1efe3205b5a21bac703dfc1b2217843ce61c779e0b61281d47f640bd8","156013","550.1999999284744","77","1","swim","","","","",""
"dual-task","null","null","null","","swim","swim","659.7999999523163","","b","null","88","88","1","swim-dual-task","","b","lowercase","168000","0","5","e4e4a8f1efe3205b5a21bac703dfc1b2217843ce61c779e0b61281d47f640bd8","168002.89999997616","659.7999999523163","88","1","swim","","","","",""
"dual-task","null","null","null","","swim","swim","574.1000000238419","","F","null","77","77","1","swim-dual-task","","F","uppercase","178000","0","5","e4e4a8f1efe3205b5a21bac703dfc1b2217843ce61c779e0b61281d47f640bd8","178013.89999997616","574.1000000238419","77","1","swim","","","","",""
"dual-task","null","null","null","","swim","swim","499.39999997615814","","E","null","77","77","1","swim-dual-task","","E","uppercase","186000","0","5","e4e4a8f1efe3205b5a21bac703dfc1b2217843ce61c779e0b61281d47f640bd8","186001.79999995232","499.39999997615814","77","1","swim","","","","",""
"dual-task","null","null","null","","swim","swim","1119.6999999284744","","n","null","88","88","1","swim-dual-task","","n","lowercase","194000","0","5","e4e4a8f1efe3205b5a21bac703dfc1b2217843ce61c779e0b61281d47f640bd8","194011.5","1119.6999999284744","88","1","swim","","","","",""
"dual-task","null","null","null","","swim","swim","667.8000000715256","","G","null","77","77","1","swim-dual-task","","G","uppercase","204000","0","5","e4e4a8f1efe3205b5a21bac703dfc1b2217843ce61c779e0b61281d47f640bd8","204012.69999992847","667.8000000715256","77","1","swim","","","","",""
"dual-task","null","null","null","","swim","swim","412.89999997615814","","e","null","88","88","1","swim-dual-task","","e","lowercase","212000","0","5","e4e4a8f1efe3205b5a21bac703dfc1b2217843ce61c779e0b61281d47f640bd8","212014","412.89999997615814","88","1","swim","","","","",""
"dual-task","null","null","null","","swim","swim","345.10000002384186","","N","null","77","77","1","swim-dual-task","","N","uppercase","224000","0","5","e4e4a8f1efe3205b5a21bac703dfc1b2217843ce61c779e0b61281d47f640bd8","224005.19999992847","345.10000002384186","77","1","swim","","","","",""
"dual-task","null","null","null","","swim","swim","927.2000000476837","","A","null","77","77","1","swim-dual-task","","A","uppercase","236000","0","5","e4e4a8f1efe3205b5a21bac703dfc1b2217843ce61c779e0b61281d47f640bd8","236008.69999992847","927.2000000476837","77","1","swim","","","","",""
"dual-task","null","null","null","","swim","swim","556.2000000476837","","B","null","77","77","1","swim-dual-task","","B","uppercase","248000","0","5","e4e4a8f1efe3205b5a21bac703dfc1b2217843ce61c779e0b61281d47f640bd8","248002.10000002384","556.2000000476837","77","1","swim","","","","",""
"dual-task","null","null","null","","swim","swim","413.5","","G","null","77","77","1","swim-dual-task","","G","uppercase","254000","0","5","e4e4a8f1efe3205b5a21bac703dfc1b2217843ce61c779e0b61281d47f640bd8","254013.10000002384","413.5","77","1","swim","","","","",""
"dual-task","null","null","null","","swim","swim","373.40000009536743","","a","null","88","88","1","swim-dual-task","","a","lowercase","266000","0","5","e4e4a8f1efe3205b5a21bac703dfc1b2217843ce61c779e0b61281d47f640bd8","265999.60000002384","373.40000009536743","88","1","swim","","","","",""
"dual-task","null","null","null","","swim","swim","507.7999999523163","","A","null","88","77","0","swim-dual-task","","A","uppercase","276000","0","5","e4e4a8f1efe3205b5a21bac703dfc1b2217843ce61c779e0b61281d47f640bd8","276000","507.7999999523163","88","0","swim","","","","",""
"dual-task","null","null","null","","swim","swim","367.89999997615814","","N","null","77","77","1","swim-dual-task","","N","uppercase","290000","0","5","e4e4a8f1efe3205b5a21bac703dfc1b2217843ce61c779e0b61281d47f640bd8","290007.6999999285","367.89999997615814","77","1","swim","","","","",""
"dual-task","null","null","null","","swim","swim","633.3999999761581","","r","null","88","88","1","swim-dual-task","","r","lowercase","298000","0","5","e4e4a8f1efe3205b5a21bac703dfc1b2217843ce61c779e0b61281d47f640bd8","298013.6999999285","633.3999999761581","88","1","swim","","","","",""
"dual-task","null","null","null","","swim","swim","549.6999999284744","","f","null","77","88","0","swim-dual-task","","f","lowercase","308000","0","5","e4e4a8f1efe3205b5a21bac703dfc1b2217843ce61c779e0b61281d47f640bd8","308013.60000002384","549.6999999284744","77","0","swim","","","","",""
"dual-task","null","null","null","","swim","swim","1123.5","","b","null","88","88","1","swim-dual-task","","b","lowercase","320000","0","5","e4e4a8f1efe3205b5a21bac703dfc1b2217843ce61c779e0b61281d47f640bd8","320009.89999997616","1123.5","88","1","swim","","","","",""
"dual-task","null","null","null","","swim","swim","498.60000002384186","","r","null","88","88","1","swim-dual-task","","r","lowercase","332000","0","5","e4e4a8f1efe3205b5a21bac703dfc1b2217843ce61c779e0b61281d47f640bd8","332008.60000002384","498.60000002384186","88","1","swim","","","","",""
"dual-task","null","null","null","","swim","swim","626","","r","null","77","88","0","swim-dual-task","","r","lowercase","342000","0","5","e4e4a8f1efe3205b5a21bac703dfc1b2217843ce61c779e0b61281d47f640bd8","342005.7999999523","626","77","0","swim","","","","",""
"dual-task","null","null","null","","swim","swim","523.8999999761581","","N","null","77","77","1","swim-dual-task","","N","uppercase","354000","0","5","e4e4a8f1efe3205b5a21bac703dfc1b2217843ce61c779e0b61281d47f640bd8","354011.6999999285","523.8999999761581","77","1","swim","","","","",""
"dual-task","null","null","null","","swim","swim","500","","a","null","88","88","1","swim-dual-task","","a","lowercase","362000","0","5","e4e4a8f1efe3205b5a21bac703dfc1b2217843ce61c779e0b61281d47f640bd8","362006.89999997616","500","88","1","swim","","","","",""
"dual-task","null","null","null","","swim","swim","655.1000000238419","","q","null","88","88","1","swim-dual-task","","q","lowercase","370000","0","5","e4e4a8f1efe3205b5a21bac703dfc1b2217843ce61c779e0b61281d47f640bd8","370008.2999999523","655.1000000238419","88","1","swim","","","","",""
"dual-task","null","null","null","","swim","swim","526.0999999046326","","q","null","88","88","1","swim-dual-task","","q","lowercase","380000","0","5","e4e4a8f1efe3205b5a21bac703dfc1b2217843ce61c779e0b61281d47f640bd8","380003.5","526.0999999046326","88","1","swim","","","","",""
"dual-task","null","null","null","","swim","swim","569","","N","null","77","77","1","swim-dual-task","","N","uppercase","388000","0","5","e4e4a8f1efe3205b5a21bac703dfc1b2217843ce61c779e0b61281d47f640bd8","388009.60000002384","569","77","1","swim","","","","",""
"dual-task","null","null","null","","swim","swim","726.3000000715256","","d","null","88","88","1","swim-dual-task","","d","lowercase","402000","0","5","e4e4a8f1efe3205b5a21bac703dfc1b2217843ce61c779e0b61281d47f640bd8","402015.1999999285","726.3000000715256","88","1","swim","","","","",""
"dual-task","null","null","null","","swim","swim","449.39999997615814","","e","null","88","88","1","swim-dual-task","","e","lowercase","412000","0","5","e4e4a8f1efe3205b5a21bac703dfc1b2217843ce61c779e0b61281d47f640bd8","412005.39999997616","449.39999997615814","88","1","swim","","","","",""
"dual-task","null","null","null","","swim","swim","435","","R","null","77","77","1","swim-dual-task","","R","uppercase","422000","0","5","e4e4a8f1efe3205b5a21bac703dfc1b2217843ce61c779e0b61281d47f640bd8","422001.10000002384","435","77","1","swim","","","","",""
"dual-task","null","null","null","","swim","swim","433.1999999284744","","B","null","77","77","1","swim-dual-task","","B","uppercase","432000","0","5","e4e4a8f1efe3205b5a21bac703dfc1b2217843ce61c779e0b61281d47f640bd8","432007.5","433.1999999284744","77","1","swim","","","","",""
"dual-task","null","null","null","","swim","swim","609.8999999761581","","h","null","88","88","1","swim-dual-task","","h","lowercase","444000","0","5","e4e4a8f1efe3205b5a21bac703dfc1b2217843ce61c779e0b61281d47f640bd8","444000.89999997616","609.8999999761581","88","1","swim","","","","",""
"dual-task","null","null","null","","swim","swim","464.2999999523163","","r","null","77","88","0","swim-dual-task","","r","lowercase","450000","0","5","e4e4a8f1efe3205b5a21bac703dfc1b2217843ce61c779e0b61281d47f640bd8","450005.39999997616","464.2999999523163","77","0","swim","","","","",""
"dual-task","null","null","null","","swim","swim","505.5","","A","null","77","77","1","swim-dual-task","","A","uppercase","464000","0","5","e4e4a8f1efe3205b5a21bac703dfc1b2217843ce61c779e0b61281d47f640bd8","464015.1999999285","505.5","77","1","swim","","","","",""
"dual-task","null","null","null","","swim","swim","481.8000000715256","","a","null","88","88","1","swim-dual-task","","a","lowercase","470000","0","5","e4e4a8f1efe3205b5a21bac703dfc1b2217843ce61c779e0b61281d47f640bd8","470011.7999999523","481.8000000715256","88","1","swim","","","","",""
"dual-task","null","null","null","","swim","swim","665.7000000476837","","t","null","88","88","1","swim-dual-task","","t","lowercase","482000","0","5","e4e4a8f1efe3205b5a21bac703dfc1b2217843ce61c779e0b61281d47f640bd8","482013.6999999285","665.7000000476837","88","1","swim","","","","",""
"dual-task","null","null","null","","swim","swim","636.1000000238419","","n","null","88","88","1","swim-dual-task","","n","lowercase","490000","0","5","e4e4a8f1efe3205b5a21bac703dfc1b2217843ce61c779e0b61281d47f640bd8","490003.2999999523","636.1000000238419","88","1","swim","","","","",""
"dual-task","null","null","null","","swim","swim","494","","R","null","77","77","1","swim-dual-task","","R","uppercase","500000","0","5","e4e4a8f1efe3205b5a21bac703dfc1b2217843ce61c779e0b61281d47f640bd8","500013.6999999285","494","77","1","swim","","","","",""
"dual-task","null","null","null","","swim","swim","470.60000002384186","","f","null","88","88","1","swim-dual-task","","f","lowercase","506000","0","5","e4e4a8f1efe3205b5a21bac703dfc1b2217843ce61c779e0b61281d47f640bd8","506000.60000002384","470.60000002384186","88","1","swim","","","","",""
"dual-task","null","null","null","","swim","swim","432.60000002384186","","B","null","77","77","1","swim-dual-task","","B","uppercase","516000","0","5","e4e4a8f1efe3205b5a21bac703dfc1b2217843ce61c779e0b61281d47f640bd8","516005.2999999523","432.60000002384186","77","1","swim","","","","",""
"dual-task","null","null","null","","swim","swim","465.60000002384186","","F","null","77","77","1","swim-dual-task","","F","uppercase","530000","0","5","e4e4a8f1efe3205b5a21bac703dfc1b2217843ce61c779e0b61281d47f640bd8","530010.3999999762","465.60000002384186","77","1","swim","","","","",""
"dual-task","null","null","null","","swim","swim","601","","e","null","88","88","1","swim-dual-task","","e","lowercase","542000","0","5","e4e4a8f1efe3205b5a21bac703dfc1b2217843ce61c779e0b61281d47f640bd8","542001.2999999523","601","88","1","swim","","","","",""
"dual-task","null","null","null","","swim","swim","624.4000000953674","","E","null","88","77","0","swim-dual-task","","E","uppercase","552000","0","5","e4e4a8f1efe3205b5a21bac703dfc1b2217843ce61c779e0b61281d47f640bd8","552000.6000000238","624.4000000953674","88","0","swim","","","","",""
"dual-task","null","null","null","","swim","swim","508.2999999523163","","g","null","77","88","0","swim-dual-task","","g","lowercase","564000","0","5","e4e4a8f1efe3205b5a21bac703dfc1b2217843ce61c779e0b61281d47f640bd8","564013.5","508.2999999523163","77","0","swim","","","","",""
"dual-task","null","null","null","","swim","swim","532.8999999761581","","Q","null","77","77","1","swim-dual-task","","Q","uppercase","572000","0","5","e4e4a8f1efe3205b5a21bac703dfc1b2217843ce61c779e0b61281d47f640bd8","572011.3999999762","532.8999999761581","77","1","swim","","","","",""
"dual-task","null","null","null","","swim","swim","501.60000002384186","","q","null","88","88","1","swim-dual-task","","q","lowercase","586000","0","5","e4e4a8f1efe3205b5a21bac703dfc1b2217843ce61c779e0b61281d47f640bd8","586009.1000000238","501.60000002384186","88","1","swim","","","","",""
"dual-task","null","null","null","","swim","swim","539.4000000953674","","D","null","77","77","1","swim-dual-task","","D","uppercase","598000","0","5","e4e4a8f1efe3205b5a21bac703dfc1b2217843ce61c779e0b61281d47f640bd8","598008.6000000238","539.4000000953674","77","1","swim","","","","",""
"dual-task","null","null","null","","swim","swim","527.5999999046326","","H","null","77","77","1","swim-dual-task","","H","uppercase","610000","0","5","e4e4a8f1efe3205b5a21bac703dfc1b2217843ce61c779e0b61281d47f640bd8","610005.6000000238","527.5999999046326","77","1","swim","","","","",""
"dual-task","null","null","null","","swim","swim","471.2000000476837","","q","null","88","88","1","swim-dual-task","","q","lowercase","616000","0","5","e4e4a8f1efe3205b5a21bac703dfc1b2217843ce61c779e0b61281d47f640bd8","616003.6000000238","471.2000000476837","88","1","swim","","","","",""
"dual-task","null","null","null","","swim","swim","562.9000000953674","","g","null","88","88","1","swim-dual-task","","g","lowercase","630000","0","5","e4e4a8f1efe3205b5a21bac703dfc1b2217843ce61c779e0b61281d47f640bd8","630000.6000000238","562.9000000953674","88","1","swim","","","","",""
"dual-task","null","null","null","","swim","swim","411","","t","null","88","88","1","swim-dual-task","","t","lowercase","642000","0","5","e4e4a8f1efe3205b5a21bac703dfc1b2217843ce61c779e0b61281d47f640bd8","642010.3999999762","411","88","1","swim","","","","",""
"dual-task","null","null","null","","swim","swim","591.8999999761581","","E","null","77","77","1","swim-dual-task","","E","uppercase","650000","0","5","e4e4a8f1efe3205b5a21bac703dfc1b2217843ce61c779e0b61281d47f640bd8","650013.2999999523","591.8999999761581","77","1","swim","","","","",""
"dual-task","null","null","null","","swim","swim","623","","d","null","88","88","1","swim-dual-task","","d","lowercase","658000","0","5","e4e4a8f1efe3205b5a21bac703dfc1b2217843ce61c779e0b61281d47f640bd8","658010.6999999285","623","88","1","swim","","","","",""
"dual-task","null","null","null","","swim","swim","487.2000000476837","","T","null","77","77","1","swim-dual-task","","T","uppercase","666000","0","5","e4e4a8f1efe3205b5a21bac703dfc1b2217843ce61c779e0b61281d47f640bd8","666007.7999999523","487.2000000476837","77","1","swim","","","","",""
"dual-task","null","null","null","","swim","swim","466.60000002384186","","d","null","88","88","1","swim-dual-task","","d","lowercase","674000","0","5","e4e4a8f1efe3205b5a21bac703dfc1b2217843ce61c779e0b61281d47f640bd8","674001.6000000238","466.60000002384186","88","1","swim","","","","",""
"dual-task","null","null","null","","swim","swim","447.89999997615814","","Q","null","77","77","1","swim-dual-task","","Q","uppercase","684000","0","5","e4e4a8f1efe3205b5a21bac703dfc1b2217843ce61c779e0b61281d47f640bd8","684009.1000000238","447.89999997615814","77","1","swim","","","","",""
"dual-task","null","null","null","","swim","swim","535.3000000715256","","A","null","77","77","1","swim-dual-task","","A","uppercase","696000","0","5","e4e4a8f1efe3205b5a21bac703dfc1b2217843ce61c779e0b61281d47f640bd8","696014.1999999285","535.3000000715256","77","1","swim","","","","",""
"dual-task","null","null","null","","swim","swim","828","","a","null","88","88","1","swim-dual-task","","a","lowercase","702000","0","5","e4e4a8f1efe3205b5a21bac703dfc1b2217843ce61c779e0b61281d47f640bd8","702015.6999999285","828","88","1","swim","","","","",""
"dual-task","null","null","null","","swim","swim","558.8999999761581","","D","null","77","77","1","swim-dual-task","","D","uppercase","716000","0","5","e4e4a8f1efe3205b5a21bac703dfc1b2217843ce61c779e0b61281d47f640bd8","716013.2999999523","558.8999999761581","77","1","swim","","","","",""
"dual-task","null","null","null","","swim","swim","394","","n","null","77","88","0","swim-dual-task","","n","lowercase","726000","0","5","e4e4a8f1efe3205b5a21bac703dfc1b2217843ce61c779e0b61281d47f640bd8","726005.3999999762","394","77","0","swim","","","","",""
"dual-task","null","null","null","","swim","swim","517.8999999761581","","B","null","77","77","1","swim-dual-task","","B","uppercase","732000","0","5","e4e4a8f1efe3205b5a21bac703dfc1b2217843ce61c779e0b61281d47f640bd8","732006.5","517.8999999761581","77","1","swim","","","","",""
"dual-task","null","null","null","","swim","swim","595.7999999523163","","H","null","77","77","1","swim-dual-task","","H","uppercase","740000","0","5","e4e4a8f1efe3205b5a21bac703dfc1b2217843ce61c779e0b61281d47f640bd8","740015.5","595.7999999523163","77","1","swim","","","","",""
"dual-task","null","null","null","","swim","swim","458.2000000476837","","f","null","88","88","1","swim-dual-task","","f","lowercase","752000","0","5","e4e4a8f1efe3205b5a21bac703dfc1b2217843ce61c779e0b61281d47f640bd8","752000.2999999523","458.2000000476837","88","1","swim","","","","",""
"dual-task","null","null","null","","swim","swim","566.1999999284744","","b","null","77","88","0","swim-dual-task","","b","lowercase","764000","0","5","e4e4a8f1efe3205b5a21bac703dfc1b2217843ce61c779e0b61281d47f640bd8","764014.1000000238","566.1999999284744","77","0","swim","","","","",""
"dual-task","null","null","null","","swim","swim","420.5","","E","null","88","77","0","swim-dual-task","","E","uppercase","776000","0","5","e4e4a8f1efe3205b5a21bac703dfc1b2217843ce61c779e0b61281d47f640bd8","776009.1000000238","420.5","88","0","swim","","","","",""
"dual-task","null","null","null","","swim","swim","518.5999999046326","","h","null","88","88","1","swim-dual-task","","h","lowercase","786000","0","5","e4e4a8f1efe3205b5a21bac703dfc1b2217843ce61c779e0b61281d47f640bd8","786011.6000000238","518.5999999046326","88","1","swim","","","","",""
"dual-task","null","null","null","","swim","swim","424.39999997615814","","f","null","77","88","0","swim-dual-task","","f","lowercase","798000","0","5","e4e4a8f1efe3205b5a21bac703dfc1b2217843ce61c779e0b61281d47f640bd8","798002.5","424.39999997615814","77","0","swim","","","","",""
"audio-keyboard-response","29","976594","0.0-7.0-0.0-1.0","e4e4a8f1efe3205b5a21bac703dfc1b2217843ce61c779e0b61281d47f640bd8","swim","swim","null","","audio/story_swim_scrambled.mp3","","null","","","","","","","","","","","","","","","","","","","",""
"html-button-response","30","980224","0.0-7.0-0.0-2.0","e4e4a8f1efe3205b5a21bac703dfc1b2217843ce61c779e0b61281d47f640bd8","swim","swim","3627","","<p>This concludes the story. Thank you for listening.</p><p>You will now answer some questions about the content of the story.</p>","0","","","","","","","","","","","","","","","","","","","","",""
"survey-multi-choice","31","1001217","0.0-7.0-0.0-3.0-0.0","e4e4a8f1efe3205b5a21bac703dfc1b2217843ce61c779e0b61281d47f640bd8","swim","swim","20982","","<b>What was the final step of the first swim test in the pool?</b>","","","","0","swim-comprehension","","","","","","","","","","","","","{""Q0"":""Perform a water rescue""}","","","",""
"survey-multi-choice","32","1015145","0.0-7.0-0.0-3.0-0.1","e4e4a8f1efe3205b5a21bac703dfc1b2217843ce61c779e0b61281d47f640bd8","swim","swim","13657","","<b>How often does the narrator swim, now that he is a good swimmer?</b>","","","","1","swim-comprehension","","","","","","","","","","","","","{""Q0"":""Never swam again in his life""}","","","",""
"survey-multi-choice","33","1025690","0.0-7.0-0.0-3.0-0.2","e4e4a8f1efe3205b5a21bac703dfc1b2217843ce61c779e0b61281d47f640bd8","swim","swim","10279","","<b>What gave the narrator his greatest feeling of accomplishment?</b>","","","","0","swim-comprehension","","","","","","","","","","","","","{""Q0"":""Completing his PhD at MIT""}","","","",""
"survey-multi-choice","34","1032365","0.0-7.0-0.0-3.0-0.3","e4e4a8f1efe3205b5a21bac703dfc1b2217843ce61c779e0b61281d47f640bd8","swim","swim","6416","","<b>How many astronaut candidates passed the first swim test?</b>","","","","1","swim-comprehension","","","","","","","","","","","","","{""Q0"":""All of them""}","","","",""
"survey-multi-choice","35","1051930","0.0-7.0-0.0-3.0-0.4","e4e4a8f1efe3205b5a21bac703dfc1b2217843ce61c779e0b61281d47f640bd8","swim","swim","19301","","<b>How many times did the astronaut candidates have to complete the final exercise to pass?</b>","","","","0","swim-comprehension","","","","","","","","","","","","","{""Q0"":""One""}","","","",""
"survey-multi-choice","36","1063293","0.0-7.0-0.0-3.0-0.5","e4e4a8f1efe3205b5a21bac703dfc1b2217843ce61c779e0b61281d47f640bd8","swim","swim","11100","","<b>What were the astronaut candidates trained to do at the naval air station?</b>","","","","1","swim-comprehension","","","","","","","","","","","","","{""Q0"":""Eject out of aircraft and survive in water long enough to be rescued""}","","","",""
"survey-multi-choice","37","1069890","0.0-7.0-0.0-3.0-0.6","e4e4a8f1efe3205b5a21bac703dfc1b2217843ce61c779e0b61281d47f640bd8","swim","swim","6336","","<b>Where is the home of naval aviation?</b>","","","","1","swim-comprehension","","","","","","","","","","","","","{""Q0"":""Pensacola""}","","","",""
"survey-multi-choice","38","1081471","0.0-7.0-0.0-3.0-0.7","e4e4a8f1efe3205b5a21bac703dfc1b2217843ce61c779e0b61281d47f640bd8","swim","swim","11326","","<b>How many astronaut candidates reported for duty at the Johnson Space Center?</b>","","","","1","swim-comprehension","","","","","","","","","","","","","{""Q0"":""Forty-four""}","","","",""
"survey-multi-choice","39","1090640","0.0-7.0-0.0-3.0-0.8","e4e4a8f1efe3205b5a21bac703dfc1b2217843ce61c779e0b61281d47f640bd8","swim","swim","8910","","<b>What is the narrator afraid of, aside from the water?</b>","","","","1","swim-comprehension","","","","","","","","","","","","","{""Q0"":""Heights""}","","","",""
"survey-multi-choice","40","1101815","0.0-7.0-0.0-3.0-0.9","e4e4a8f1efe3205b5a21bac703dfc1b2217843ce61c779e0b61281d47f640bd8","swim","swim","10919","","<b>How did the narrator train for his swim test?</b>","","","","0","swim-comprehension","","","","","","","","","","","","","{""Q0"":""Signed up for a swim class""}","","","",""
"html-button-response","41","1104669","0.0-7.0-0.0-4.0","e4e4a8f1efe3205b5a21bac703dfc1b2217843ce61c779e0b61281d47f640bd8","swim","swim","2595","","<p>Thank you for your responses.</p><p>You will now answer some questions about your impressions of the story.</p>","0","","","","","","","","","","","","","","","","","","","","",""
"html-button-response","42","1109870","0.0-7.0-0.0-5.0-0.0","e4e4a8f1efe3205b5a21bac703dfc1b2217843ce61c779e0b61281d47f640bd8","swim","swim","5199","","EE3","1","","","","swim-engagement","","","","","","","","","","","","","","2","emo-engage","",""
"html-button-response","43","1118392","0.0-7.0-0.0-5.0-0.1","e4e4a8f1efe3205b5a21bac703dfc1b2217843ce61c779e0b61281d47f640bd8","swim","swim","8266","","A5","4","","","","swim-engagement","","","","","","","","","","","","","","5","absorption","",""
"html-button-response","44","1123429","0.0-7.0-0.0-5.0-0.2","e4e4a8f1efe3205b5a21bac703dfc1b2217843ce61c779e0b61281d47f640bd8","swim","swim","4778","","E7","4","","","","swim-engagement","","","","","","","","","","","","","","5","enjoyment","",""
"html-button-response","45","1131795","0.0-7.0-0.0-5.0-0.3","e4e4a8f1efe3205b5a21bac703dfc1b2217843ce61c779e0b61281d47f640bd8","swim","swim","8110","","MS3","4","","","","swim-engagement","","","","","","","","","","","","","","5","mental-sim","",""
"html-button-response","46","1135271","0.0-7.0-0.0-5.0-0.4","e4e4a8f1efe3205b5a21bac703dfc1b2217843ce61c779e0b61281d47f640bd8","swim","swim","3221","","EE2","2","","","","swim-engagement","","","","","","","","","","","","","","3","emo-engage","",""
"html-button-response","47","1139651","0.0-7.0-0.0-5.0-0.5","e4e4a8f1efe3205b5a21bac703dfc1b2217843ce61c779e0b61281d47f640bd8","swim","swim","4120","","MS1","4","","","","swim-engagement","","","","","","","","","","","","","","5","mental-sim","",""
"html-button-response","48","1144239","0.0-7.0-0.0-5.0-0.6","e4e4a8f1efe3205b5a21bac703dfc1b2217843ce61c779e0b61281d47f640bd8","swim","swim","4332","","EE4","4","","","","swim-engagement","","","","","","","","","","","","","","5","emo-engage","",""
"html-button-response","49","1149489","0.0-7.0-0.0-5.0-0.7","e4e4a8f1efe3205b5a21bac703dfc1b2217843ce61c779e0b61281d47f640bd8","swim","swim","4994","","EE5","4","","","","swim-engagement","","","","","","","","","","","","","","5","emo-engage","",""
"html-button-response","50","1154061","0.0-7.0-0.0-5.0-0.8","e4e4a8f1efe3205b5a21bac703dfc1b2217843ce61c779e0b61281d47f640bd8","swim","swim","4313","","A1","2","","","","swim-engagement","","","","","","","","","","","","","","3","absorption","",""
"html-button-response","51","1157592","0.0-7.0-0.0-5.0-0.9","e4e4a8f1efe3205b5a21bac703dfc1b2217843ce61c779e0b61281d47f640bd8","swim","swim","3271","","A3","3","","","","swim-engagement","","","","","","","","","","","","","","4","absorption","",""
"html-button-response","52","1160799","0.0-7.0-0.0-5.0-0.10","e4e4a8f1efe3205b5a21bac703dfc1b2217843ce61c779e0b61281d47f640bd8","swim","swim","2948","","E10","0","","","","swim-engagement","","","","","","","","","","","","","","1","enjoyment","",""
"html-button-response","53","1166104","0.0-7.0-0.0-5.0-0.11","e4e4a8f1efe3205b5a21bac703dfc1b2217843ce61c779e0b61281d47f640bd8","swim","swim","5046","","A2","4","","","","swim-engagement","","","","","","","","","","","","","","5","absorption","",""
"html-button-response","54","1171073","0.0-7.0-0.0-5.0-0.12","e4e4a8f1efe3205b5a21bac703dfc1b2217843ce61c779e0b61281d47f640bd8","swim","swim","4712","","A4","0","","","","swim-engagement","","","","","","","","","","","","","","1","absorption","",""
"html-button-response","55","1178478","0.0-7.0-0.0-5.0-0.13","e4e4a8f1efe3205b5a21bac703dfc1b2217843ce61c779e0b61281d47f640bd8","swim","swim","7146","","EE1","3","","","","swim-engagement","","","","","","","","","","","","","","4","emo-engage","",""
"html-button-response","56","1189499","0.0-7.0-0.0-5.0-0.14","e4e4a8f1efe3205b5a21bac703dfc1b2217843ce61c779e0b61281d47f640bd8","swim","swim","10760","","MS2","3","","","","swim-engagement","","","","","","","","","","","","","","4","mental-sim","",""
"html-button-response","57","1192249","0.0-7.0-0.0-5.0-0.15","e4e4a8f1efe3205b5a21bac703dfc1b2217843ce61c779e0b61281d47f640bd8","swim","swim","2496","","E1","0","","","","swim-engagement","","","","","","","","","","","","","","1","enjoyment","",""
"html-button-response","58","1194340","0.0-7.0-0.0-5.0-0.16","e4e4a8f1efe3205b5a21bac703dfc1b2217843ce61c779e0b61281d47f640bd8","swim","swim","1832","","E6","0","","","","swim-engagement","","","","","","","","","","","","","","1","enjoyment","",""
"html-button-response","59","1195982","0.0-7.0-0.0-5.0-0.17","e4e4a8f1efe3205b5a21bac703dfc1b2217843ce61c779e0b61281d47f640bd8","swim","swim","1382","","E8","0","","","","swim-engagement","","","","","","","","","","","","","","1","enjoyment","",""
"html-keyboard-response","60","1210511","0.0-7.0-1.0","e4e4a8f1efe3205b5a21bac703dfc1b2217843ce61c779e0b61281d47f640bd8","swim","swim","14271","","<p>Thank you for your responses. You will now listen to the second story.</p><p>Remember, as you listen to the story you will see letters appear on the screen.</br>As quickly as possible, press <b>&lt;x&gt;</b> if the letter is lowercase and <b>&lt;m&gt;</b> if the letter is uppercase.</p><p>Press <b>&lt;x&gt;</b> or <b>&lt;m&gt;</b> to begin listening!</p>","","88","","","","","","","","","","","","","","","","","","","",""
"html-keyboard-response","61","1211013","0.0-7.0-2.0-0.0","e4e4a8f1efe3205b5a21bac703dfc1b2217843ce61c779e0b61281d47f640bd8","swim","swim","null","","<div style=""font-size:60px;"" tabindex=""0"">+</div>","","null","","","","","","","","","","","","","","","","","","","",""
"dual-task","null","null","null","","swim","swim","638.3999999761581","","G","null","77","77","1","arctic-dual-task","","G","uppercase","18000","0","5","e4e4a8f1efe3205b5a21bac703dfc1b2217843ce61c779e0b61281d47f640bd8","18001.399999976158","638.3999999761581","77","1","arctic","","","","",""
"dual-task","null","null","null","","swim","swim","487","","G","null","77","77","1","arctic-dual-task","","G","uppercase","32000","0","5","e4e4a8f1efe3205b5a21bac703dfc1b2217843ce61c779e0b61281d47f640bd8","32005.599999904633","487","77","1","arctic","","","","",""
"dual-task","null","null","null","","swim","swim","547.5","","d","null","88","88","1","arctic-dual-task","","d","lowercase","42000","0","5","e4e4a8f1efe3205b5a21bac703dfc1b2217843ce61c779e0b61281d47f640bd8","42000.59999990463","547.5","88","1","arctic","","","","",""
"dual-task","null","null","null","","swim","swim","457.3000000715256","","B","null","77","77","1","arctic-dual-task","","B","uppercase","56000","0","5","e4e4a8f1efe3205b5a21bac703dfc1b2217843ce61c779e0b61281d47f640bd8","56000.39999997616","457.3000000715256","77","1","arctic","","","","",""
"dual-task","null","null","null","","swim","swim","464.39999997615814","","A","null","77","77","1","arctic-dual-task","","A","uppercase","68000","0","5","e4e4a8f1efe3205b5a21bac703dfc1b2217843ce61c779e0b61281d47f640bd8","68013","464.39999997615814","77","1","arctic","","","","",""
"dual-task","null","null","null","","swim","swim","532.2000000476837","","n","null","88","88","1","arctic-dual-task","","n","lowercase","82000","0","5","e4e4a8f1efe3205b5a21bac703dfc1b2217843ce61c779e0b61281d47f640bd8","82000.69999992847","532.2000000476837","88","1","arctic","","","","",""
"dual-task","null","null","null","","swim","swim","445.2000000476837","","b","null","88","88","1","arctic-dual-task","","b","lowercase","88000","0","5","e4e4a8f1efe3205b5a21bac703dfc1b2217843ce61c779e0b61281d47f640bd8","88010.09999990463","445.2000000476837","88","1","arctic","","","","",""
"dual-task","null","null","null","","swim","swim","517.6999999284744","","b","null","77","88","0","arctic-dual-task","","b","lowercase","100000","0","5","e4e4a8f1efe3205b5a21bac703dfc1b2217843ce61c779e0b61281d47f640bd8","100004.5","517.6999999284744","77","0","arctic","","","","",""
"dual-task","null","null","null","","swim","swim","804","","E","null","77","77","1","arctic-dual-task","","E","uppercase","108000","0","5","e4e4a8f1efe3205b5a21bac703dfc1b2217843ce61c779e0b61281d47f640bd8","108006.19999992847","804","77","1","arctic","","","","",""
"dual-task","null","null","null","","swim","swim","552.1999999284744","","n","null","88","88","1","arctic-dual-task","","n","lowercase","116000","0","5","e4e4a8f1efe3205b5a21bac703dfc1b2217843ce61c779e0b61281d47f640bd8","116000.69999992847","552.1999999284744","88","1","arctic","","","","",""
"dual-task","null","null","null","","swim","swim","1510.2999999523163","","H","null","77","77","1","arctic-dual-task","","H","uppercase","124000","0","5","e4e4a8f1efe3205b5a21bac703dfc1b2217843ce61c779e0b61281d47f640bd8","124000.59999990463","1510.2999999523163","77","1","arctic","","","","",""
"dual-task","null","null","null","","swim","swim","597.1000000238419","","A","null","77","77","1","arctic-dual-task","","A","uppercase","134000","0","5","e4e4a8f1efe3205b5a21bac703dfc1b2217843ce61c779e0b61281d47f640bd8","134001.09999990463","597.1000000238419","77","1","arctic","","","","",""
"dual-task","null","null","null","","swim","swim","419.10000002384186","","b","null","88","88","1","arctic-dual-task","","b","lowercase","144000","0","5","e4e4a8f1efe3205b5a21bac703dfc1b2217843ce61c779e0b61281d47f640bd8","144004.89999997616","419.10000002384186","88","1","arctic","","","","",""
"dual-task","null","null","null","","swim","swim","753","","e","null","88","88","1","arctic-dual-task","","e","lowercase","150000","0","5","e4e4a8f1efe3205b5a21bac703dfc1b2217843ce61c779e0b61281d47f640bd8","150013.29999995232","753","88","1","arctic","","","","",""
"dual-task","null","null","null","","swim","swim","477.7999999523163","","N","null","77","77","1","arctic-dual-task","","N","uppercase","160000","0","5","e4e4a8f1efe3205b5a21bac703dfc1b2217843ce61c779e0b61281d47f640bd8","160015.39999997616","477.7999999523163","77","1","arctic","","","","",""
"dual-task","null","null","null","","swim","swim","501.90000009536743","","H","null","77","77","1","arctic-dual-task","","H","uppercase","170000","0","5","e4e4a8f1efe3205b5a21bac703dfc1b2217843ce61c779e0b61281d47f640bd8","170004.79999995232","501.90000009536743","77","1","arctic","","","","",""
"dual-task","null","null","null","","swim","swim","507.60000002384186","","r","null","88","88","1","arctic-dual-task","","r","lowercase","176000","0","5","e4e4a8f1efe3205b5a21bac703dfc1b2217843ce61c779e0b61281d47f640bd8","176014.69999992847","507.60000002384186","88","1","arctic","","","","",""
"dual-task","null","null","null","","swim","swim","373.60000002384186","","N","null","77","77","1","arctic-dual-task","","N","uppercase","188000","0","5","e4e4a8f1efe3205b5a21bac703dfc1b2217843ce61c779e0b61281d47f640bd8","188000.5","373.60000002384186","77","1","arctic","","","","",""
"dual-task","null","null","null","","swim","swim","562.1000000238419","","e","null","88","88","1","arctic-dual-task","","e","lowercase","194000","0","5","e4e4a8f1efe3205b5a21bac703dfc1b2217843ce61c779e0b61281d47f640bd8","194001","562.1000000238419","88","1","arctic","","","","",""
"dual-task","null","null","null","","swim","swim","561.3999999761581","","F","null","77","77","1","arctic-dual-task","","F","uppercase","204000","0","5","e4e4a8f1efe3205b5a21bac703dfc1b2217843ce61c779e0b61281d47f640bd8","204006.69999992847","561.3999999761581","77","1","arctic","","","","",""
"dual-task","null","null","null","","swim","swim","561.9000000953674","","a","null","88","88","1","arctic-dual-task","","a","lowercase","214000","0","5","e4e4a8f1efe3205b5a21bac703dfc1b2217843ce61c779e0b61281d47f640bd8","214011","561.9000000953674","88","1","arctic","","","","",""
"dual-task","null","null","null","","swim","swim","490.5","","t","null","88","88","1","arctic-dual-task","","t","lowercase","224000","0","5","e4e4a8f1efe3205b5a21bac703dfc1b2217843ce61c779e0b61281d47f640bd8","224005.59999990463","490.5","88","1","arctic","","","","",""
"dual-task","null","null","null","","swim","swim","368.40000009536743","","D","null","88","77","0","arctic-dual-task","","D","uppercase","230000","0","5","e4e4a8f1efe3205b5a21bac703dfc1b2217843ce61c779e0b61281d47f640bd8","230015.5","368.40000009536743","88","0","arctic","","","","",""
"dual-task","null","null","null","","swim","swim","488.2000000476837","","D","null","77","77","1","arctic-dual-task","","D","uppercase","244000","0","5","e4e4a8f1efe3205b5a21bac703dfc1b2217843ce61c779e0b61281d47f640bd8","244014","488.2000000476837","77","1","arctic","","","","",""
"dual-task","null","null","null","","swim","swim","492.3000000715256","","A","null","77","77","1","arctic-dual-task","","A","uppercase","258000","0","5","e4e4a8f1efe3205b5a21bac703dfc1b2217843ce61c779e0b61281d47f640bd8","258010.59999990463","492.3000000715256","77","1","arctic","","","","",""
"dual-task","null","null","null","","swim","swim","666.7000000476837","","n","null","88","88","1","arctic-dual-task","","n","lowercase","266000","0","5","e4e4a8f1efe3205b5a21bac703dfc1b2217843ce61c779e0b61281d47f640bd8","266003.59999990463","666.7000000476837","88","1","arctic","","","","",""
"dual-task","null","null","null","","swim","swim","409.2999999523163","","N","null","77","77","1","arctic-dual-task","","N","uppercase","276000","0","5","e4e4a8f1efe3205b5a21bac703dfc1b2217843ce61c779e0b61281d47f640bd8","276018.89999997616","409.2999999523163","77","1","arctic","","","","",""
"dual-task","null","null","null","","swim","swim","419.7000000476837","","a","null","88","88","1","arctic-dual-task","","a","lowercase","290000","0","5","e4e4a8f1efe3205b5a21bac703dfc1b2217843ce61c779e0b61281d47f640bd8","290004.59999990463","419.7000000476837","88","1","arctic","","","","",""
"dual-task","null","null","null","","swim","swim","446.8000000715256","","F","null","77","77","1","arctic-dual-task","","F","uppercase","298000","0","5","e4e4a8f1efe3205b5a21bac703dfc1b2217843ce61c779e0b61281d47f640bd8","298000.2999999523","446.8000000715256","77","1","arctic","","","","",""
"dual-task","null","null","null","","swim","swim","384.6999999284744","","R","null","77","77","1","arctic-dual-task","","R","uppercase","306000","0","5","e4e4a8f1efe3205b5a21bac703dfc1b2217843ce61c779e0b61281d47f640bd8","306013.2999999523","384.6999999284744","77","1","arctic","","","","",""
"dual-task","null","null","null","","swim","swim","573","","E","null","77","77","1","arctic-dual-task","","E","uppercase","316000","0","5","e4e4a8f1efe3205b5a21bac703dfc1b2217843ce61c779e0b61281d47f640bd8","316007.7999999523","573","77","1","arctic","","","","",""
"dual-task","null","null","null","","swim","swim","524","","n","null","88","88","1","arctic-dual-task","","n","lowercase","328000","0","5","e4e4a8f1efe3205b5a21bac703dfc1b2217843ce61c779e0b61281d47f640bd8","328010.59999990463","524","88","1","arctic","","","","",""
"dual-task","null","null","null","","swim","swim","456.5","","G","null","77","77","1","arctic-dual-task","","G","uppercase","342000","0","5","e4e4a8f1efe3205b5a21bac703dfc1b2217843ce61c779e0b61281d47f640bd8","342006.59999990463","456.5","77","1","arctic","","","","",""
"dual-task","null","null","null","","swim","swim","772.2999999523163","","E","null","77","77","1","arctic-dual-task","","E","uppercase","354000","0","5","e4e4a8f1efe3205b5a21bac703dfc1b2217843ce61c779e0b61281d47f640bd8","354015.6999999285","772.2999999523163","77","1","arctic","","","","",""
"dual-task","null","null","null","","swim","swim","378.89999997615814","","A","null","77","77","1","arctic-dual-task","","A","uppercase","364000","0","5","e4e4a8f1efe3205b5a21bac703dfc1b2217843ce61c779e0b61281d47f640bd8","364005.5","378.89999997615814","77","1","arctic","","","","",""
"dual-task","null","null","null","","swim","swim","398.59999990463257","","F","null","77","77","1","arctic-dual-task","","F","uppercase","372000","0","5","e4e4a8f1efe3205b5a21bac703dfc1b2217843ce61c779e0b61281d47f640bd8","372002","398.59999990463257","77","1","arctic","","","","",""
"dual-task","null","null","null","","swim","swim","532.2999999523163","","d","null","77","88","0","arctic-dual-task","","d","lowercase","378000","0","5","e4e4a8f1efe3205b5a21bac703dfc1b2217843ce61c779e0b61281d47f640bd8","378003.39999997616","532.2999999523163","77","0","arctic","","","","",""
"dual-task","null","null","null","","swim","swim","447.6999999284744","","a","null","88","88","1","arctic-dual-task","","a","lowercase","388000","0","5","e4e4a8f1efe3205b5a21bac703dfc1b2217843ce61c779e0b61281d47f640bd8","388004.09999990463","447.6999999284744","88","1","arctic","","","","",""
"dual-task","null","null","null","","swim","swim","547.3999999761581","","H","null","77","77","1","arctic-dual-task","","H","uppercase","394000","0","5","e4e4a8f1efe3205b5a21bac703dfc1b2217843ce61c779e0b61281d47f640bd8","394013.7999999523","547.3999999761581","77","1","arctic","","","","",""
"dual-task","null","null","null","","swim","swim","622.1000000238419","","g","null","88","88","1","arctic-dual-task","","g","lowercase","406000","0","5","e4e4a8f1efe3205b5a21bac703dfc1b2217843ce61c779e0b61281d47f640bd8","406007.89999997616","622.1000000238419","88","1","arctic","","","","",""
"dual-task","null","null","null","","swim","swim","476.6999999284744","","E","null","77","77","1","arctic-dual-task","","E","uppercase","412000","0","5","e4e4a8f1efe3205b5a21bac703dfc1b2217843ce61c779e0b61281d47f640bd8","412004.2999999523","476.6999999284744","77","1","arctic","","","","",""
"dual-task","null","null","null","","swim","swim","616.1000000238419","","G","null","77","77","1","arctic-dual-task","","G","uppercase","426000","0","5","e4e4a8f1efe3205b5a21bac703dfc1b2217843ce61c779e0b61281d47f640bd8","426005.2999999523","616.1000000238419","77","1","arctic","","","","",""
"dual-task","null","null","null","","swim","swim","1055.7000000476837","","r","null","88","88","1","arctic-dual-task","","r","lowercase","438000","0","5","e4e4a8f1efe3205b5a21bac703dfc1b2217843ce61c779e0b61281d47f640bd8","438000.5","1055.7000000476837","88","1","arctic","","","","",""
"dual-task","null","null","null","","swim","swim","528.5","","B","null","77","77","1","arctic-dual-task","","B","uppercase","450000","0","5","e4e4a8f1efe3205b5a21bac703dfc1b2217843ce61c779e0b61281d47f640bd8","450004.39999997616","528.5","77","1","arctic","","","","",""
"dual-task","null","null","null","","swim","swim","525.4000000953674","","T","null","77","77","1","arctic-dual-task","","T","uppercase","462000","0","5","e4e4a8f1efe3205b5a21bac703dfc1b2217843ce61c779e0b61281d47f640bd8","462004.5","525.4000000953674","77","1","arctic","","","","",""
"dual-task","null","null","null","","swim","swim","1025.7999999523163","","f","null","88","88","1","arctic-dual-task","","f","lowercase","474000","0","5","e4e4a8f1efe3205b5a21bac703dfc1b2217843ce61c779e0b61281d47f640bd8","474002.89999997616","1025.7999999523163","88","1","arctic","","","","",""
"dual-task","null","null","null","","swim","swim","431.8000000715256","","q","null","88","88","1","arctic-dual-task","","q","lowercase","482000","0","5","e4e4a8f1efe3205b5a21bac703dfc1b2217843ce61c779e0b61281d47f640bd8","482010.89999997616","431.8000000715256","88","1","arctic","","","","",""
"dual-task","null","null","null","","swim","swim","488.60000002384186","","r","null","88","88","1","arctic-dual-task","","r","lowercase","488000","0","5","e4e4a8f1efe3205b5a21bac703dfc1b2217843ce61c779e0b61281d47f640bd8","488007.2999999523","488.60000002384186","88","1","arctic","","","","",""
"dual-task","null","null","null","","swim","swim","464.2000000476837","","Q","null","77","77","1","arctic-dual-task","","Q","uppercase","494000","0","5","e4e4a8f1efe3205b5a21bac703dfc1b2217843ce61c779e0b61281d47f640bd8","494016.09999990463","464.2000000476837","77","1","arctic","","","","",""
"dual-task","null","null","null","","swim","swim","521.1000000238419","","h","null","77","88","0","arctic-dual-task","","h","lowercase","500000","0","5","e4e4a8f1efe3205b5a21bac703dfc1b2217843ce61c779e0b61281d47f640bd8","500010.7999999523","521.1000000238419","77","0","arctic","","","","",""
"dual-task","null","null","null","","swim","swim","517","","B","null","77","77","1","arctic-dual-task","","B","uppercase","508000","0","5","e4e4a8f1efe3205b5a21bac703dfc1b2217843ce61c779e0b61281d47f640bd8","508008.09999990463","517","77","1","arctic","","","","",""
"dual-task","null","null","null","","swim","swim","596.5","","H","null","77","77","1","arctic-dual-task","","H","uppercase","522000","0","5","e4e4a8f1efe3205b5a21bac703dfc1b2217843ce61c779e0b61281d47f640bd8","522004.2999999523","596.5","77","1","arctic","","","","",""
"dual-task","null","null","null","","swim","swim","437","","B","null","77","77","1","arctic-dual-task","","B","uppercase","534000","0","5","e4e4a8f1efe3205b5a21bac703dfc1b2217843ce61c779e0b61281d47f640bd8","534007.1999999285","437","77","1","arctic","","","","",""
"dual-task","null","null","null","","swim","swim","619.2999999523163","","q","null","88","88","1","arctic-dual-task","","q","lowercase","546000","0","5","e4e4a8f1efe3205b5a21bac703dfc1b2217843ce61c779e0b61281d47f640bd8","546005.1999999285","619.2999999523163","88","1","arctic","","","","",""
"dual-task","null","null","null","","swim","swim","532.2999999523163","","t","null","88","88","1","arctic-dual-task","","t","lowercase","560000","0","5","e4e4a8f1efe3205b5a21bac703dfc1b2217843ce61c779e0b61281d47f640bd8","560004.3999999762","532.2999999523163","88","1","arctic","","","","",""
"dual-task","null","null","null","","swim","swim","591.6000000238419","","R","null","77","77","1","arctic-dual-task","","R","uppercase","574000","0","5","e4e4a8f1efe3205b5a21bac703dfc1b2217843ce61c779e0b61281d47f640bd8","574000.5","591.6000000238419","77","1","arctic","","","","",""
"dual-task","null","null","null","","swim","swim","545.3999999761581","","q","null","88","88","1","arctic-dual-task","","q","lowercase","588000","0","5","e4e4a8f1efe3205b5a21bac703dfc1b2217843ce61c779e0b61281d47f640bd8","588016.2999999523","545.3999999761581","88","1","arctic","","","","",""
"dual-task","null","null","null","","swim","swim","533.6999999284744","","D","null","77","77","1","arctic-dual-task","","D","uppercase","602000","0","5","e4e4a8f1efe3205b5a21bac703dfc1b2217843ce61c779e0b61281d47f640bd8","602005.8999999762","533.6999999284744","77","1","arctic","","","","",""
"dual-task","null","null","null","","swim","swim","813.8999999761581","","Q","null","77","77","1","arctic-dual-task","","Q","uppercase","610000","0","5","e4e4a8f1efe3205b5a21bac703dfc1b2217843ce61c779e0b61281d47f640bd8","610010.0999999046","813.8999999761581","77","1","arctic","","","","",""
"dual-task","null","null","null","","swim","swim","499.5","","N","null","77","77","1","arctic-dual-task","","N","uppercase","620000","0","5","e4e4a8f1efe3205b5a21bac703dfc1b2217843ce61c779e0b61281d47f640bd8","620010.2999999523","499.5","77","1","arctic","","","","",""
"dual-task","null","null","null","","swim","swim","547.5","","t","null","88","88","1","arctic-dual-task","","t","lowercase","634000","0","5","e4e4a8f1efe3205b5a21bac703dfc1b2217843ce61c779e0b61281d47f640bd8","634011.3999999762","547.5","88","1","arctic","","","","",""
"dual-task","null","null","null","","swim","swim","797.5999999046326","","Q","null","77","77","1","arctic-dual-task","","Q","uppercase","648000","0","5","e4e4a8f1efe3205b5a21bac703dfc1b2217843ce61c779e0b61281d47f640bd8","648002.2999999523","797.5999999046326","77","1","arctic","","","","",""
"dual-task","null","null","null","","swim","swim","474.8000000715256","","q","null","88","88","1","arctic-dual-task","","q","lowercase","656000","0","5","e4e4a8f1efe3205b5a21bac703dfc1b2217843ce61c779e0b61281d47f640bd8","656001.8999999762","474.8000000715256","88","1","arctic","","","","",""
"dual-task","null","null","null","","swim","swim","414.1999999284744","","h","null","88","88","1","arctic-dual-task","","h","lowercase","668000","0","5","e4e4a8f1efe3205b5a21bac703dfc1b2217843ce61c779e0b61281d47f640bd8","668013.3999999762","414.1999999284744","88","1","arctic","","","","",""
"dual-task","null","null","null","","swim","swim","627","","f","null","88","88","1","arctic-dual-task","","f","lowercase","676000","0","5","e4e4a8f1efe3205b5a21bac703dfc1b2217843ce61c779e0b61281d47f640bd8","676016.5","627","88","1","arctic","","","","",""
"dual-task","null","null","null","","swim","swim","1309.0999999046326","","R","null","88","77","0","arctic-dual-task","","R","uppercase","690000","0","5","e4e4a8f1efe3205b5a21bac703dfc1b2217843ce61c779e0b61281d47f640bd8","690016.5","1309.0999999046326","88","0","arctic","","","","",""
"dual-task","null","null","null","","swim","swim","530.5","","F","null","77","77","1","arctic-dual-task","","F","uppercase","700000","0","5","e4e4a8f1efe3205b5a21bac703dfc1b2217843ce61c779e0b61281d47f640bd8","700012","530.5","77","1","arctic","","","","",""
"dual-task","null","null","null","","swim","swim","399.2999999523163","","d","null","88","88","1","arctic-dual-task","","d","lowercase","708000","0","5","e4e4a8f1efe3205b5a21bac703dfc1b2217843ce61c779e0b61281d47f640bd8","708010.8999999762","399.2999999523163","88","1","arctic","","","","",""
"dual-task","null","null","null","","swim","swim","507.8000000715256","","t","null","88","88","1","arctic-dual-task","","t","lowercase","720000","0","5","e4e4a8f1efe3205b5a21bac703dfc1b2217843ce61c779e0b61281d47f640bd8","720004.1999999285","507.8000000715256","88","1","arctic","","","","",""
"dual-task","null","null","null","","swim","swim","574.3999999761581","","T","null","77","77","1","arctic-dual-task","","T","uppercase","726000","0","5","e4e4a8f1efe3205b5a21bac703dfc1b2217843ce61c779e0b61281d47f640bd8","726005.0999999046","574.3999999761581","77","1","arctic","","","","",""
"dual-task","null","null","null","","swim","swim","701.1999999284744","","r","null","88","88","1","arctic-dual-task","","r","lowercase","736000","0","5","e4e4a8f1efe3205b5a21bac703dfc1b2217843ce61c779e0b61281d47f640bd8","736004.7999999523","701.1999999284744","88","1","arctic","","","","",""
"dual-task","null","null","null","","swim","swim","589.7000000476837","","g","null","88","88","1","arctic-dual-task","","g","lowercase","746000","0","5","e4e4a8f1efe3205b5a21bac703dfc1b2217843ce61c779e0b61281d47f640bd8","746011.7999999523","589.7000000476837","88","1","arctic","","","","",""
"dual-task","null","null","null","","swim","swim","633.6000000238419","","f","null","88","88","1","arctic-dual-task","","f","lowercase","758000","0","5","e4e4a8f1efe3205b5a21bac703dfc1b2217843ce61c779e0b61281d47f640bd8","758014.8999999762","633.6000000238419","88","1","arctic","","","","",""
"dual-task","null","null","null","","swim","swim","481.6999999284744","","R","null","77","77","1","arctic-dual-task","","R","uppercase","764000","0","5","e4e4a8f1efe3205b5a21bac703dfc1b2217843ce61c779e0b61281d47f640bd8","764015.2999999523","481.6999999284744","77","1","arctic","","","","",""
"dual-task","null","null","null","","swim","swim","418.2999999523163","","e","null","88","88","1","arctic-dual-task","","e","lowercase","774000","0","5","e4e4a8f1efe3205b5a21bac703dfc1b2217843ce61c779e0b61281d47f640bd8","774010.2999999523","418.2999999523163","88","1","arctic","","","","",""
"dual-task","null","null","null","","swim","swim","827.2000000476837","","e","null","88","88","1","arctic-dual-task","","e","lowercase","786000","0","5","e4e4a8f1efe3205b5a21bac703dfc1b2217843ce61c779e0b61281d47f640bd8","786001","827.2000000476837","88","1","arctic","","","","",""
"audio-keyboard-response","62","2010136","0.0-7.0-2.0-1.0","e4e4a8f1efe3205b5a21bac703dfc1b2217843ce61c779e0b61281d47f640bd8","swim","swim","null","","audio/story_arctic.mp3","","null","","","","","","","","","","","","","","","","","","","",""
"html-button-response","63","2013433","0.0-7.0-2.0-2.0","e4e4a8f1efe3205b5a21bac703dfc1b2217843ce61c779e0b61281d47f640bd8","swim","swim","3294","","<p>This concludes the story. Thank you for listening.</p><p>You will now answer some questions about the content of the story.</p>","0","","","","","","","","","","","","","","","","","","","","",""
"survey-multi-choice","64","2024139","0.0-7.0-2.0-3.0-0.0","e4e4a8f1efe3205b5a21bac703dfc1b2217843ce61c779e0b61281d47f640bd8","swim","swim","10699","","<b>What was the objective of the narrator&#39;s expedition?</b>","","","","1","arctic-comprehension","","","","","","","","","","","","","{""Q0"":""Dogsled across Arctic America""}","","","",""
"survey-multi-choice","65","2034921","0.0-7.0-2.0-3.0-0.1","e4e4a8f1efe3205b5a21bac703dfc1b2217843ce61c779e0b61281d47f640bd8","swim","swim","10516","","<b>How did the narrator&#39;s neighbour respond when she told him about her expedition?</b>","","","","1","arctic-comprehension","","","","","","","","","","","","","{""Q0"":""He said she was going to fail.""}","","","",""
"survey-multi-choice","66","2046685","0.0-7.0-2.0-3.0-0.2","e4e4a8f1efe3205b5a21bac703dfc1b2217843ce61c779e0b61281d47f640bd8","swim","swim","11498","","<b>How did the dogs respond when they saw the bears?</b>","","","","1","arctic-comprehension","","","","","","","","","","","","","{""Q0"":""Approached them""}","","","",""
"survey-multi-choice","67","2056399","0.0-7.0-2.0-3.0-0.3","e4e4a8f1efe3205b5a21bac703dfc1b2217843ce61c779e0b61281d47f640bd8","swim","swim","9445","","<b>How did the narrator prepare for her expedition?</b>","","","","1","arctic-comprehension","","","","","","","","","","","","","{""Q0"":""Trained in Alaska learning how to dogsled""}","","","",""
"survey-multi-choice","68","2065583","0.0-7.0-2.0-3.0-0.4","e4e4a8f1efe3205b5a21bac703dfc1b2217843ce61c779e0b61281d47f640bd8","swim","swim","8923","","<b>How did the narrator&#39;s encounter with the polar bears end?</b>","","","","1","arctic-comprehension","","","","","","","","","","","","","{""Q0"":""The bears walked back to their den.""}","","","",""
"survey-multi-choice","69","2071182","0.0-7.0-2.0-3.0-0.5","e4e4a8f1efe3205b5a21bac703dfc1b2217843ce61c779e0b61281d47f640bd8","swim","swim","5338","","<b>How many sponsorships did the narrator receive to support her expedition?</b>","","","","1","arctic-comprehension","","","","","","","","","","","","","{""Q0"":""None""}","","","",""
"survey-multi-choice","70","2079793","0.0-7.0-2.0-3.0-0.6","e4e4a8f1efe3205b5a21bac703dfc1b2217843ce61c779e0b61281d47f640bd8","swim","swim","8347","","<b>Which dog on the narrator&#39;s dog team never followed instructions?</b>","","","","0","arctic-comprehension","","","","","","","","","","","","","{""Q0"":""Douggie-dog""}","","","",""
"survey-multi-choice","71","2092777","0.0-7.0-2.0-3.0-0.7","e4e4a8f1efe3205b5a21bac703dfc1b2217843ce61c779e0b61281d47f640bd8","swim","swim","12718","","<b>What did the narrator do for leisure while in her tent?</b>","","","","1","arctic-comprehension","","","","","","","","","","","","","{""Q0"":""Read""}","","","",""
"survey-multi-choice","72","2102892","0.0-7.0-2.0-3.0-0.8","e4e4a8f1efe3205b5a21bac703dfc1b2217843ce61c779e0b61281d47f640bd8","swim","swim","9858","","<b>What were the weather conditions in the Arctic like the winter of the narrator&#39;s expedition?</b>","","","","1","arctic-comprehension","","","","","","","","","","","","","{""Q0"":""There were more storms than any other winter in recorded history.""}","","","",""
"survey-multi-choice","73","2110384","0.0-7.0-2.0-3.0-0.9","e4e4a8f1efe3205b5a21bac703dfc1b2217843ce61c779e0b61281d47f640bd8","swim","swim","7232","","<b>What is the name of the narrator&#39;s neighbour?</b>","","","","0","arctic-comprehension","","","","","","","","","","","","","{""Q0"":""Doug""}","","","",""
"html-button-response","74","2113118","0.0-7.0-2.0-4.0","e4e4a8f1efe3205b5a21bac703dfc1b2217843ce61c779e0b61281d47f640bd8","swim","swim","2479","","<p>Thank you for your responses.</p><p>You will now answer some questions about your impressions of the story.</p>","0","","","","","","","","","","","","","","","","","","","","",""
"html-button-response","75","2115864","0.0-7.0-2.0-5.0-0.0","e4e4a8f1efe3205b5a21bac703dfc1b2217843ce61c779e0b61281d47f640bd8","swim","swim","2743","","A3","6","","","","arctic-engagement","","","","","","","","","","","","","","7","absorption","",""
"html-button-response","76","2118948","0.0-7.0-2.0-5.0-0.1","e4e4a8f1efe3205b5a21bac703dfc1b2217843ce61c779e0b61281d47f640bd8","swim","swim","2830","","EE3","6","","","","arctic-engagement","","","","","","","","","","","","","","7","emo-engage","",""
"html-button-response","77","2121185","0.0-7.0-2.0-5.0-0.2","e4e4a8f1efe3205b5a21bac703dfc1b2217843ce61c779e0b61281d47f640bd8","swim","swim","1980","","E1","6","","","","arctic-engagement","","","","","","","","","","","","","","7","enjoyment","",""
"html-button-response","78","2122712","0.0-7.0-2.0-5.0-0.3","e4e4a8f1efe3205b5a21bac703dfc1b2217843ce61c779e0b61281d47f640bd8","swim","swim","1274","","E8","6","","","","arctic-engagement","","","","","","","","","","","","","","7","enjoyment","",""
"html-button-response","79","2130987","0.0-7.0-2.0-5.0-0.4","e4e4a8f1efe3205b5a21bac703dfc1b2217843ce61c779e0b61281d47f640bd8","swim","swim","8016","","A4","5","","","","arctic-engagement","","","","","","","","","","","","","","6","absorption","",""
"html-button-response","80","2133768","0.0-7.0-2.0-5.0-0.5","e4e4a8f1efe3205b5a21bac703dfc1b2217843ce61c779e0b61281d47f640bd8","swim","swim","2517","","EE4","5","","","","arctic-engagement","","","","","","","","","","","","","","6","emo-engage","",""
"html-button-response","81","2136016","0.0-7.0-2.0-5.0-0.6","e4e4a8f1efe3205b5a21bac703dfc1b2217843ce61c779e0b61281d47f640bd8","swim","swim","1988","","EE5","5","","","","arctic-engagement","","","","","","","","","","","","","","6","emo-engage","",""
"html-button-response","82","2138350","0.0-7.0-2.0-5.0-0.7","e4e4a8f1efe3205b5a21bac703dfc1b2217843ce61c779e0b61281d47f640bd8","swim","swim","2074","","E7","6","","","","arctic-engagement","","","","","","","","","","","","","","7","enjoyment","",""
"html-button-response","83","2141870","0.0-7.0-2.0-5.0-0.8","e4e4a8f1efe3205b5a21bac703dfc1b2217843ce61c779e0b61281d47f640bd8","swim","swim","3265","","EE2","5","","","","arctic-engagement","","","","","","","","","","","","","","6","emo-engage","",""
"html-button-response","84","2147856","0.0-7.0-2.0-5.0-0.9","e4e4a8f1efe3205b5a21bac703dfc1b2217843ce61c779e0b61281d47f640bd8","swim","swim","5733","","MS2","4","","","","arctic-engagement","","","","","","","","","","","","","","5","mental-sim","",""
"html-button-response","85","2151961","0.0-7.0-2.0-5.0-0.10","e4e4a8f1efe3205b5a21bac703dfc1b2217843ce61c779e0b61281d47f640bd8","swim","swim","3847","","A5","5","","","","arctic-engagement","","","","","","","","","","","","","","6","absorption","",""
"html-button-response","86","2156519","0.0-7.0-2.0-5.0-0.11","e4e4a8f1efe3205b5a21bac703dfc1b2217843ce61c779e0b61281d47f640bd8","swim","swim","4288","","E10","6","","","","arctic-engagement","","","","","","","","","","","","","","7","enjoyment","",""
"html-button-response","87","2160685","0.0-7.0-2.0-5.0-0.12","e4e4a8f1efe3205b5a21bac703dfc1b2217843ce61c779e0b61281d47f640bd8","swim","swim","3908","","A1","6","","","","arctic-engagement","","","","","","","","","","","","","","7","absorption","",""
"html-button-response","88","2175188","0.0-7.0-2.0-5.0-0.13","e4e4a8f1efe3205b5a21bac703dfc1b2217843ce61c779e0b61281d47f640bd8","swim","swim","14249","","MS3","6","","","","arctic-engagement","","","","","","","","","","","","","","7","mental-sim","",""
"html-button-response","89","2179821","0.0-7.0-2.0-5.0-0.14","e4e4a8f1efe3205b5a21bac703dfc1b2217843ce61c779e0b61281d47f640bd8","swim","swim","4373","","MS1","6","","","","arctic-engagement","","","","","","","","","","","","","","7","mental-sim","",""
"html-button-response","90","2184566","0.0-7.0-2.0-5.0-0.15","e4e4a8f1efe3205b5a21bac703dfc1b2217843ce61c779e0b61281d47f640bd8","swim","swim","4490","","EE1","6","","","","arctic-engagement","","","","","","","","","","","","","","7","emo-engage","",""
"html-button-response","91","2187008","0.0-7.0-2.0-5.0-0.16","e4e4a8f1efe3205b5a21bac703dfc1b2217843ce61c779e0b61281d47f640bd8","swim","swim","2185","","A2","6","","","","arctic-engagement","","","","","","","","","","","","","","7","absorption","",""
"html-button-response","92","2188998","0.0-7.0-2.0-5.0-0.17","e4e4a8f1efe3205b5a21bac703dfc1b2217843ce61c779e0b61281d47f640bd8","swim","swim","1735","","E6","6","","","","arctic-engagement","","","","","","","","","","","","","","7","enjoyment","",""
"html-button-response","93","2190994","0.0-8.0","e4e4a8f1efe3205b5a21bac703dfc1b2217843ce61c779e0b61281d47f640bd8","swim","swim","1740","","<p>Thank you for your responses.</p><p>You will now answer some demographic, hearing, and general health questions.</p>","0","","","","","","","","","","","","","","","","","","","","",""
"survey-multi-choice","94","2197187","0.0-9.0-0.0","e4e4a8f1efe3205b5a21bac703dfc1b2217843ce61c779e0b61281d47f640bd8","swim","swim","6184","","","","","","","survey","","","","","","","","","","","","","{""Q0"":""Chrome""}","","","browser",""
"survey-text","95","2201227","0.0-9.0-1.0","e4e4a8f1efe3205b5a21bac703dfc1b2217843ce61c779e0b61281d47f640bd8","swim","swim","3778.399999976158","","","","","","","survey","","","","","","","","","","","","","{""AGE"":""27""}","","","age","27"
"survey-multi-choice","96","2204497","0.0-9.0-2.0","e4e4a8f1efe3205b5a21bac703dfc1b2217843ce61c779e0b61281d47f640bd8","swim","swim","3013","","","","","","","survey","","","","","","","","","","","","","{""Q0"":""Male""}","","","gender","Male"
"survey-multi-choice","97","2209350","0.0-9.0-4.0","e4e4a8f1efe3205b5a21bac703dfc1b2217843ce61c779e0b61281d47f640bd8","swim","swim","4594","","","","","","","survey","","","","","","","","","","","","","{""Q0"":""Right""}","","","handedness","Right"
"survey-multi-choice","98","2212781","0.0-9.0-5.0","e4e4a8f1efe3205b5a21bac703dfc1b2217843ce61c779e0b61281d47f640bd8","swim","swim","3163","","","","","","","survey","","","","","","","","","","","","","{""Q0"":""High school""}","","","education","High school"
"survey-text","99","2217618","0.0-10.0-0.0","e4e4a8f1efe3205b5a21bac703dfc1b2217843ce61c779e0b61281d47f640bd8","swim","swim","4579.200000047684","","","","","","","survey","","","","","","","","","","","","","{""L1"":""english""}","","","first-language","english"
"survey-text","100","2223942","0.0-10.0-1.0","e4e4a8f1efe3205b5a21bac703dfc1b2217843ce61c779e0b61281d47f640bd8","swim","swim","6062.899999976158","","","","","","","survey","","","","","","","","","","","","","{""L2name"":"""",""L2fluency"":"""",""L3name"":"""",""L3fluency"":"""",""L4name"":"""",""L4fluency"":""""}","","","additional-languages","{""L2name"":"""",""L2fluency"":"""",""L3name"":"""",""L3fluency"":"""",""L4name"":"""",""L4fluency"":""""}"
"survey-multi-choice","101","2227533","0.0-10.0-2.0","e4e4a8f1efe3205b5a21bac703dfc1b2217843ce61c779e0b61281d47f640bd8","swim","swim","3329","","","","","","","survey","","","","","","","","","","","","","{""Q0"":""No""}","","","hearing-aid","No"
"survey-multi-choice","102","2232710","0.0-10.0-3.0","e4e4a8f1efe3205b5a21bac703dfc1b2217843ce61c779e0b61281d47f640bd8","swim","swim","4921","","","","","","","survey","","","","","","","","","","","","","{""Q0"":""Sometimes""}","","","ringing-ears","Sometimes"
"survey-multi-choice","103","2238505","0.0-10.0-4.0-0.0","e4e4a8f1efe3205b5a21bac703dfc1b2217843ce61c779e0b61281d47f640bd8","swim","swim","5530","","","","","","","survey","","","","","","","","","","","","","{""Q0"":""Right Ear""}","","","ringing-ear-loc","Right Ear"
"survey-multi-choice","104","2243366","0.0-10.0-5.0","e4e4a8f1efe3205b5a21bac703dfc1b2217843ce61c779e0b61281d47f640bd8","swim","swim","4598","","","","","","","survey","","","","","","","","","","","","","{""Q0"":""No""}","","","neuro-disease","No"
"survey-multi-choice","105","2248470","0.0-10.0-7.0","e4e4a8f1efe3205b5a21bac703dfc1b2217843ce61c779e0b61281d47f640bd8","swim","swim","4850","","","","","","","survey","","","","","","","","","","","","","{""Q0"":""Yes""}","","","take-meds","Yes"
"survey-text","106","2259509","0.0-10.0-8.0-0.0","e4e4a8f1efe3205b5a21bac703dfc1b2217843ce61c779e0b61281d47f640bd8","swim","swim","10781.299999952316","","","","","","","survey","","","","","","","","","","","","","{""MED"":""depression medication ""}","","","take-meds-clarify","depression medication "
"survey-text","107","2270560","0.0-10.0-9.0","e4e4a8f1efe3205b5a21bac703dfc1b2217843ce61c779e0b61281d47f640bd8","swim","swim","10755.800000071526","","","","","","","survey","","","","","","","","","","","","","{""HC"":""none""}","","","health-concerns","none"
"html-button-response","108","2275693","0.0-11.0-0.0","e4e4a8f1efe3205b5a21bac703dfc1b2217843ce61c779e0b61281d47f640bd8","swim","swim","4873","","<p>How would you describe your musical skills/experiences?</p>","1","","","","survey","","","","","","","","","","","","","","","","music-skill","2"
"survey-multi-choice","109","2280434","0.0-11.0-1.0","e4e4a8f1efe3205b5a21bac703dfc1b2217843ce61c779e0b61281d47f640bd8","swim","swim","4479","","","","","","","survey","","","","","","","","","","","","","{""Q0"":""No""}","","","music-instrument","No"
"html-button-response","110","2284410","0.0-12.0-0.0","e4e4a8f1efe3205b5a21bac703dfc1b2217843ce61c779e0b61281d47f640bd8","swim","swim","3721","","<p>How would you describe your general hearing abilities?</p>","4","","","","survey","","","","","","","","","","","","","","","","ssq-01","5"
"html-button-response","111","2300533","0.0-12.0-1.0","e4e4a8f1efe3205b5a21bac703dfc1b2217843ce61c779e0b61281d47f640bd8","swim","swim","15862","","<p>When you talk with someone at a place that strongly reverberates/echoes (e.g., in a church or train station),</br>can you understand what the person says?</p>","9","","","","survey","","","","","","","","","","","","","","","","ssq-02","9"
"html-button-response","112","2307762","0.0-12.0-2.0","e4e4a8f1efe3205b5a21bac703dfc1b2217843ce61c779e0b61281d47f640bd8","swim","swim","6970","","<p>When you are with a group (~5 people) in a lively restaurant, can you follow the group's conversation?</p>","8","","","","survey","","","","","","","","","","","","","","","","ssq-03","8"
"html-button-response","113","2316637","0.0-12.0-3.0","e4e4a8f1efe3205b5a21bac703dfc1b2217843ce61c779e0b61281d47f640bd8","swim","swim","8619","","<p>Based on the sound of a bus or truck, can you tell whether it is moving towards or away from you?</p>","9","","","","survey","","","","","","","","","","","","","","","","ssq-04","9"
"html-button-response","114","2323638","0.0-12.0-4.0","e4e4a8f1efe3205b5a21bac703dfc1b2217843ce61c779e0b61281d47f640bd8","swim","swim","6728","","<p>When you are in an unknown environment, can you tell from which direction a brief sound originates?</p>","7","","","","survey","","","","","","","","","","","","","","","","ssq-05","7"
"html-button-response","115","2331308","0.0-12.0-5.0","e4e4a8f1efe3205b5a21bac703dfc1b2217843ce61c779e0b61281d47f640bd8","swim","swim","7410","","<p>Are you able to ignore distracting sounds when you concentrate on a specific aspect of your acoustic surrounding?</p>","8","","","","survey","","","","","","","","","","","","","","","","ssq-06","8"
"fullscreen","116","2332568","0.0-13.0","e4e4a8f1efe3205b5a21bac703dfc1b2217843ce61c779e0b61281d47f640bd8","swim","swim","","","","","","","","","true","","","","","","","","","","","","","","","",""
