"trial_type","trial_index","time_elapsed","internal_node_id","ParticipantID","firstStory","scramStory","rt","url","stimulus","button_pressed","key_press","correctRESP","correct","designation","success","letterStim","letterType","ONSET","TIMEOUT","CONDITION","Participant","ONSET_ACTUAL","RT","RESP","ACC","STORY","responses","response","type","surveyQuestion","QRESP"
"pavlovia","0","11","0.0-0.0","77f2ee51d6bfb5b969676e80982edb746d214b44287c73676e1b2bb148cfa9b5","arctic","arctic","","","","","","","","","","","","","","","","","","","","","","","","",""
"external-html","1","3430","0.0-1.0","77f2ee51d6bfb5b969676e80982edb746d214b44287c73676e1b2bb148cfa9b5","arctic","arctic","3262","consent/consent_updated.html","","","","","","","","","","","","","","","","","","","","","","",""
"html-button-response","2","5453","0.0-2.0-0.0","77f2ee51d6bfb5b969676e80982edb746d214b44287c73676e1b2bb148cfa9b5","arctic","arctic","2022","","<p>Before we begin the main task, you will complete a short volume calibration and headphone check.</p><p>Please make sure you are in a quiet listening environment, that you are wearing headphones, and that your computer's volume is turned on.<p></p>","0","","","","","","","","","","","","","","","","","","","","",""
"html-button-response","3","6732","0.0-2.0-1.0","77f2ee51d6bfb5b969676e80982edb746d214b44287c73676e1b2bb148cfa9b5","arctic","arctic","1013","","<p>The volume calibration will be first.</p><p>You will hear a thirty-second noise. Please adjust your computer's volume so that this noise is being presented at a comfortable level.<p></p>","0","","","","","","","","","","","","","","","","","","","","",""
"audio-button-response","4","9166","0.0-2.0-2.0","77f2ee51d6bfb5b969676e80982edb746d214b44287c73676e1b2bb148cfa9b5","arctic","arctic","2172","","audio/volumetest.mp3","0","","","","","","","","","","","","","","","","","","","","",""
"html-keyboard-response","5","19992","0.0-3.0-0.0","77f2ee51d6bfb5b969676e80982edb746d214b44287c73676e1b2bb148cfa9b5","arctic","arctic","10825","","<p>You will now complete a short headphone check.</p><p>On each trial, you will hear three tones. One of these tones will be quieter than the others. Your task is to identify whether the quiet tone occurred first, second, or third.</p><p>There are six trials in total.<p></p><p></p>(Press SPACEBAR to begin)","","32","","","","","","","","","","","","","","","","","","","",""
"html-keyboard-response","6","20750","0.0-3.0-1.0-0.0","77f2ee51d6bfb5b969676e80982edb746d214b44287c73676e1b2bb148cfa9b5","arctic","arctic","null","","<div style=""font-size:60px;"">+</div>","","null","","","","","","","","","","","","","","","","","","","",""
"audio-button-response","7","25180","0.0-3.0-1.0-1.0","77f2ee51d6bfb5b969676e80982edb746d214b44287c73676e1b2bb148cfa9b5","arctic","arctic","4428","","audio/t1_1.mp3","2","","0","0","headphone-test","","","","","","","","","","","","","","","","",""
"html-keyboard-response","8","25684","0.0-3.0-1.0-2.0","77f2ee51d6bfb5b969676e80982edb746d214b44287c73676e1b2bb148cfa9b5","arctic","arctic","null","","<p>Incorrect</p>","","null","","","","","","","","","","","","","","","","","","","",""
"html-keyboard-response","9","26186","0.0-3.0-1.0-0.1","77f2ee51d6bfb5b969676e80982edb746d214b44287c73676e1b2bb148cfa9b5","arctic","arctic","null","","<div style=""font-size:60px;"">+</div>","","null","","","","","","","","","","","","","","","","","","","",""
"audio-button-response","10","30150","0.0-3.0-1.0-1.1","77f2ee51d6bfb5b969676e80982edb746d214b44287c73676e1b2bb148cfa9b5","arctic","arctic","3964","","audio/t3_2.mp3","2","","2","1","headphone-test","","","","","","","","","","","","","","","","",""
"html-keyboard-response","11","30652","0.0-3.0-1.0-2.1","77f2ee51d6bfb5b969676e80982edb746d214b44287c73676e1b2bb148cfa9b5","arctic","arctic","null","","<p>Correct</p>","","null","","","","","","","","","","","","","","","","","","","",""
"html-keyboard-response","12","31166","0.0-3.0-1.0-0.2","77f2ee51d6bfb5b969676e80982edb746d214b44287c73676e1b2bb148cfa9b5","arctic","arctic","null","","<div style=""font-size:60px;"">+</div>","","null","","","","","","","","","","","","","","","","","","","",""
"audio-button-response","13","34748","0.0-3.0-1.0-1.2","77f2ee51d6bfb5b969676e80982edb746d214b44287c73676e1b2bb148cfa9b5","arctic","arctic","3581","","audio/t2_2.mp3","1","","1","1","headphone-test","","","","","","","","","","","","","","","","",""
"html-keyboard-response","14","35253","0.0-3.0-1.0-2.2","77f2ee51d6bfb5b969676e80982edb746d214b44287c73676e1b2bb148cfa9b5","arctic","arctic","null","","<p>Correct</p>","","null","","","","","","","","","","","","","","","","","","","",""
"html-keyboard-response","15","35755","0.0-3.0-1.0-0.3","77f2ee51d6bfb5b969676e80982edb746d214b44287c73676e1b2bb148cfa9b5","arctic","arctic","null","","<div style=""font-size:60px;"">+</div>","","null","","","","","","","","","","","","","","","","","","","",""
"audio-button-response","16","39554","0.0-3.0-1.0-1.3","77f2ee51d6bfb5b969676e80982edb746d214b44287c73676e1b2bb148cfa9b5","arctic","arctic","3798","","audio/t1_2.mp3","1","","0","0","headphone-test","","","","","","","","","","","","","","","","",""
"html-keyboard-response","17","40063","0.0-3.0-1.0-2.3","77f2ee51d6bfb5b969676e80982edb746d214b44287c73676e1b2bb148cfa9b5","arctic","arctic","null","","<p>Incorrect</p>","","null","","","","","","","","","","","","","","","","","","","",""
"html-keyboard-response","18","40565","0.0-3.0-1.0-0.4","77f2ee51d6bfb5b969676e80982edb746d214b44287c73676e1b2bb148cfa9b5","arctic","arctic","null","","<div style=""font-size:60px;"">+</div>","","null","","","","","","","","","","","","","","","","","","","",""
"audio-button-response","19","43512","0.0-3.0-1.0-1.4","77f2ee51d6bfb5b969676e80982edb746d214b44287c73676e1b2bb148cfa9b5","arctic","arctic","2947","","audio/t3_1.mp3","1","","2","0","headphone-test","","","","","","","","","","","","","","","","",""
"html-keyboard-response","20","44024","0.0-3.0-1.0-2.4","77f2ee51d6bfb5b969676e80982edb746d214b44287c73676e1b2bb148cfa9b5","arctic","arctic","null","","<p>Incorrect</p>","","null","","","","","","","","","","","","","","","","","","","",""
"html-keyboard-response","21","44541","0.0-3.0-1.0-0.5","77f2ee51d6bfb5b969676e80982edb746d214b44287c73676e1b2bb148cfa9b5","arctic","arctic","null","","<div style=""font-size:60px;"">+</div>","","null","","","","","","","","","","","","","","","","","","","",""
"audio-button-response","22","48470","0.0-3.0-1.0-1.5","77f2ee51d6bfb5b969676e80982edb746d214b44287c73676e1b2bb148cfa9b5","arctic","arctic","3928","","audio/t2_1.mp3","1","","1","1","headphone-test","","","","","","","","","","","","","","","","",""
"html-keyboard-response","23","48975","0.0-3.0-1.0-2.5","77f2ee51d6bfb5b969676e80982edb746d214b44287c73676e1b2bb148cfa9b5","arctic","arctic","null","","<p>Correct</p>","","null","","","","","","","","","","","","","","","","","","","",""
"fullscreen","24","108530","0.0-4.0","77f2ee51d6bfb5b969676e80982edb746d214b44287c73676e1b2bb148cfa9b5","arctic","arctic","","","","","","","","","true","","","","","","","","","","","","","","","",""
"html-button-response","25","214426","0.0-5.0-0.0","77f2ee51d6bfb5b969676e80982edb746d214b44287c73676e1b2bb148cfa9b5","arctic","arctic","105895","","<p>There are two blocks to this experiment.</p><p>In each block, you will hear a ~13.5 minute story. One of the stories will be scrambled. Please listen carefully to both stories and understand them as best you can.</p><p>After each story, you will be asked some questions to assess your comprehension.</p>","0","","","","","","","","","","","","","","","","","","","","",""
"html-button-response","26","222493","0.0-5.0-1.0","77f2ee51d6bfb5b969676e80982edb746d214b44287c73676e1b2bb148cfa9b5","arctic","arctic","8066","","<p>During each story, there will be an additional task.</p><p>A letter will occasionally appear on the screen.</br>Your job is to - as quickly as you can - decide whether the letter is lowercase or uppercase and press one of two keys on the keyboard:</p><p>If the letter is <b>lowercase</b>, press key &lt;<b>x</b>&gt;.</p><p>If the letter is <b>uppercase</b>, press key &lt;<b>m</b>&gt;.</p>","0","","","","","","","","","","","","","","","","","","","","",""
"html-keyboard-response","27","225423","0.0-5.0-2.0","77f2ee51d6bfb5b969676e80982edb746d214b44287c73676e1b2bb148cfa9b5","arctic","arctic","2929","","<p>Because we want your responses to be as quick as possible, please keep your index fingers over the keys while listening.</p><p>Each block lasts about 20 minutes.</p><p><b>Press &lt;x&gt; or &lt;m&gt; to start the first block!</b></p>","","88","","","","","","","","","","","","","","","","","","","",""
"html-keyboard-response","28","225924","0.0-6.0-0.0-0.0","77f2ee51d6bfb5b969676e80982edb746d214b44287c73676e1b2bb148cfa9b5","arctic","arctic","null","","<div style=""font-size:60px;"" tabindex=""0"">+</div>","","null","","","","","","","","","","","","","","","","","","","",""
"dual-task","null","null","null","","arctic","arctic","1798.9000000059605","","F","null","77","77","1","arctic-dual-task","","F","uppercase","14000","0","3","77f2ee51d6bfb5b969676e80982edb746d214b44287c73676e1b2bb148cfa9b5","14011.199999988079","1798.9000000059605","77","1","arctic","","","","",""
"dual-task","null","null","null","","arctic","arctic","1894.699999988079","","T","null","77","77","1","arctic-dual-task","","T","uppercase","28000","0","3","77f2ee51d6bfb5b969676e80982edb746d214b44287c73676e1b2bb148cfa9b5","28007.59999999404","1894.699999988079","77","1","arctic","","","","",""
"dual-task","null","null","null","","arctic","arctic","1472.2000000178814","","Q","null","77","77","1","arctic-dual-task","","Q","uppercase","38000","0","3","77f2ee51d6bfb5b969676e80982edb746d214b44287c73676e1b2bb148cfa9b5","38010.89999997616","1472.2000000178814","77","1","arctic","","","","",""
"dual-task","null","null","null","","arctic","arctic","1208.199999988079","","R","null","77","77","1","arctic-dual-task","","R","uppercase","50000","0","3","77f2ee51d6bfb5b969676e80982edb746d214b44287c73676e1b2bb148cfa9b5","50013.69999998808","1208.199999988079","77","1","arctic","","","","",""
"dual-task","null","null","null","","arctic","arctic","1534.800000011921","","N","null","77","77","1","arctic-dual-task","","N","uppercase","58000","0","3","77f2ee51d6bfb5b969676e80982edb746d214b44287c73676e1b2bb148cfa9b5","58002.19999998808","1534.800000011921","77","1","arctic","","","","",""
"dual-task","null","null","null","","arctic","arctic","1198.7000000178814","","a","null","88","88","1","arctic-dual-task","","a","lowercase","70000","0","3","77f2ee51d6bfb5b969676e80982edb746d214b44287c73676e1b2bb148cfa9b5","70000.79999998212","1198.7000000178814","88","1","arctic","","","","",""
"dual-task","null","null","null","","arctic","arctic","912.0999999940395","","R","null","77","77","1","arctic-dual-task","","R","uppercase","84000","0","3","77f2ee51d6bfb5b969676e80982edb746d214b44287c73676e1b2bb148cfa9b5","84015.39999997616","912.0999999940395","77","1","arctic","","","","",""
"dual-task","null","null","null","","arctic","arctic","1075.2000000178814","","t","null","88","88","1","arctic-dual-task","","t","lowercase","98000","0","3","77f2ee51d6bfb5b969676e80982edb746d214b44287c73676e1b2bb148cfa9b5","98009.29999998212","1075.2000000178814","88","1","arctic","","","","",""
"dual-task","null","null","null","","arctic","arctic","1068.699999988079","","q","null","88","88","1","arctic-dual-task","","q","lowercase","112000","0","3","77f2ee51d6bfb5b969676e80982edb746d214b44287c73676e1b2bb148cfa9b5","112013.59999999404","1068.699999988079","88","1","arctic","","","","",""
"dual-task","null","null","null","","arctic","arctic","985.3999999761581","","N","null","77","77","1","arctic-dual-task","","N","uppercase","120000","0","3","77f2ee51d6bfb5b969676e80982edb746d214b44287c73676e1b2bb148cfa9b5","120015.39999997616","985.3999999761581","77","1","arctic","","","","",""
"dual-task","null","null","null","","arctic","arctic","1061","","a","null","88","88","1","arctic-dual-task","","a","lowercase","132000","0","3","77f2ee51d6bfb5b969676e80982edb746d214b44287c73676e1b2bb148cfa9b5","132000.79999998212","1061","88","1","arctic","","","","",""
"dual-task","null","null","null","","arctic","arctic","857.0999999940395","","T","null","77","77","1","arctic-dual-task","","T","uppercase","146000","0","3","77f2ee51d6bfb5b969676e80982edb746d214b44287c73676e1b2bb148cfa9b5","146006.19999998808","857.0999999940395","77","1","arctic","","","","",""
"dual-task","null","null","null","","arctic","arctic","585.7999999821186","","H","null","77","77","1","arctic-dual-task","","H","uppercase","154000","0","3","77f2ee51d6bfb5b969676e80982edb746d214b44287c73676e1b2bb148cfa9b5","154009.89999997616","585.7999999821186","77","1","arctic","","","","",""
"dual-task","null","null","null","","arctic","arctic","1104.1000000238419","","h","null","88","88","1","arctic-dual-task","","h","lowercase","164000","0","3","77f2ee51d6bfb5b969676e80982edb746d214b44287c73676e1b2bb148cfa9b5","164005.39999997616","1104.1000000238419","88","1","arctic","","","","",""
"dual-task","null","null","null","","arctic","arctic","1273.0999999940395","","n","null","88","88","1","arctic-dual-task","","n","lowercase","178000","0","3","77f2ee51d6bfb5b969676e80982edb746d214b44287c73676e1b2bb148cfa9b5","178004.29999998212","1273.0999999940395","88","1","arctic","","","","",""
"dual-task","null","null","null","","arctic","arctic","974.4000000059605","","A","null","77","77","1","arctic-dual-task","","A","uppercase","186000","0","3","77f2ee51d6bfb5b969676e80982edb746d214b44287c73676e1b2bb148cfa9b5","185999.39999997616","974.4000000059605","77","1","arctic","","","","",""
"dual-task","null","null","null","","arctic","arctic","1483","","r","null","88","88","1","arctic-dual-task","","r","lowercase","200000","0","3","77f2ee51d6bfb5b969676e80982edb746d214b44287c73676e1b2bb148cfa9b5","200014.09999999404","1483","88","1","arctic","","","","",""
"dual-task","null","null","null","","arctic","arctic","1244.5","","b","null","88","88","1","arctic-dual-task","","b","lowercase","212000","0","3","77f2ee51d6bfb5b969676e80982edb746d214b44287c73676e1b2bb148cfa9b5","212001.89999997616","1244.5","88","1","arctic","","","","",""
"dual-task","null","null","null","","arctic","arctic","NA","","D","null","NA","77","0","arctic-dual-task","","D","uppercase","220000","1","3","77f2ee51d6bfb5b969676e80982edb746d214b44287c73676e1b2bb148cfa9b5","220002","NA","NA","0","arctic","","","","",""
"dual-task","null","null","null","","arctic","arctic","1516.699999988079","","g","null","88","88","1","arctic-dual-task","","g","lowercase","234000","0","3","77f2ee51d6bfb5b969676e80982edb746d214b44287c73676e1b2bb148cfa9b5","234001.5","1516.699999988079","88","1","arctic","","","","",""
"dual-task","null","null","null","","arctic","arctic","1067.0999999940395","","g","null","88","88","1","arctic-dual-task","","g","lowercase","246000","0","3","77f2ee51d6bfb5b969676e80982edb746d214b44287c73676e1b2bb148cfa9b5","246001.29999998212","1067.0999999940395","88","1","arctic","","","","",""
"dual-task","null","null","null","","arctic","arctic","1145","","R","null","77","77","1","arctic-dual-task","","R","uppercase","256000","0","3","77f2ee51d6bfb5b969676e80982edb746d214b44287c73676e1b2bb148cfa9b5","256009","1145","77","1","arctic","","","","",""
"dual-task","null","null","null","","arctic","arctic","NA","","h","null","NA","88","0","arctic-dual-task","","h","lowercase","264000","1","3","77f2ee51d6bfb5b969676e80982edb746d214b44287c73676e1b2bb148cfa9b5","264002.1999999881","NA","NA","0","arctic","","","","",""
"dual-task","null","null","null","","arctic","arctic","1022.5999999940395","","f","null","88","88","1","arctic-dual-task","","f","lowercase","274000","0","3","77f2ee51d6bfb5b969676e80982edb746d214b44287c73676e1b2bb148cfa9b5","274015.2999999821","1022.5999999940395","88","1","arctic","","","","",""
"dual-task","null","null","null","","arctic","arctic","802.9000000059605","","F","null","77","77","1","arctic-dual-task","","F","uppercase","286000","0","3","77f2ee51d6bfb5b969676e80982edb746d214b44287c73676e1b2bb148cfa9b5","286009.89999997616","802.9000000059605","77","1","arctic","","","","",""
"dual-task","null","null","null","","arctic","arctic","837.7999999821186","","B","null","77","77","1","arctic-dual-task","","B","uppercase","296000","0","3","77f2ee51d6bfb5b969676e80982edb746d214b44287c73676e1b2bb148cfa9b5","296001.5","837.7999999821186","77","1","arctic","","","","",""
"dual-task","null","null","null","","arctic","arctic","NA","","d","null","NA","88","0","arctic-dual-task","","d","lowercase","306000","1","3","77f2ee51d6bfb5b969676e80982edb746d214b44287c73676e1b2bb148cfa9b5","306002.39999997616","NA","NA","0","arctic","","","","",""
"dual-task","null","null","null","","arctic","arctic","NA","","N","null","NA","77","0","arctic-dual-task","","N","uppercase","314000","1","3","77f2ee51d6bfb5b969676e80982edb746d214b44287c73676e1b2bb148cfa9b5","314012.59999999404","NA","NA","0","arctic","","","","",""
"dual-task","null","null","null","","arctic","arctic","1194.800000011921","","d","null","88","88","1","arctic-dual-task","","d","lowercase","326000","0","3","77f2ee51d6bfb5b969676e80982edb746d214b44287c73676e1b2bb148cfa9b5","326001.59999999404","1194.800000011921","88","1","arctic","","","","",""
"dual-task","null","null","null","","arctic","arctic","855.0999999940395","","d","null","88","88","1","arctic-dual-task","","d","lowercase","334000","0","3","77f2ee51d6bfb5b969676e80982edb746d214b44287c73676e1b2bb148cfa9b5","334003.1999999881","855.0999999940395","88","1","arctic","","","","",""
"dual-task","null","null","null","","arctic","arctic","773","","h","null","88","88","1","arctic-dual-task","","h","lowercase","346000","0","3","77f2ee51d6bfb5b969676e80982edb746d214b44287c73676e1b2bb148cfa9b5","346001.7999999821","773","88","1","arctic","","","","",""
"dual-task","null","null","null","","arctic","arctic","1468.300000011921","","Q","null","77","77","1","arctic-dual-task","","Q","uppercase","356000","0","3","77f2ee51d6bfb5b969676e80982edb746d214b44287c73676e1b2bb148cfa9b5","356001.2999999821","1468.300000011921","77","1","arctic","","","","",""
"dual-task","null","null","null","","arctic","arctic","NA","","F","null","NA","77","0","arctic-dual-task","","F","uppercase","366000","1","3","77f2ee51d6bfb5b969676e80982edb746d214b44287c73676e1b2bb148cfa9b5","366008","NA","NA","0","arctic","","","","",""
"dual-task","null","null","null","","arctic","arctic","1299.2999999821186","","n","null","88","88","1","arctic-dual-task","","n","lowercase","376000","0","3","77f2ee51d6bfb5b969676e80982edb746d214b44287c73676e1b2bb148cfa9b5","376011.5","1299.2999999821186","88","1","arctic","","","","",""
"dual-task","null","null","null","","arctic","arctic","1667.199999988079","","G","null","77","77","1","arctic-dual-task","","G","uppercase","386000","0","3","77f2ee51d6bfb5b969676e80982edb746d214b44287c73676e1b2bb148cfa9b5","386014","1667.199999988079","77","1","arctic","","","","",""
"dual-task","null","null","null","","arctic","arctic","1322.5","","r","null","88","88","1","arctic-dual-task","","r","lowercase","398000","0","3","77f2ee51d6bfb5b969676e80982edb746d214b44287c73676e1b2bb148cfa9b5","398001.1999999881","1322.5","88","1","arctic","","","","",""
"dual-task","null","null","null","","arctic","arctic","NA","","g","null","NA","88","0","arctic-dual-task","","g","lowercase","404000","1","3","77f2ee51d6bfb5b969676e80982edb746d214b44287c73676e1b2bb148cfa9b5","404002","NA","NA","0","arctic","","","","",""
"dual-task","null","null","null","","arctic","arctic","798","","A","null","77","77","1","arctic-dual-task","","A","uppercase","418000","0","3","77f2ee51d6bfb5b969676e80982edb746d214b44287c73676e1b2bb148cfa9b5","418008.5","798","77","1","arctic","","","","",""
"dual-task","null","null","null","","arctic","arctic","1343.300000011921","","t","null","88","88","1","arctic-dual-task","","t","lowercase","424000","0","3","77f2ee51d6bfb5b969676e80982edb746d214b44287c73676e1b2bb148cfa9b5","424011.1999999881","1343.300000011921","88","1","arctic","","","","",""
"dual-task","null","null","null","","arctic","arctic","1240.2999999821186","","Q","null","88","77","0","arctic-dual-task","","Q","uppercase","436000","0","3","77f2ee51d6bfb5b969676e80982edb746d214b44287c73676e1b2bb148cfa9b5","436000.5","1240.2999999821186","88","0","arctic","","","","",""
"dual-task","null","null","null","","arctic","arctic","1391.9000000059605","","E","null","77","77","1","arctic-dual-task","","E","uppercase","446000","0","3","77f2ee51d6bfb5b969676e80982edb746d214b44287c73676e1b2bb148cfa9b5","446015.39999997616","1391.9000000059605","77","1","arctic","","","","",""
"dual-task","null","null","null","","arctic","arctic","NA","","E","null","NA","77","0","arctic-dual-task","","E","uppercase","452000","1","3","77f2ee51d6bfb5b969676e80982edb746d214b44287c73676e1b2bb148cfa9b5","452008.7999999821","NA","NA","0","arctic","","","","",""
"dual-task","null","null","null","","arctic","arctic","NA","","T","null","NA","77","0","arctic-dual-task","","T","uppercase","460000","1","3","77f2ee51d6bfb5b969676e80982edb746d214b44287c73676e1b2bb148cfa9b5","460010.1999999881","NA","NA","0","arctic","","","","",""
"dual-task","null","null","null","","arctic","arctic","NA","","G","null","NA","77","0","arctic-dual-task","","G","uppercase","468000","1","3","77f2ee51d6bfb5b969676e80982edb746d214b44287c73676e1b2bb148cfa9b5","468014","NA","NA","0","arctic","","","","",""
"dual-task","null","null","null","","arctic","arctic","1517.0999999940395","","A","null","88","77","0","arctic-dual-task","","A","uppercase","474000","0","3","77f2ee51d6bfb5b969676e80982edb746d214b44287c73676e1b2bb148cfa9b5","474014","1517.0999999940395","88","0","arctic","","","","",""
"dual-task","null","null","null","","arctic","arctic","926","","b","null","88","88","1","arctic-dual-task","","b","lowercase","484000","0","3","77f2ee51d6bfb5b969676e80982edb746d214b44287c73676e1b2bb148cfa9b5","484005.6999999881","926","88","1","arctic","","","","",""
"dual-task","null","null","null","","arctic","arctic","1415.0999999940395","","B","null","77","77","1","arctic-dual-task","","B","uppercase","498000","0","3","77f2ee51d6bfb5b969676e80982edb746d214b44287c73676e1b2bb148cfa9b5","498006.09999999404","1415.0999999940395","77","1","arctic","","","","",""
"dual-task","null","null","null","","arctic","arctic","NA","","B","null","NA","77","0","arctic-dual-task","","B","uppercase","504000","1","3","77f2ee51d6bfb5b969676e80982edb746d214b44287c73676e1b2bb148cfa9b5","504003.5","NA","NA","0","arctic","","","","",""
"dual-task","null","null","null","","arctic","arctic","826","","n","null","88","88","1","arctic-dual-task","","n","lowercase","512000","0","3","77f2ee51d6bfb5b969676e80982edb746d214b44287c73676e1b2bb148cfa9b5","512003.7999999821","826","88","1","arctic","","","","",""
"dual-task","null","null","null","","arctic","arctic","1128.300000011921","","D","null","77","77","1","arctic-dual-task","","D","uppercase","518000","0","3","77f2ee51d6bfb5b969676e80982edb746d214b44287c73676e1b2bb148cfa9b5","518012.2999999821","1128.300000011921","77","1","arctic","","","","",""
"dual-task","null","null","null","","arctic","arctic","1220.9000000059605","","e","null","88","88","1","arctic-dual-task","","e","lowercase","528000","0","3","77f2ee51d6bfb5b969676e80982edb746d214b44287c73676e1b2bb148cfa9b5","528014.6999999881","1220.9000000059605","88","1","arctic","","","","",""
"dual-task","null","null","null","","arctic","arctic","1555.2000000178814","","G","null","77","77","1","arctic-dual-task","","G","uppercase","536000","0","3","77f2ee51d6bfb5b969676e80982edb746d214b44287c73676e1b2bb148cfa9b5","536006.2999999821","1555.2000000178814","77","1","arctic","","","","",""
"dual-task","null","null","null","","arctic","arctic","894.9000000059605","","q","null","88","88","1","arctic-dual-task","","q","lowercase","548000","0","3","77f2ee51d6bfb5b969676e80982edb746d214b44287c73676e1b2bb148cfa9b5","548000.1999999881","894.9000000059605","88","1","arctic","","","","",""
"dual-task","null","null","null","","arctic","arctic","NA","","H","null","NA","77","0","arctic-dual-task","","H","uppercase","556000","1","3","77f2ee51d6bfb5b969676e80982edb746d214b44287c73676e1b2bb148cfa9b5","556011","NA","NA","0","arctic","","","","",""
"dual-task","null","null","null","","arctic","arctic","1302.5999999940395","","D","null","88","77","0","arctic-dual-task","","D","uppercase","568000","0","3","77f2ee51d6bfb5b969676e80982edb746d214b44287c73676e1b2bb148cfa9b5","568012","1302.5999999940395","88","0","arctic","","","","",""
"dual-task","null","null","null","","arctic","arctic","NA","","r","null","NA","88","0","arctic-dual-task","","r","lowercase","576000","1","3","77f2ee51d6bfb5b969676e80982edb746d214b44287c73676e1b2bb148cfa9b5","576000.8999999762","NA","NA","0","arctic","","","","",""
"dual-task","null","null","null","","arctic","arctic","NA","","E","null","NA","77","0","arctic-dual-task","","E","uppercase","584000","1","3","77f2ee51d6bfb5b969676e80982edb746d214b44287c73676e1b2bb148cfa9b5","584003.7999999821","NA","NA","0","arctic","","","","",""
"dual-task","null","null","null","","arctic","arctic","1217.5","","b","null","88","88","1","arctic-dual-task","","b","lowercase","592000","0","3","77f2ee51d6bfb5b969676e80982edb746d214b44287c73676e1b2bb148cfa9b5","592010.8999999762","1217.5","88","1","arctic","","","","",""
"dual-task","null","null","null","","arctic","arctic","NA","","G","null","NA","77","0","arctic-dual-task","","G","uppercase","600000","1","3","77f2ee51d6bfb5b969676e80982edb746d214b44287c73676e1b2bb148cfa9b5","600000.1999999881","NA","NA","0","arctic","","","","",""
"dual-task","null","null","null","","arctic","arctic","NA","","F","null","NA","77","0","arctic-dual-task","","F","uppercase","614000","1","3","77f2ee51d6bfb5b969676e80982edb746d214b44287c73676e1b2bb148cfa9b5","614011.8999999762","NA","NA","0","arctic","","","","",""
"dual-task","null","null","null","","arctic","arctic","NA","","E","null","NA","77","0","arctic-dual-task","","E","uppercase","622000","1","3","77f2ee51d6bfb5b969676e80982edb746d214b44287c73676e1b2bb148cfa9b5","622012.5","NA","NA","0","arctic","","","","",""
"dual-task","null","null","null","","arctic","arctic","743.4000000059605","","e","null","88","88","1","arctic-dual-task","","e","lowercase","628000","0","3","77f2ee51d6bfb5b969676e80982edb746d214b44287c73676e1b2bb148cfa9b5","628008.8999999762","743.4000000059605","88","1","arctic","","","","",""
"dual-task","null","null","null","","arctic","arctic","458.30000001192093","","T","null","77","77","1","arctic-dual-task","","T","uppercase","636000","0","3","77f2ee51d6bfb5b969676e80982edb746d214b44287c73676e1b2bb148cfa9b5","636003.8999999762","458.30000001192093","77","1","arctic","","","","",""
"dual-task","null","null","null","","arctic","arctic","1171.7000000178814","","e","null","88","88","1","arctic-dual-task","","e","lowercase","642000","0","3","77f2ee51d6bfb5b969676e80982edb746d214b44287c73676e1b2bb148cfa9b5","642003.7999999821","1171.7000000178814","88","1","arctic","","","","",""
"dual-task","null","null","null","","arctic","arctic","968.7000000178814","","D","null","77","77","1","arctic-dual-task","","D","uppercase","650000","0","3","77f2ee51d6bfb5b969676e80982edb746d214b44287c73676e1b2bb148cfa9b5","650009.7999999821","968.7000000178814","77","1","arctic","","","","",""
"dual-task","null","null","null","","arctic","arctic","NA","","h","null","NA","88","0","arctic-dual-task","","h","lowercase","662000","1","3","77f2ee51d6bfb5b969676e80982edb746d214b44287c73676e1b2bb148cfa9b5","662000.6999999881","NA","NA","0","arctic","","","","",""
"dual-task","null","null","null","","arctic","arctic","1901","","H","null","88","77","0","arctic-dual-task","","H","uppercase","668000","0","3","77f2ee51d6bfb5b969676e80982edb746d214b44287c73676e1b2bb148cfa9b5","668006.599999994","1901","88","0","arctic","","","","",""
"dual-task","null","null","null","","arctic","arctic","NA","","a","null","NA","88","0","arctic-dual-task","","a","lowercase","674000","1","3","77f2ee51d6bfb5b969676e80982edb746d214b44287c73676e1b2bb148cfa9b5","674007","NA","NA","0","arctic","","","","",""
"dual-task","null","null","null","","arctic","arctic","1684.6000000238419","","Q","null","77","77","1","arctic-dual-task","","Q","uppercase","682000","0","3","77f2ee51d6bfb5b969676e80982edb746d214b44287c73676e1b2bb148cfa9b5","682004.8999999762","1684.6000000238419","77","1","arctic","","","","",""
"dual-task","null","null","null","","arctic","arctic","NA","","n","null","NA","88","0","arctic-dual-task","","n","lowercase","696000","1","3","77f2ee51d6bfb5b969676e80982edb746d214b44287c73676e1b2bb148cfa9b5","696011.7999999821","NA","NA","0","arctic","","","","",""
"dual-task","null","null","null","","arctic","arctic","NA","","H","null","NA","77","0","arctic-dual-task","","H","uppercase","704000","1","3","77f2ee51d6bfb5b969676e80982edb746d214b44287c73676e1b2bb148cfa9b5","704009","NA","NA","0","arctic","","","","",""
"dual-task","null","null","null","","arctic","arctic","1042.4000000059605","","B","null","88","77","0","arctic-dual-task","","B","uppercase","710000","0","3","77f2ee51d6bfb5b969676e80982edb746d214b44287c73676e1b2bb148cfa9b5","710002.7999999821","1042.4000000059605","88","0","arctic","","","","",""
"dual-task","null","null","null","","arctic","arctic","NA","","e","null","NA","88","0","arctic-dual-task","","e","lowercase","722000","1","3","77f2ee51d6bfb5b969676e80982edb746d214b44287c73676e1b2bb148cfa9b5","722007.599999994","NA","NA","0","arctic","","","","",""
"dual-task","null","null","null","","arctic","arctic","1863.199999988079","","t","null","88","88","1","arctic-dual-task","","t","lowercase","730000","0","3","77f2ee51d6bfb5b969676e80982edb746d214b44287c73676e1b2bb148cfa9b5","730009.099999994","1863.199999988079","88","1","arctic","","","","",""
"dual-task","null","null","null","","arctic","arctic","1867","","q","null","88","88","1","arctic-dual-task","","q","lowercase","740000","0","3","77f2ee51d6bfb5b969676e80982edb746d214b44287c73676e1b2bb148cfa9b5","740001.099999994","1867","88","1","arctic","","","","",""
"dual-task","null","null","null","","arctic","arctic","1372.300000011921","","d","null","88","88","1","arctic-dual-task","","d","lowercase","750000","0","3","77f2ee51d6bfb5b969676e80982edb746d214b44287c73676e1b2bb148cfa9b5","750015.599999994","1372.300000011921","88","1","arctic","","","","",""
"dual-task","null","null","null","","arctic","arctic","NA","","a","null","NA","88","0","arctic-dual-task","","a","lowercase","758000","1","3","77f2ee51d6bfb5b969676e80982edb746d214b44287c73676e1b2bb148cfa9b5","758001","NA","NA","0","arctic","","","","",""
"dual-task","null","null","null","","arctic","arctic","NA","","f","null","NA","88","0","arctic-dual-task","","f","lowercase","772000","1","3","77f2ee51d6bfb5b969676e80982edb746d214b44287c73676e1b2bb148cfa9b5","772007.7999999821","NA","NA","0","arctic","","","","",""
"dual-task","null","null","null","","arctic","arctic","NA","","f","null","NA","88","0","arctic-dual-task","","f","lowercase","782000","1","3","77f2ee51d6bfb5b969676e80982edb746d214b44287c73676e1b2bb148cfa9b5","782006","NA","NA","0","arctic","","","","",""
"audio-keyboard-response","29","1023961","0.0-6.0-0.0-1.0","77f2ee51d6bfb5b969676e80982edb746d214b44287c73676e1b2bb148cfa9b5","arctic","arctic","null","","audio/story_arctic_scrambled.mp3","","null","","","","","","","","","","","","","","","","","","","",""
"html-button-response","30","1057928","0.0-6.0-0.0-2.0","77f2ee51d6bfb5b969676e80982edb746d214b44287c73676e1b2bb148cfa9b5","arctic","arctic","33965","","<p>This concludes the story. Thank you for listening.</p><p>You will now answer some questions about the content of the story.</p>","0","","","","","","","","","","","","","","","","","","","","",""
"survey-multi-choice","31","1076464","0.0-6.0-0.0-3.0-0.0","77f2ee51d6bfb5b969676e80982edb746d214b44287c73676e1b2bb148cfa9b5","arctic","arctic","18522","","<b>What is the name of the narrator&#39;s neighbour?</b>","","","","1","arctic-comprehension","","","","","","","","","","","","","{""Q0"":""Dave""}","","","",""
"survey-multi-choice","32","1080398","0.0-6.0-0.0-3.0-0.1","77f2ee51d6bfb5b969676e80982edb746d214b44287c73676e1b2bb148cfa9b5","arctic","arctic","3681","","<b>How did the dogs respond when they saw the bears?</b>","","","","0","arctic-comprehension","","","","","","","","","","","","","{""Q0"":""Ran away in shock""}","","","",""
"survey-multi-choice","33","1130580","0.0-6.0-0.0-3.0-0.2","77f2ee51d6bfb5b969676e80982edb746d214b44287c73676e1b2bb148cfa9b5","arctic","arctic","49929","","<b>What was the objective of the narrator&#39;s expedition?</b>","","","","1","arctic-comprehension","","","","","","","","","","","","","{""Q0"":""Dogsled across Arctic America""}","","","",""
"survey-multi-choice","34","1180552","0.0-6.0-0.0-3.0-0.3","77f2ee51d6bfb5b969676e80982edb746d214b44287c73676e1b2bb148cfa9b5","arctic","arctic","49719","","<b>How did the narrator&#39;s encounter with the polar bears end?</b>","","","","0","arctic-comprehension","","","","","","","","","","","","","{""Q0"":""She shot the bear with her shotgun.""}","","","",""
"survey-multi-choice","35","1193734","0.0-6.0-0.0-3.0-0.4","77f2ee51d6bfb5b969676e80982edb746d214b44287c73676e1b2bb148cfa9b5","arctic","arctic","12917","","<b>What were the weather conditions in the Arctic like the winter of the narrator&#39;s expedition?</b>","","","","0","arctic-comprehension","","","","","","","","","","","","","{""Q0"":""There were fewer storms than any other winter in recorded history.""}","","","",""
"survey-multi-choice","36","1200213","0.0-6.0-0.0-3.0-0.5","77f2ee51d6bfb5b969676e80982edb746d214b44287c73676e1b2bb148cfa9b5","arctic","arctic","6226","","<b>Which dog on the narrator&#39;s dog team never followed instructions?</b>","","","","1","arctic-comprehension","","","","","","","","","","","","","{""Q0"":""Robert""}","","","",""
"survey-multi-choice","37","1209324","0.0-6.0-0.0-3.0-0.6","77f2ee51d6bfb5b969676e80982edb746d214b44287c73676e1b2bb148cfa9b5","arctic","arctic","8859","","<b>How many sponsorships did the narrator receive to support her expedition?</b>","","","","0","arctic-comprehension","","","","","","","","","","","","","{""Q0"":""Fifty""}","","","",""
"survey-multi-choice","38","1217220","0.0-6.0-0.0-3.0-0.7","77f2ee51d6bfb5b969676e80982edb746d214b44287c73676e1b2bb148cfa9b5","arctic","arctic","7643","","<b>What did the narrator do for leisure while in her tent?</b>","","","","1","arctic-comprehension","","","","","","","","","","","","","{""Q0"":""Read""}","","","",""
"survey-multi-choice","39","1218912","0.0-6.0-0.0-3.0-0.8","77f2ee51d6bfb5b969676e80982edb746d214b44287c73676e1b2bb148cfa9b5","arctic","arctic","1439","","<b>How did the narrator&#39;s neighbour respond when she told him about her expedition?</b>","","","","0","arctic-comprehension","","","","","","","","","","","","","{""Q0"":""He said he was worried about her.""}","","","",""
"survey-multi-choice","40","1222714","0.0-6.0-0.0-3.0-0.9","77f2ee51d6bfb5b969676e80982edb746d214b44287c73676e1b2bb148cfa9b5","arctic","arctic","3549","","<b>How did the narrator prepare for her expedition?</b>","","","","1","arctic-comprehension","","","","","","","","","","","","","{""Q0"":""Trained in Alaska learning how to dogsled""}","","","",""
"html-button-response","41","1224204","0.0-6.0-0.0-4.0","77f2ee51d6bfb5b969676e80982edb746d214b44287c73676e1b2bb148cfa9b5","arctic","arctic","1238","","<p>Thank you for your responses.</p><p>You will now answer some questions about your impressions of the story.</p>","0","","","","","","","","","","","","","","","","","","","","",""
"html-button-response","42","1225848","0.0-6.0-0.0-5.0-0.0","77f2ee51d6bfb5b969676e80982edb746d214b44287c73676e1b2bb148cfa9b5","arctic","arctic","1644","","EE4","5","","","","arctic-engagement","","","","","","","","","","","","","","6","emo-engage","",""
"html-button-response","43","1229854","0.0-6.0-0.0-5.0-0.1","77f2ee51d6bfb5b969676e80982edb746d214b44287c73676e1b2bb148cfa9b5","arctic","arctic","3743","","EE1","5","","","","arctic-engagement","","","","","","","","","","","","","","6","emo-engage","",""
"html-button-response","44","1230462","0.0-6.0-0.0-5.0-0.2","77f2ee51d6bfb5b969676e80982edb746d214b44287c73676e1b2bb148cfa9b5","arctic","arctic","356","","A5","4","","","","arctic-engagement","","","","","","","","","","","","","","5","absorption","",""
"html-button-response","45","1231810","0.0-6.0-0.0-5.0-0.3","77f2ee51d6bfb5b969676e80982edb746d214b44287c73676e1b2bb148cfa9b5","arctic","arctic","1096","","EE2","5","","","","arctic-engagement","","","","","","","","","","","","","","6","emo-engage","",""
"html-button-response","46","1232334","0.0-6.0-0.0-5.0-0.4","77f2ee51d6bfb5b969676e80982edb746d214b44287c73676e1b2bb148cfa9b5","arctic","arctic","272","","E8","5","","","","arctic-engagement","","","","","","","","","","","","","","6","enjoyment","",""
"html-button-response","47","1232926","0.0-6.0-0.0-5.0-0.5","77f2ee51d6bfb5b969676e80982edb746d214b44287c73676e1b2bb148cfa9b5","arctic","arctic","340","","MS1","4","","","","arctic-engagement","","","","","","","","","","","","","","5","mental-sim","",""
"html-button-response","48","1233410","0.0-6.0-0.0-5.0-0.6","77f2ee51d6bfb5b969676e80982edb746d214b44287c73676e1b2bb148cfa9b5","arctic","arctic","232","","E10","6","","","","arctic-engagement","","","","","","","","","","","","","","7","enjoyment","",""
"html-button-response","49","1234100","0.0-6.0-0.0-5.0-0.7","77f2ee51d6bfb5b969676e80982edb746d214b44287c73676e1b2bb148cfa9b5","arctic","arctic","435","","MS2","5","","","","arctic-engagement","","","","","","","","","","","","","","6","mental-sim","",""
"html-button-response","50","1235092","0.0-6.0-0.0-5.0-0.8","77f2ee51d6bfb5b969676e80982edb746d214b44287c73676e1b2bb148cfa9b5","arctic","arctic","740","","E1","6","","","","arctic-engagement","","","","","","","","","","","","","","7","enjoyment","",""
"html-button-response","51","1235628","0.0-6.0-0.0-5.0-0.9","77f2ee51d6bfb5b969676e80982edb746d214b44287c73676e1b2bb148cfa9b5","arctic","arctic","269","","EE3","6","","","","arctic-engagement","","","","","","","","","","","","","","7","emo-engage","",""
"html-button-response","52","1236624","0.0-6.0-0.0-5.0-0.10","77f2ee51d6bfb5b969676e80982edb746d214b44287c73676e1b2bb148cfa9b5","arctic","arctic","743","","A4","4","","","","arctic-engagement","","","","","","","","","","","","","","5","absorption","",""
"html-button-response","53","1237224","0.0-6.0-0.0-5.0-0.11","77f2ee51d6bfb5b969676e80982edb746d214b44287c73676e1b2bb148cfa9b5","arctic","arctic","339","","A3","5","","","","arctic-engagement","","","","","","","","","","","","","","6","absorption","",""
"html-button-response","54","1238168","0.0-6.0-0.0-5.0-0.12","77f2ee51d6bfb5b969676e80982edb746d214b44287c73676e1b2bb148cfa9b5","arctic","arctic","692","","A2","4","","","","arctic-engagement","","","","","","","","","","","","","","5","absorption","",""
"html-button-response","55","1238698","0.0-6.0-0.0-5.0-0.13","77f2ee51d6bfb5b969676e80982edb746d214b44287c73676e1b2bb148cfa9b5","arctic","arctic","274","","A1","4","","","","arctic-engagement","","","","","","","","","","","","","","5","absorption","",""
"html-button-response","56","1239178","0.0-6.0-0.0-5.0-0.14","77f2ee51d6bfb5b969676e80982edb746d214b44287c73676e1b2bb148cfa9b5","arctic","arctic","228","","EE5","6","","","","arctic-engagement","","","","","","","","","","","","","","7","emo-engage","",""
"html-button-response","57","1239734","0.0-6.0-0.0-5.0-0.15","77f2ee51d6bfb5b969676e80982edb746d214b44287c73676e1b2bb148cfa9b5","arctic","arctic","303","","E6","6","","","","arctic-engagement","","","","","","","","","","","","","","7","enjoyment","",""
"html-button-response","58","1240234","0.0-6.0-0.0-5.0-0.16","77f2ee51d6bfb5b969676e80982edb746d214b44287c73676e1b2bb148cfa9b5","arctic","arctic","248","","E7","5","","","","arctic-engagement","","","","","","","","","","","","","","6","enjoyment","",""
"html-button-response","59","1240702","0.0-6.0-0.0-5.0-0.17","77f2ee51d6bfb5b969676e80982edb746d214b44287c73676e1b2bb148cfa9b5","arctic","arctic","216","","MS3","5","","","","arctic-engagement","","","","","","","","","","","","","","6","mental-sim","",""
"html-keyboard-response","60","1251990","0.0-6.0-1.0","77f2ee51d6bfb5b969676e80982edb746d214b44287c73676e1b2bb148cfa9b5","arctic","arctic","11033","","<p>Thank you for your responses. You will now listen to the second story.</p><p>Remember, as you listen to the story you will see letters appear on the screen.</br>As quickly as possible, press <b>&lt;x&gt;</b> if the letter is lowercase and <b>&lt;m&gt;</b> if the letter is uppercase.</p><p>Press <b>&lt;x&gt;</b> or <b>&lt;m&gt;</b> to begin listening!</p>","","88","","","","","","","","","","","","","","","","","","","",""
"html-keyboard-response","61","1252491","0.0-6.0-2.0-0.0","77f2ee51d6bfb5b969676e80982edb746d214b44287c73676e1b2bb148cfa9b5","arctic","arctic","null","","<div style=""font-size:60px;"" tabindex=""0"">+</div>","","null","","","","","","","","","","","","","","","","","","","",""
"dual-task","null","null","null","","arctic","arctic","1297.7999999821186","","h","null","88","88","1","swim-dual-task","","h","lowercase","14000","0","3","77f2ee51d6bfb5b969676e80982edb746d214b44287c73676e1b2bb148cfa9b5","14011.90000000596","1297.7999999821186","88","1","swim","","","","",""
"dual-task","null","null","null","","arctic","arctic","NA","","n","null","NA","88","0","swim-dual-task","","n","lowercase","20000","1","3","77f2ee51d6bfb5b969676e80982edb746d214b44287c73676e1b2bb148cfa9b5","20008.90000000596","NA","NA","0","swim","","","","",""
"dual-task","null","null","null","","arctic","arctic","NA","","Q","null","NA","77","0","swim-dual-task","","Q","uppercase","32000","1","3","77f2ee51d6bfb5b969676e80982edb746d214b44287c73676e1b2bb148cfa9b5","32008.29999998212","NA","NA","0","swim","","","","",""
"dual-task","null","null","null","","arctic","arctic","1945.9000000059605","","n","null","88","88","1","swim-dual-task","","n","lowercase","44000","0","3","77f2ee51d6bfb5b969676e80982edb746d214b44287c73676e1b2bb148cfa9b5","44003.19999998808","1945.9000000059605","88","1","swim","","","","",""
"dual-task","null","null","null","","arctic","arctic","NA","","f","null","NA","88","0","swim-dual-task","","f","lowercase","56000","1","3","77f2ee51d6bfb5b969676e80982edb746d214b44287c73676e1b2bb148cfa9b5","56013.79999998212","NA","NA","0","swim","","","","",""
"dual-task","null","null","null","","arctic","arctic","NA","","T","null","NA","77","0","swim-dual-task","","T","uppercase","66000","1","3","77f2ee51d6bfb5b969676e80982edb746d214b44287c73676e1b2bb148cfa9b5","65999.5","NA","NA","0","swim","","","","",""
"dual-task","null","null","null","","arctic","arctic","1393.8999999761581","","F","null","88","77","0","swim-dual-task","","F","uppercase","80000","0","3","77f2ee51d6bfb5b969676e80982edb746d214b44287c73676e1b2bb148cfa9b5","80000.90000000596","1393.8999999761581","88","0","swim","","","","",""
"dual-task","null","null","null","","arctic","arctic","NA","","B","null","NA","77","0","swim-dual-task","","B","uppercase","88000","1","3","77f2ee51d6bfb5b969676e80982edb746d214b44287c73676e1b2bb148cfa9b5","88014.79999998212","NA","NA","0","swim","","","","",""
"dual-task","null","null","null","","arctic","arctic","NA","","d","null","NA","88","0","swim-dual-task","","d","lowercase","96000","1","3","77f2ee51d6bfb5b969676e80982edb746d214b44287c73676e1b2bb148cfa9b5","96001.69999998808","NA","NA","0","swim","","","","",""
"dual-task","null","null","null","","arctic","arctic","NA","","g","null","NA","88","0","swim-dual-task","","g","lowercase","106000","1","3","77f2ee51d6bfb5b969676e80982edb746d214b44287c73676e1b2bb148cfa9b5","106007.40000000596","NA","NA","0","swim","","","","",""
"dual-task","null","null","null","","arctic","arctic","NA","","d","null","NA","88","0","swim-dual-task","","d","lowercase","112000","1","3","77f2ee51d6bfb5b969676e80982edb746d214b44287c73676e1b2bb148cfa9b5","112000","NA","NA","0","swim","","","","",""
"dual-task","null","null","null","","arctic","arctic","NA","","A","null","NA","77","0","swim-dual-task","","A","uppercase","120000","1","3","77f2ee51d6bfb5b969676e80982edb746d214b44287c73676e1b2bb148cfa9b5","120000","NA","NA","0","swim","","","","",""
"dual-task","null","null","null","","arctic","arctic","1124.0999999940395","","A","null","77","77","1","swim-dual-task","","A","uppercase","134000","0","3","77f2ee51d6bfb5b969676e80982edb746d214b44287c73676e1b2bb148cfa9b5","134003.5","1124.0999999940395","77","1","swim","","","","",""
"dual-task","null","null","null","","arctic","arctic","1046.800000011921","","h","null","88","88","1","swim-dual-task","","h","lowercase","144000","0","3","77f2ee51d6bfb5b969676e80982edb746d214b44287c73676e1b2bb148cfa9b5","144000.09999999404","1046.800000011921","88","1","swim","","","","",""
"dual-task","null","null","null","","arctic","arctic","1217.199999988079","","G","null","77","77","1","swim-dual-task","","G","uppercase","152000","0","3","77f2ee51d6bfb5b969676e80982edb746d214b44287c73676e1b2bb148cfa9b5","152010.40000000596","1217.199999988079","77","1","swim","","","","",""
"dual-task","null","null","null","","arctic","arctic","1164","","f","null","88","88","1","swim-dual-task","","f","lowercase","164000","0","3","77f2ee51d6bfb5b969676e80982edb746d214b44287c73676e1b2bb148cfa9b5","164015.90000000596","1164","88","1","swim","","","","",""
"dual-task","null","null","null","","arctic","arctic","NA","","t","null","NA","88","0","swim-dual-task","","t","lowercase","176000","1","3","77f2ee51d6bfb5b969676e80982edb746d214b44287c73676e1b2bb148cfa9b5","176014.79999998212","NA","NA","0","swim","","","","",""
"dual-task","null","null","null","","arctic","arctic","436.5","","d","null","88","88","1","swim-dual-task","","d","lowercase","188000","0","3","77f2ee51d6bfb5b969676e80982edb746d214b44287c73676e1b2bb148cfa9b5","187999.59999999404","436.5","88","1","swim","","","","",""
"dual-task","null","null","null","","arctic","arctic","1492.0999999940395","","D","null","77","77","1","swim-dual-task","","D","uppercase","198000","0","3","77f2ee51d6bfb5b969676e80982edb746d214b44287c73676e1b2bb148cfa9b5","198002.40000000596","1492.0999999940395","77","1","swim","","","","",""
"dual-task","null","null","null","","arctic","arctic","584.8000000119209","","q","null","88","88","1","swim-dual-task","","q","lowercase","208000","0","3","77f2ee51d6bfb5b969676e80982edb746d214b44287c73676e1b2bb148cfa9b5","208004.69999998808","584.8000000119209","88","1","swim","","","","",""
"dual-task","null","null","null","","arctic","arctic","1580.300000011921","","N","null","77","77","1","swim-dual-task","","N","uppercase","218000","0","3","77f2ee51d6bfb5b969676e80982edb746d214b44287c73676e1b2bb148cfa9b5","218010.69999998808","1580.300000011921","77","1","swim","","","","",""
"dual-task","null","null","null","","arctic","arctic","NA","","B","null","NA","77","0","swim-dual-task","","B","uppercase","228000","1","3","77f2ee51d6bfb5b969676e80982edb746d214b44287c73676e1b2bb148cfa9b5","228000.5","NA","NA","0","swim","","","","",""
"dual-task","null","null","null","","arctic","arctic","1071","","R","null","77","77","1","swim-dual-task","","R","uppercase","240000","0","3","77f2ee51d6bfb5b969676e80982edb746d214b44287c73676e1b2bb148cfa9b5","240005.90000000596","1071","77","1","swim","","","","",""
"dual-task","null","null","null","","arctic","arctic","NA","","t","null","NA","88","0","swim-dual-task","","t","lowercase","252000","1","3","77f2ee51d6bfb5b969676e80982edb746d214b44287c73676e1b2bb148cfa9b5","252011.79999998212","NA","NA","0","swim","","","","",""
"dual-task","null","null","null","","arctic","arctic","711","","F","null","77","77","1","swim-dual-task","","F","uppercase","260000","0","3","77f2ee51d6bfb5b969676e80982edb746d214b44287c73676e1b2bb148cfa9b5","260001.29999998212","711","77","1","swim","","","","",""
"dual-task","null","null","null","","arctic","arctic","1477.5999999940395","","A","null","77","77","1","swim-dual-task","","A","uppercase","274000","0","3","77f2ee51d6bfb5b969676e80982edb746d214b44287c73676e1b2bb148cfa9b5","274016.1999999881","1477.5999999940395","77","1","swim","","","","",""
"dual-task","null","null","null","","arctic","arctic","494.19999998807907","","a","null","88","88","1","swim-dual-task","","a","lowercase","284000","0","3","77f2ee51d6bfb5b969676e80982edb746d214b44287c73676e1b2bb148cfa9b5","284013.59999999404","494.19999998807907","88","1","swim","","","","",""
"dual-task","null","null","null","","arctic","arctic","NA","","a","null","NA","88","0","swim-dual-task","","a","lowercase","296000","1","3","77f2ee51d6bfb5b969676e80982edb746d214b44287c73676e1b2bb148cfa9b5","296006","NA","NA","0","swim","","","","",""
"dual-task","null","null","null","","arctic","arctic","656.5","","b","null","88","88","1","swim-dual-task","","b","lowercase","310000","0","3","77f2ee51d6bfb5b969676e80982edb746d214b44287c73676e1b2bb148cfa9b5","310009.09999999404","656.5","88","1","swim","","","","",""
"dual-task","null","null","null","","arctic","arctic","894.1999999880791","","B","null","77","77","1","swim-dual-task","","B","uppercase","318000","0","3","77f2ee51d6bfb5b969676e80982edb746d214b44287c73676e1b2bb148cfa9b5","318001.09999999404","894.1999999880791","77","1","swim","","","","",""
"dual-task","null","null","null","","arctic","arctic","724.5","","q","null","88","88","1","swim-dual-task","","q","lowercase","328000","0","3","77f2ee51d6bfb5b969676e80982edb746d214b44287c73676e1b2bb148cfa9b5","328000","724.5","88","1","swim","","","","",""
"dual-task","null","null","null","","arctic","arctic","702.0999999940395","","f","null","88","88","1","swim-dual-task","","f","lowercase","334000","0","3","77f2ee51d6bfb5b969676e80982edb746d214b44287c73676e1b2bb148cfa9b5","334011.40000000596","702.0999999940395","88","1","swim","","","","",""
"dual-task","null","null","null","","arctic","arctic","571.1000000238419","","e","null","88","88","1","swim-dual-task","","e","lowercase","344000","0","3","77f2ee51d6bfb5b969676e80982edb746d214b44287c73676e1b2bb148cfa9b5","344008.6999999881","571.1000000238419","88","1","swim","","","","",""
"dual-task","null","null","null","","arctic","arctic","572.3000000119209","","b","null","88","88","1","swim-dual-task","","b","lowercase","352000","0","3","77f2ee51d6bfb5b969676e80982edb746d214b44287c73676e1b2bb148cfa9b5","352012.09999999404","572.3000000119209","88","1","swim","","","","",""
"dual-task","null","null","null","","arctic","arctic","119.19999998807907","","F","null","88","77","0","swim-dual-task","","F","uppercase","366000","0","3","77f2ee51d6bfb5b969676e80982edb746d214b44287c73676e1b2bb148cfa9b5","366013.5","119.19999998807907","88","0","swim","","","","",""
"dual-task","null","null","null","","arctic","arctic","630.4000000059605","","E","null","77","77","1","swim-dual-task","","E","uppercase","374000","0","3","77f2ee51d6bfb5b969676e80982edb746d214b44287c73676e1b2bb148cfa9b5","374001.5","630.4000000059605","77","1","swim","","","","",""
"dual-task","null","null","null","","arctic","arctic","545.7999999821186","","H","null","77","77","1","swim-dual-task","","H","uppercase","382000","0","3","77f2ee51d6bfb5b969676e80982edb746d214b44287c73676e1b2bb148cfa9b5","382005.7999999821","545.7999999821186","77","1","swim","","","","",""
"dual-task","null","null","null","","arctic","arctic","1650.0999999940395","","t","null","88","88","1","swim-dual-task","","t","lowercase","392000","0","3","77f2ee51d6bfb5b969676e80982edb746d214b44287c73676e1b2bb148cfa9b5","392007.59999999404","1650.0999999940395","88","1","swim","","","","",""
"dual-task","null","null","null","","arctic","arctic","NA","","e","null","NA","88","0","swim-dual-task","","e","lowercase","400000","1","3","77f2ee51d6bfb5b969676e80982edb746d214b44287c73676e1b2bb148cfa9b5","400000.5","NA","NA","0","swim","","","","",""
"dual-task","null","null","null","","arctic","arctic","1803.8999999761581","","t","null","88","88","1","swim-dual-task","","t","lowercase","414000","0","3","77f2ee51d6bfb5b969676e80982edb746d214b44287c73676e1b2bb148cfa9b5","414012.90000000596","1803.8999999761581","88","1","swim","","","","",""
"dual-task","null","null","null","","arctic","arctic","451.7999999821186","","T","null","77","77","1","swim-dual-task","","T","uppercase","424000","0","3","77f2ee51d6bfb5b969676e80982edb746d214b44287c73676e1b2bb148cfa9b5","424014.5","451.7999999821186","77","1","swim","","","","",""
"dual-task","null","null","null","","arctic","arctic","658.2000000178814","","N","null","77","77","1","swim-dual-task","","N","uppercase","434000","0","3","77f2ee51d6bfb5b969676e80982edb746d214b44287c73676e1b2bb148cfa9b5","434001.2999999821","658.2000000178814","77","1","swim","","","","",""
"dual-task","null","null","null","","arctic","arctic","893.6000000238419","","b","null","88","88","1","swim-dual-task","","b","lowercase","446000","0","3","77f2ee51d6bfb5b969676e80982edb746d214b44287c73676e1b2bb148cfa9b5","446015.7999999821","893.6000000238419","88","1","swim","","","","",""
"dual-task","null","null","null","","arctic","arctic","559.6999999880791","","a","null","88","88","1","swim-dual-task","","a","lowercase","456000","0","3","77f2ee51d6bfb5b969676e80982edb746d214b44287c73676e1b2bb148cfa9b5","456011.40000000596","559.6999999880791","88","1","swim","","","","",""
"dual-task","null","null","null","","arctic","arctic","589.7999999821186","","f","null","88","88","1","swim-dual-task","","f","lowercase","466000","0","3","77f2ee51d6bfb5b969676e80982edb746d214b44287c73676e1b2bb148cfa9b5","466011.40000000596","589.7999999821186","88","1","swim","","","","",""
"dual-task","null","null","null","","arctic","arctic","553.5999999940395","","a","null","88","88","1","swim-dual-task","","a","lowercase","478000","0","3","77f2ee51d6bfb5b969676e80982edb746d214b44287c73676e1b2bb148cfa9b5","478003","553.5999999940395","88","1","swim","","","","",""
"dual-task","null","null","null","","arctic","arctic","583.5999999940395","","R","null","77","77","1","swim-dual-task","","R","uppercase","488000","0","3","77f2ee51d6bfb5b969676e80982edb746d214b44287c73676e1b2bb148cfa9b5","488001.59999999404","583.5999999940395","77","1","swim","","","","",""
"dual-task","null","null","null","","arctic","arctic","581.8000000119209","","Q","null","88","77","0","swim-dual-task","","Q","uppercase","498000","0","3","77f2ee51d6bfb5b969676e80982edb746d214b44287c73676e1b2bb148cfa9b5","498010.1999999881","581.8000000119209","88","0","swim","","","","",""
"dual-task","null","null","null","","arctic","arctic","676.1999999880791","","H","null","77","77","1","swim-dual-task","","H","uppercase","512000","0","3","77f2ee51d6bfb5b969676e80982edb746d214b44287c73676e1b2bb148cfa9b5","512002.09999999404","676.1999999880791","77","1","swim","","","","",""
"dual-task","null","null","null","","arctic","arctic","515.9000000059605","","H","null","77","77","1","swim-dual-task","","H","uppercase","518000","0","3","77f2ee51d6bfb5b969676e80982edb746d214b44287c73676e1b2bb148cfa9b5","518009.1999999881","515.9000000059605","77","1","swim","","","","",""
"dual-task","null","null","null","","arctic","arctic","820","","D","null","77","77","1","swim-dual-task","","D","uppercase","524000","0","3","77f2ee51d6bfb5b969676e80982edb746d214b44287c73676e1b2bb148cfa9b5","524014.5","820","77","1","swim","","","","",""
"dual-task","null","null","null","","arctic","arctic","485","","G","null","77","77","1","swim-dual-task","","G","uppercase","536000","0","3","77f2ee51d6bfb5b969676e80982edb746d214b44287c73676e1b2bb148cfa9b5","536002.5","485","77","1","swim","","","","",""
"dual-task","null","null","null","","arctic","arctic","626.5999999940395","","r","null","88","88","1","swim-dual-task","","r","lowercase","550000","0","3","77f2ee51d6bfb5b969676e80982edb746d214b44287c73676e1b2bb148cfa9b5","550009.1999999881","626.5999999940395","88","1","swim","","","","",""
"dual-task","null","null","null","","arctic","arctic","629.5","","g","null","77","88","0","swim-dual-task","","g","lowercase","556000","0","3","77f2ee51d6bfb5b969676e80982edb746d214b44287c73676e1b2bb148cfa9b5","556009.099999994","629.5","77","0","swim","","","","",""
"dual-task","null","null","null","","arctic","arctic","1356.699999988079","","r","null","88","88","1","swim-dual-task","","r","lowercase","562000","0","3","77f2ee51d6bfb5b969676e80982edb746d214b44287c73676e1b2bb148cfa9b5","562000.099999994","1356.699999988079","88","1","swim","","","","",""
"dual-task","null","null","null","","arctic","arctic","NA","","r","null","NA","88","0","swim-dual-task","","r","lowercase","568000","1","3","77f2ee51d6bfb5b969676e80982edb746d214b44287c73676e1b2bb148cfa9b5","568005.6999999881","NA","NA","0","swim","","","","",""
"dual-task","null","null","null","","arctic","arctic","851.6999999880791","","Q","null","77","77","1","swim-dual-task","","Q","uppercase","580000","0","3","77f2ee51d6bfb5b969676e80982edb746d214b44287c73676e1b2bb148cfa9b5","580010.099999994","851.6999999880791","77","1","swim","","","","",""
"dual-task","null","null","null","","arctic","arctic","764.0999999940395","","n","null","88","88","1","swim-dual-task","","n","lowercase","590000","0","3","77f2ee51d6bfb5b969676e80982edb746d214b44287c73676e1b2bb148cfa9b5","590005.5","764.0999999940395","88","1","swim","","","","",""
"dual-task","null","null","null","","arctic","arctic","634.3000000119209","","g","null","88","88","1","swim-dual-task","","g","lowercase","604000","0","3","77f2ee51d6bfb5b969676e80982edb746d214b44287c73676e1b2bb148cfa9b5","604001.099999994","634.3000000119209","88","1","swim","","","","",""
"dual-task","null","null","null","","arctic","arctic","639.0999999940395","","n","null","88","88","1","swim-dual-task","","n","lowercase","614000","0","3","77f2ee51d6bfb5b969676e80982edb746d214b44287c73676e1b2bb148cfa9b5","614010","639.0999999940395","88","1","swim","","","","",""
"dual-task","null","null","null","","arctic","arctic","659.5","","g","null","88","88","1","swim-dual-task","","g","lowercase","624000","0","3","77f2ee51d6bfb5b969676e80982edb746d214b44287c73676e1b2bb148cfa9b5","624001","659.5","88","1","swim","","","","",""
"dual-task","null","null","null","","arctic","arctic","924","","N","null","77","77","1","swim-dual-task","","N","uppercase","632000","0","3","77f2ee51d6bfb5b969676e80982edb746d214b44287c73676e1b2bb148cfa9b5","632008.900000006","924","77","1","swim","","","","",""
"dual-task","null","null","null","","arctic","arctic","932.3000000119209","","Q","null","77","77","1","swim-dual-task","","Q","uppercase","642000","0","3","77f2ee51d6bfb5b969676e80982edb746d214b44287c73676e1b2bb148cfa9b5","642015.7999999821","932.3000000119209","77","1","swim","","","","",""
"dual-task","null","null","null","","arctic","arctic","650.6999999880791","","T","null","77","77","1","swim-dual-task","","T","uppercase","648000","0","3","77f2ee51d6bfb5b969676e80982edb746d214b44287c73676e1b2bb148cfa9b5","648015.400000006","650.6999999880791","77","1","swim","","","","",""
"dual-task","null","null","null","","arctic","arctic","838.8000000119209","","h","null","88","88","1","swim-dual-task","","h","lowercase","660000","0","3","77f2ee51d6bfb5b969676e80982edb746d214b44287c73676e1b2bb148cfa9b5","660000.2999999821","838.8000000119209","88","1","swim","","","","",""
"dual-task","null","null","null","","arctic","arctic","572.0999999940395","","D","null","77","77","1","swim-dual-task","","D","uppercase","670000","0","3","77f2ee51d6bfb5b969676e80982edb746d214b44287c73676e1b2bb148cfa9b5","670004.1999999881","572.0999999940395","77","1","swim","","","","",""
"dual-task","null","null","null","","arctic","arctic","800.5999999940395","","F","null","77","77","1","swim-dual-task","","F","uppercase","680000","0","3","77f2ee51d6bfb5b969676e80982edb746d214b44287c73676e1b2bb148cfa9b5","680015.6999999881","800.5999999940395","77","1","swim","","","","",""
"dual-task","null","null","null","","arctic","arctic","745.0999999940395","","q","null","88","88","1","swim-dual-task","","q","lowercase","692000","0","3","77f2ee51d6bfb5b969676e80982edb746d214b44287c73676e1b2bb148cfa9b5","692005.5","745.0999999940395","88","1","swim","","","","",""
"dual-task","null","null","null","","arctic","arctic","513.1000000238419","","T","null","77","77","1","swim-dual-task","","T","uppercase","702000","0","3","77f2ee51d6bfb5b969676e80982edb746d214b44287c73676e1b2bb148cfa9b5","702015.7999999821","513.1000000238419","77","1","swim","","","","",""
"dual-task","null","null","null","","arctic","arctic","1195.7000000178814","","h","null","88","88","1","swim-dual-task","","h","lowercase","710000","0","3","77f2ee51d6bfb5b969676e80982edb746d214b44287c73676e1b2bb148cfa9b5","710002.1999999881","1195.7000000178814","88","1","swim","","","","",""
"dual-task","null","null","null","","arctic","arctic","1163.4000000059605","","G","null","77","77","1","swim-dual-task","","G","uppercase","718000","0","3","77f2ee51d6bfb5b969676e80982edb746d214b44287c73676e1b2bb148cfa9b5","718004.099999994","1163.4000000059605","77","1","swim","","","","",""
"dual-task","null","null","null","","arctic","arctic","568.7999999821186","","b","null","88","88","1","swim-dual-task","","b","lowercase","730000","0","3","77f2ee51d6bfb5b969676e80982edb746d214b44287c73676e1b2bb148cfa9b5","730012","568.7999999821186","88","1","swim","","","","",""
"dual-task","null","null","null","","arctic","arctic","601","","d","null","88","88","1","swim-dual-task","","d","lowercase","742000","0","3","77f2ee51d6bfb5b969676e80982edb746d214b44287c73676e1b2bb148cfa9b5","742000.900000006","601","88","1","swim","","","","",""
"dual-task","null","null","null","","arctic","arctic","499.59999999403954","","G","null","77","77","1","swim-dual-task","","G","uppercase","748000","0","3","77f2ee51d6bfb5b969676e80982edb746d214b44287c73676e1b2bb148cfa9b5","748001.7999999821","499.59999999403954","77","1","swim","","","","",""
"dual-task","null","null","null","","arctic","arctic","601.8000000119209","","e","null","88","88","1","swim-dual-task","","e","lowercase","762000","0","3","77f2ee51d6bfb5b969676e80982edb746d214b44287c73676e1b2bb148cfa9b5","762004.099999994","601.8000000119209","88","1","swim","","","","",""
"dual-task","null","null","null","","arctic","arctic","979.4000000059605","","E","null","77","77","1","swim-dual-task","","E","uppercase","772000","0","3","77f2ee51d6bfb5b969676e80982edb746d214b44287c73676e1b2bb148cfa9b5","772010.1999999881","979.4000000059605","77","1","swim","","","","",""
"dual-task","null","null","null","","arctic","arctic","525.6999999880791","","R","null","77","77","1","swim-dual-task","","R","uppercase","784000","0","3","77f2ee51d6bfb5b969676e80982edb746d214b44287c73676e1b2bb148cfa9b5","784007.900000006","525.6999999880791","77","1","swim","","","","",""
"dual-task","null","null","null","","arctic","arctic","726.4000000059605","","H","null","77","77","1","swim-dual-task","","H","uppercase","792000","0","3","77f2ee51d6bfb5b969676e80982edb746d214b44287c73676e1b2bb148cfa9b5","792003.099999994","726.4000000059605","77","1","swim","","","","",""
"audio-keyboard-response","62","2062567","0.0-6.0-2.0-1.0","77f2ee51d6bfb5b969676e80982edb746d214b44287c73676e1b2bb148cfa9b5","arctic","arctic","null","","audio/story_swim.mp3","","null","","","","","","","","","","","","","","","","","","","",""
"html-button-response","63","2065073","0.0-6.0-2.0-2.0","77f2ee51d6bfb5b969676e80982edb746d214b44287c73676e1b2bb148cfa9b5","arctic","arctic","2505","","<p>This concludes the story. Thank you for listening.</p><p>You will now answer some questions about the content of the story.</p>","0","","","","","","","","","","","","","","","","","","","","",""
"survey-multi-choice","64","2074141","0.0-6.0-2.0-3.0-0.0","77f2ee51d6bfb5b969676e80982edb746d214b44287c73676e1b2bb148cfa9b5","arctic","arctic","9066","","<b>What were the astronaut candidates trained to do at the naval air station?</b>","","","","1","swim-comprehension","","","","","","","","","","","","","{""Q0"":""Eject out of aircraft and survive in water long enough to be rescued""}","","","",""
"survey-multi-choice","65","2082365","0.0-6.0-2.0-3.0-0.1","77f2ee51d6bfb5b969676e80982edb746d214b44287c73676e1b2bb148cfa9b5","arctic","arctic","7971","","<b>What was the final step of the first swim test in the pool?</b>","","","","0","swim-comprehension","","","","","","","","","","","","","{""Q0"":""Swim three laps of the pool underwater""}","","","",""
"survey-multi-choice","66","2087843","0.0-6.0-2.0-3.0-0.2","77f2ee51d6bfb5b969676e80982edb746d214b44287c73676e1b2bb148cfa9b5","arctic","arctic","5225","","<b>How did the narrator train for his swim test?</b>","","","","0","swim-comprehension","","","","","","","","","","","","","{""Q0"":""Swam at the lake every day""}","","","",""
"survey-multi-choice","67","2091653","0.0-6.0-2.0-3.0-0.3","77f2ee51d6bfb5b969676e80982edb746d214b44287c73676e1b2bb148cfa9b5","arctic","arctic","3557","","<b>How many astronaut candidates reported for duty at the Johnson Space Center?</b>","","","","0","swim-comprehension","","","","","","","","","","","","","{""Q0"":""One hundred""}","","","",""
"survey-multi-choice","68","2094359","0.0-6.0-2.0-3.0-0.4","77f2ee51d6bfb5b969676e80982edb746d214b44287c73676e1b2bb148cfa9b5","arctic","arctic","2454","","<b>Where is the home of naval aviation?</b>","","","","1","swim-comprehension","","","","","","","","","","","","","{""Q0"":""Pensacola""}","","","",""
"survey-multi-choice","69","2097991","0.0-6.0-2.0-3.0-0.5","77f2ee51d6bfb5b969676e80982edb746d214b44287c73676e1b2bb148cfa9b5","arctic","arctic","3380","","<b>How many astronaut candidates passed the first swim test?</b>","","","","0","swim-comprehension","","","","","","","","","","","","","{""Q0"":""All but one""}","","","",""
"survey-multi-choice","70","2102052","0.0-6.0-2.0-3.0-0.6","77f2ee51d6bfb5b969676e80982edb746d214b44287c73676e1b2bb148cfa9b5","arctic","arctic","3808","","<b>What is the narrator afraid of, aside from the water?</b>","","","","0","swim-comprehension","","","","","","","","","","","","","{""Q0"":""Snakes""}","","","",""
"survey-multi-choice","71","2106187","0.0-6.0-2.0-3.0-0.7","77f2ee51d6bfb5b969676e80982edb746d214b44287c73676e1b2bb148cfa9b5","arctic","arctic","3881","","<b>How often does the narrator swim, now that he is a good swimmer?</b>","","","","1","swim-comprehension","","","","","","","","","","","","","{""Q0"":""Never swam again in his life""}","","","",""
"survey-multi-choice","72","2110769","0.0-6.0-2.0-3.0-0.8","77f2ee51d6bfb5b969676e80982edb746d214b44287c73676e1b2bb148cfa9b5","arctic","arctic","4330","","<b>What gave the narrator his greatest feeling of accomplishment?</b>","","","","0","swim-comprehension","","","","","","","","","","","","","{""Q0"":""Completing his PhD at MIT""}","","","",""
"survey-multi-choice","73","2113935","0.0-6.0-2.0-3.0-0.9","77f2ee51d6bfb5b969676e80982edb746d214b44287c73676e1b2bb148cfa9b5","arctic","arctic","2913","","<b>How many times did the astronaut candidates have to complete the final exercise to pass?</b>","","","","1","swim-comprehension","","","","","","","","","","","","","{""Q0"":""Two""}","","","",""
"html-button-response","74","2114815","0.0-6.0-2.0-4.0","77f2ee51d6bfb5b969676e80982edb746d214b44287c73676e1b2bb148cfa9b5","arctic","arctic","628","","<p>Thank you for your responses.</p><p>You will now answer some questions about your impressions of the story.</p>","0","","","","","","","","","","","","","","","","","","","","",""
"html-button-response","75","2116959","0.0-6.0-2.0-5.0-0.0","77f2ee51d6bfb5b969676e80982edb746d214b44287c73676e1b2bb148cfa9b5","arctic","arctic","2143","","EE1","6","","","","swim-engagement","","","","","","","","","","","","","","7","emo-engage","",""
"html-button-response","76","2117965","0.0-6.0-2.0-5.0-0.1","77f2ee51d6bfb5b969676e80982edb746d214b44287c73676e1b2bb148cfa9b5","arctic","arctic","754","","E1","6","","","","swim-engagement","","","","","","","","","","","","","","7","enjoyment","",""
"html-button-response","77","2119037","0.0-6.0-2.0-5.0-0.2","77f2ee51d6bfb5b969676e80982edb746d214b44287c73676e1b2bb148cfa9b5","arctic","arctic","819","","EE4","6","","","","swim-engagement","","","","","","","","","","","","","","7","emo-engage","",""
"html-button-response","78","2119793","0.0-6.0-2.0-5.0-0.3","77f2ee51d6bfb5b969676e80982edb746d214b44287c73676e1b2bb148cfa9b5","arctic","arctic","503","","EE2","6","","","","swim-engagement","","","","","","","","","","","","","","7","emo-engage","",""
"html-button-response","79","2120841","0.0-6.0-2.0-5.0-0.4","77f2ee51d6bfb5b969676e80982edb746d214b44287c73676e1b2bb148cfa9b5","arctic","arctic","796","","MS1","6","","","","swim-engagement","","","","","","","","","","","","","","7","mental-sim","",""
"html-button-response","80","2121545","0.0-6.0-2.0-5.0-0.5","77f2ee51d6bfb5b969676e80982edb746d214b44287c73676e1b2bb148cfa9b5","arctic","arctic","451","","EE3","6","","","","swim-engagement","","","","","","","","","","","","","","7","emo-engage","",""
"html-button-response","81","2122137","0.0-6.0-2.0-5.0-0.6","77f2ee51d6bfb5b969676e80982edb746d214b44287c73676e1b2bb148cfa9b5","arctic","arctic","340","","E10","6","","","","swim-engagement","","","","","","","","","","","","","","7","enjoyment","",""
"html-button-response","82","2125139","0.0-6.0-2.0-5.0-0.7","77f2ee51d6bfb5b969676e80982edb746d214b44287c73676e1b2bb148cfa9b5","arctic","arctic","2748","","A2","6","","","","swim-engagement","","","","","","","","","","","","","","7","absorption","",""
"html-button-response","83","2126767","0.0-6.0-2.0-5.0-0.8","77f2ee51d6bfb5b969676e80982edb746d214b44287c73676e1b2bb148cfa9b5","arctic","arctic","1376","","EE5","6","","","","swim-engagement","","","","","","","","","","","","","","7","emo-engage","",""
"html-button-response","84","2127833","0.0-6.0-2.0-5.0-0.9","77f2ee51d6bfb5b969676e80982edb746d214b44287c73676e1b2bb148cfa9b5","arctic","arctic","814","","A3","6","","","","swim-engagement","","","","","","","","","","","","","","7","absorption","",""
"html-button-response","85","2128989","0.0-6.0-2.0-5.0-0.10","77f2ee51d6bfb5b969676e80982edb746d214b44287c73676e1b2bb148cfa9b5","arctic","arctic","904","","E7","6","","","","swim-engagement","","","","","","","","","","","","","","7","enjoyment","",""
"html-button-response","86","2130625","0.0-6.0-2.0-5.0-0.11","77f2ee51d6bfb5b969676e80982edb746d214b44287c73676e1b2bb148cfa9b5","arctic","arctic","1384","","MS3","6","","","","swim-engagement","","","","","","","","","","","","","","7","mental-sim","",""
"html-button-response","87","2131809","0.0-6.0-2.0-5.0-0.12","77f2ee51d6bfb5b969676e80982edb746d214b44287c73676e1b2bb148cfa9b5","arctic","arctic","932","","E6","6","","","","swim-engagement","","","","","","","","","","","","","","7","enjoyment","",""
"html-button-response","88","2133591","0.0-6.0-2.0-5.0-0.13","77f2ee51d6bfb5b969676e80982edb746d214b44287c73676e1b2bb148cfa9b5","arctic","arctic","1530","","A4","6","","","","swim-engagement","","","","","","","","","","","","","","7","absorption","",""
"html-button-response","89","2136295","0.0-6.0-2.0-5.0-0.14","77f2ee51d6bfb5b969676e80982edb746d214b44287c73676e1b2bb148cfa9b5","arctic","arctic","2453","","A5","6","","","","swim-engagement","","","","","","","","","","","","","","7","absorption","",""
"html-button-response","90","2137453","0.0-6.0-2.0-5.0-0.15","77f2ee51d6bfb5b969676e80982edb746d214b44287c73676e1b2bb148cfa9b5","arctic","arctic","906","","E8","6","","","","swim-engagement","","","","","","","","","","","","","","7","enjoyment","",""
"html-button-response","91","2140205","0.0-6.0-2.0-5.0-0.16","77f2ee51d6bfb5b969676e80982edb746d214b44287c73676e1b2bb148cfa9b5","arctic","arctic","2500","","MS2","6","","","","swim-engagement","","","","","","","","","","","","","","7","mental-sim","",""
"html-button-response","92","2141783","0.0-6.0-2.0-5.0-0.17","77f2ee51d6bfb5b969676e80982edb746d214b44287c73676e1b2bb148cfa9b5","arctic","arctic","1327","","A1","6","","","","swim-engagement","","","","","","","","","","","","","","7","absorption","",""
"html-button-response","93","2143042","0.0-8.0","77f2ee51d6bfb5b969676e80982edb746d214b44287c73676e1b2bb148cfa9b5","arctic","arctic","1007","","<p>Thank you for your responses.</p><p>You will now answer some demographic, hearing, and general health questions.</p>","0","","","","","","","","","","","","","","","","","","","","",""
"survey-multi-choice","94","2145059","0.0-9.0-0.0","77f2ee51d6bfb5b969676e80982edb746d214b44287c73676e1b2bb148cfa9b5","arctic","arctic","2015","","","","","","","survey","","","","","","","","","","","","","{""Q0"":""Chrome""}","","","browser",""
"survey-text","95","2149833","0.0-9.0-1.0","77f2ee51d6bfb5b969676e80982edb746d214b44287c73676e1b2bb148cfa9b5","arctic","arctic","4520","","","","","","","survey","","","","","","","","","","","","","{""AGE"":""31""}","","","age","31"
"survey-multi-choice","96","2152275","0.0-9.0-2.0","77f2ee51d6bfb5b969676e80982edb746d214b44287c73676e1b2bb148cfa9b5","arctic","arctic","2189","","","","","","","survey","","","","","","","","","","","","","{""Q0"":""Male""}","","","gender","Male"
"survey-multi-choice","97","2154923","0.0-9.0-4.0","77f2ee51d6bfb5b969676e80982edb746d214b44287c73676e1b2bb148cfa9b5","arctic","arctic","2397","","","","","","","survey","","","","","","","","","","","","","{""Q0"":""Right""}","","","handedness","Right"
"survey-multi-choice","98","2156809","0.0-9.0-5.0","77f2ee51d6bfb5b969676e80982edb746d214b44287c73676e1b2bb148cfa9b5","arctic","arctic","1631","","","","","","","survey","","","","","","","","","","","","","{""Q0"":""Bachelor's Degree""}","","","education","Bachelor's Degree"
"survey-text","99","2162147","0.0-10.0-0.0","77f2ee51d6bfb5b969676e80982edb746d214b44287c73676e1b2bb148cfa9b5","arctic","arctic","5085.5","","","","","","","survey","","","","","","","","","","","","","{""L1"":""English""}","","","first-language","English"
"survey-text","100","2167841","0.0-10.0-1.0","77f2ee51d6bfb5b969676e80982edb746d214b44287c73676e1b2bb148cfa9b5","arctic","arctic","5439","","","","","","","survey","","","","","","","","","","","","","{""L2name"":"""",""L2fluency"":"""",""L3name"":"""",""L3fluency"":"""",""L4name"":"""",""L4fluency"":""""}","","","additional-languages","{""L2name"":"""",""L2fluency"":"""",""L3name"":"""",""L3fluency"":"""",""L4name"":"""",""L4fluency"":""""}"
"survey-multi-choice","101","2170307","0.0-10.0-2.0","77f2ee51d6bfb5b969676e80982edb746d214b44287c73676e1b2bb148cfa9b5","arctic","arctic","2214","","","","","","","survey","","","","","","","","","","","","","{""Q0"":""No""}","","","hearing-aid","No"
"survey-multi-choice","102","2172347","0.0-10.0-3.0","77f2ee51d6bfb5b969676e80982edb746d214b44287c73676e1b2bb148cfa9b5","arctic","arctic","1787","","","","","","","survey","","","","","","","","","","","","","{""Q0"":""Never""}","","","ringing-ears","Never"
"survey-multi-choice","103","2175301","0.0-10.0-5.0","77f2ee51d6bfb5b969676e80982edb746d214b44287c73676e1b2bb148cfa9b5","arctic","arctic","2703","","","","","","","survey","","","","","","","","","","","","","{""Q0"":""No""}","","","neuro-disease","No"
"survey-multi-choice","104","2178841","0.0-10.0-7.0","77f2ee51d6bfb5b969676e80982edb746d214b44287c73676e1b2bb148cfa9b5","arctic","arctic","3288","","","","","","","survey","","","","","","","","","","","","","{""Q0"":""No""}","","","take-meds","No"
"survey-text","105","2180711","0.0-10.0-9.0","77f2ee51d6bfb5b969676e80982edb746d214b44287c73676e1b2bb148cfa9b5","arctic","arctic","1613.2000000178814","","","","","","","survey","","","","","","","","","","","","","{""HC"":""""}","","","health-concerns",""
"html-button-response","106","2183715","0.0-11.0-0.0","77f2ee51d6bfb5b969676e80982edb746d214b44287c73676e1b2bb148cfa9b5","arctic","arctic","2752","","<p>How would you describe your musical skills/experiences?</p>","2","","","","survey","","","","","","","","","","","","","","","","music-skill","3"
"survey-multi-choice","107","2186381","0.0-11.0-1.0","77f2ee51d6bfb5b969676e80982edb746d214b44287c73676e1b2bb148cfa9b5","arctic","arctic","2415","","","","","","","survey","","","","","","","","","","","","","{""Q0"":""Yes""}","","","music-instrument","Yes"
"survey-text","108","2188867","0.0-11.0-2.0-0.0","77f2ee51d6bfb5b969676e80982edb746d214b44287c73676e1b2bb148cfa9b5","arctic","arctic","2232.800000011921","","","","","","","survey","","","","","","","","","","","","","{""MEXP"":""2""}","","","music-training-yrs","2"
"html-button-response","109","2191239","0.0-12.0-0.0","77f2ee51d6bfb5b969676e80982edb746d214b44287c73676e1b2bb148cfa9b5","arctic","arctic","2120","","<p>How would you describe your general hearing abilities?</p>","5","","","","survey","","","","","","","","","","","","","","","","ssq-01","6"
"html-button-response","110","2195037","0.0-12.0-1.0","77f2ee51d6bfb5b969676e80982edb746d214b44287c73676e1b2bb148cfa9b5","arctic","arctic","3546","","<p>When you talk with someone at a place that strongly reverberates/echoes (e.g., in a church or train station),</br>can you understand what the person says?</p>","8","","","","survey","","","","","","","","","","","","","","","","ssq-02","8"
"html-button-response","111","2197153","0.0-12.0-2.0","77f2ee51d6bfb5b969676e80982edb746d214b44287c73676e1b2bb148cfa9b5","arctic","arctic","1864","","<p>When you are with a group (~5 people) in a lively restaurant, can you follow the group's conversation?</p>","8","","","","survey","","","","","","","","","","","","","","","","ssq-03","8"
"html-button-response","112","2199060","0.0-12.0-3.0","77f2ee51d6bfb5b969676e80982edb746d214b44287c73676e1b2bb148cfa9b5","arctic","arctic","1655","","<p>Based on the sound of a bus or truck, can you tell whether it is moving towards or away from you?</p>","8","","","","survey","","","","","","","","","","","","","","","","ssq-04","8"
"html-button-response","113","2199703","0.0-12.0-4.0","77f2ee51d6bfb5b969676e80982edb746d214b44287c73676e1b2bb148cfa9b5","arctic","arctic","392","","<p>When you are in an unknown environment, can you tell from which direction a brief sound originates?</p>","5","","","","survey","","","","","","","","","","","","","","","","ssq-05","5"
"html-button-response","114","2200363","0.0-12.0-5.0","77f2ee51d6bfb5b969676e80982edb746d214b44287c73676e1b2bb148cfa9b5","arctic","arctic","408","","<p>Are you able to ignore distracting sounds when you concentrate on a specific aspect of your acoustic surrounding?</p>","6","","","","survey","","","","","","","","","","","","","","","","ssq-06","6"
"fullscreen","115","2201616","0.0-13.0","77f2ee51d6bfb5b969676e80982edb746d214b44287c73676e1b2bb148cfa9b5","arctic","arctic","","","","","","","","","true","","","","","","","","","","","","","","","",""
