"trial_type","trial_index","time_elapsed","internal_node_id","ParticipantID","firstStory","scramStory","rt","url","stimulus","button_pressed","key_press","correctRESP","correct","designation","success","letterStim","letterType","ONSET","TIMEOUT","CONDITION","Participant","ONSET_ACTUAL","RT","RESP","ACC","STORY","responses","response","type","surveyQuestion","QRESP"
"pavlovia","0","3","0.0-0.0","01d92d17ed0ea9d99d2bac6381808c7ee69318be66dd3daf29c6bf4568786f8d","swim","swim","","","","","","","","","","","","","","","","","","","","","","","","",""
"external-html","1","3935","0.0-1.0","01d92d17ed0ea9d99d2bac6381808c7ee69318be66dd3daf29c6bf4568786f8d","swim","swim","3758","consent/consent_updated.html","","","","","","","","","","","","","","","","","","","","","","",""
"html-button-response","2","5635","0.0-2.0-0.0","01d92d17ed0ea9d99d2bac6381808c7ee69318be66dd3daf29c6bf4568786f8d","swim","swim","1699","","<p>Before we begin the main task, you will complete a short volume calibration and headphone check.</p><p>Please make sure you are in a quiet listening environment, that you are wearing headphones, and that your computer's volume is turned on.<p></p>","0","","","","","","","","","","","","","","","","","","","","",""
"html-button-response","3","6681","0.0-2.0-1.0","01d92d17ed0ea9d99d2bac6381808c7ee69318be66dd3daf29c6bf4568786f8d","swim","swim","794","","<p>The volume calibration will be first.</p><p>You will hear a thirty-second noise. Please adjust your computer's volume so that this noise is being presented at a comfortable level.<p></p>","0","","","","","","","","","","","","","","","","","","","","",""
"audio-button-response","4","11826","0.0-2.0-2.0","01d92d17ed0ea9d99d2bac6381808c7ee69318be66dd3daf29c6bf4568786f8d","swim","swim","4885","","audio/volumetest.mp3","0","","","","","","","","","","","","","","","","","","","","",""
"html-keyboard-response","5","16502","0.0-3.0-0.0","01d92d17ed0ea9d99d2bac6381808c7ee69318be66dd3daf29c6bf4568786f8d","swim","swim","4675","","<p>You will now complete a short headphone check.</p><p>On each trial, you will hear three tones. One of these tones will be quieter than the others. Your task is to identify whether the quiet tone occurred first, second, or third.</p><p>There are six trials in total.<p></p><p></p>(Press SPACEBAR to begin)","","32","","","","","","","","","","","","","","","","","","","",""
"html-keyboard-response","6","17281","0.0-3.0-1.0-0.0","01d92d17ed0ea9d99d2bac6381808c7ee69318be66dd3daf29c6bf4568786f8d","swim","swim","null","","<div style=""font-size:60px;"">+</div>","","null","","","","","","","","","","","","","","","","","","","",""
"audio-button-response","7","21515","0.0-3.0-1.0-1.0","01d92d17ed0ea9d99d2bac6381808c7ee69318be66dd3daf29c6bf4568786f8d","swim","swim","4233","","audio/t1_1.mp3","0","","0","1","headphone-test","","","","","","","","","","","","","","","","",""
"html-keyboard-response","8","22017","0.0-3.0-1.0-2.0","01d92d17ed0ea9d99d2bac6381808c7ee69318be66dd3daf29c6bf4568786f8d","swim","swim","null","","<p>Correct</p>","","null","","","","","","","","","","","","","","","","","","","",""
"html-keyboard-response","9","22524","0.0-3.0-1.0-0.1","01d92d17ed0ea9d99d2bac6381808c7ee69318be66dd3daf29c6bf4568786f8d","swim","swim","null","","<div style=""font-size:60px;"">+</div>","","null","","","","","","","","","","","","","","","","","","","",""
"audio-button-response","10","26723","0.0-3.0-1.0-1.1","01d92d17ed0ea9d99d2bac6381808c7ee69318be66dd3daf29c6bf4568786f8d","swim","swim","4198","","audio/t1_2.mp3","0","","0","1","headphone-test","","","","","","","","","","","","","","","","",""
"html-keyboard-response","11","27231","0.0-3.0-1.0-2.1","01d92d17ed0ea9d99d2bac6381808c7ee69318be66dd3daf29c6bf4568786f8d","swim","swim","null","","<p>Correct</p>","","null","","","","","","","","","","","","","","","","","","","",""
"html-keyboard-response","12","27742","0.0-3.0-1.0-0.2","01d92d17ed0ea9d99d2bac6381808c7ee69318be66dd3daf29c6bf4568786f8d","swim","swim","null","","<div style=""font-size:60px;"">+</div>","","null","","","","","","","","","","","","","","","","","","","",""
"audio-button-response","13","31466","0.0-3.0-1.0-1.2","01d92d17ed0ea9d99d2bac6381808c7ee69318be66dd3daf29c6bf4568786f8d","swim","swim","3723","","audio/t2_2.mp3","1","","1","1","headphone-test","","","","","","","","","","","","","","","","",""
"html-keyboard-response","14","31977","0.0-3.0-1.0-2.2","01d92d17ed0ea9d99d2bac6381808c7ee69318be66dd3daf29c6bf4568786f8d","swim","swim","null","","<p>Correct</p>","","null","","","","","","","","","","","","","","","","","","","",""
"html-keyboard-response","15","32491","0.0-3.0-1.0-0.3","01d92d17ed0ea9d99d2bac6381808c7ee69318be66dd3daf29c6bf4568786f8d","swim","swim","null","","<div style=""font-size:60px;"">+</div>","","null","","","","","","","","","","","","","","","","","","","",""
"audio-button-response","16","36150","0.0-3.0-1.0-1.3","01d92d17ed0ea9d99d2bac6381808c7ee69318be66dd3daf29c6bf4568786f8d","swim","swim","3659","","audio/t3_1.mp3","2","","2","1","headphone-test","","","","","","","","","","","","","","","","",""
"html-keyboard-response","17","36666","0.0-3.0-1.0-2.3","01d92d17ed0ea9d99d2bac6381808c7ee69318be66dd3daf29c6bf4568786f8d","swim","swim","null","","<p>Correct</p>","","null","","","","","","","","","","","","","","","","","","","",""
"html-keyboard-response","18","37179","0.0-3.0-1.0-0.4","01d92d17ed0ea9d99d2bac6381808c7ee69318be66dd3daf29c6bf4568786f8d","swim","swim","null","","<div style=""font-size:60px;"">+</div>","","null","","","","","","","","","","","","","","","","","","","",""
"audio-button-response","19","39611","0.0-3.0-1.0-1.4","01d92d17ed0ea9d99d2bac6381808c7ee69318be66dd3daf29c6bf4568786f8d","swim","swim","2430","","audio/t2_1.mp3","1","","1","1","headphone-test","","","","","","","","","","","","","","","","",""
"html-keyboard-response","20","40111","0.0-3.0-1.0-2.4","01d92d17ed0ea9d99d2bac6381808c7ee69318be66dd3daf29c6bf4568786f8d","swim","swim","null","","<p>Correct</p>","","null","","","","","","","","","","","","","","","","","","","",""
"html-keyboard-response","21","40620","0.0-3.0-1.0-0.5","01d92d17ed0ea9d99d2bac6381808c7ee69318be66dd3daf29c6bf4568786f8d","swim","swim","null","","<div style=""font-size:60px;"">+</div>","","null","","","","","","","","","","","","","","","","","","","",""
"audio-button-response","22","44259","0.0-3.0-1.0-1.5","01d92d17ed0ea9d99d2bac6381808c7ee69318be66dd3daf29c6bf4568786f8d","swim","swim","3638","","audio/t3_2.mp3","2","","2","1","headphone-test","","","","","","","","","","","","","","","","",""
"html-keyboard-response","23","44763","0.0-3.0-1.0-2.5","01d92d17ed0ea9d99d2bac6381808c7ee69318be66dd3daf29c6bf4568786f8d","swim","swim","null","","<p>Correct</p>","","null","","","","","","","","","","","","","","","","","","","",""
"fullscreen","24","47416","0.0-4.0","01d92d17ed0ea9d99d2bac6381808c7ee69318be66dd3daf29c6bf4568786f8d","swim","swim","","","","","","","","","true","","","","","","","","","","","","","","","",""
"html-button-response","25","54576","0.0-5.0-0.0","01d92d17ed0ea9d99d2bac6381808c7ee69318be66dd3daf29c6bf4568786f8d","swim","swim","7160","","<p>There are two blocks to this experiment.</p><p>In each block, you will hear a ~13.5 minute story. One of the stories will be scrambled. Please listen carefully to both stories and understand them as best you can.</p><p>After each story, you will be asked some questions to assess your comprehension.</p>","0","","","","","","","","","","","","","","","","","","","","",""
"html-button-response","26","66516","0.0-5.0-1.0","01d92d17ed0ea9d99d2bac6381808c7ee69318be66dd3daf29c6bf4568786f8d","swim","swim","11939","","<p>During each story, there will be an additional task.</p><p>A letter will occasionally appear on the screen.</br>Your job is to - as quickly as you can - decide whether the letter is lowercase or uppercase and press one of two keys on the keyboard:</p><p>If the letter is <b>lowercase</b>, press key &lt;<b>x</b>&gt;.</p><p>If the letter is <b>uppercase</b>, press key &lt;<b>m</b>&gt;.</p>","0","","","","","","","","","","","","","","","","","","","","",""
"html-keyboard-response","27","70498","0.0-5.0-2.0","01d92d17ed0ea9d99d2bac6381808c7ee69318be66dd3daf29c6bf4568786f8d","swim","swim","3982","","<p>Because we want your responses to be as quick as possible, please keep your index fingers over the keys while listening.</p><p>Each block lasts about 20 minutes.</p><p><b>Press &lt;x&gt; or &lt;m&gt; to start the first block!</b></p>","","88","","","","","","","","","","","","","","","","","","","",""
"html-keyboard-response","28","71012","0.0-7.0-0.0-0.0","01d92d17ed0ea9d99d2bac6381808c7ee69318be66dd3daf29c6bf4568786f8d","swim","swim","null","","<div style=""font-size:60px;"" tabindex=""0"">+</div>","","null","","","","","","","","","","","","","","","","","","","",""
"dual-task","null","null","null","","swim","swim","NA","","t","null","NA","88","0","swim-dual-task","","t","lowercase","12000","1","2","01d92d17ed0ea9d99d2bac6381808c7ee69318be66dd3daf29c6bf4568786f8d","12012.5","NA","NA","0","swim","","","","",""
"dual-task","null","null","null","","swim","swim","399.70000000298023","","D","null","77","77","1","swim-dual-task","","D","uppercase","24000","0","2","01d92d17ed0ea9d99d2bac6381808c7ee69318be66dd3daf29c6bf4568786f8d","24014.80000000447","399.70000000298023","77","1","swim","","","","",""
"dual-task","null","null","null","","swim","swim","523.3000000044703","","g","null","88","88","1","swim-dual-task","","g","lowercase","34000","0","2","01d92d17ed0ea9d99d2bac6381808c7ee69318be66dd3daf29c6bf4568786f8d","34007.39999999851","523.3000000044703","88","1","swim","","","","",""
"dual-task","null","null","null","","swim","swim","480.8999999985099","","G","null","77","77","1","swim-dual-task","","G","uppercase","42000","0","2","01d92d17ed0ea9d99d2bac6381808c7ee69318be66dd3daf29c6bf4568786f8d","42004.20000000298","480.8999999985099","77","1","swim","","","","",""
"dual-task","null","null","null","","swim","swim","433.29999999701977","","N","null","77","77","1","swim-dual-task","","N","uppercase","50000","0","2","01d92d17ed0ea9d99d2bac6381808c7ee69318be66dd3daf29c6bf4568786f8d","50008","433.29999999701977","77","1","swim","","","","",""
"dual-task","null","null","null","","swim","swim","458.20000000298023","","A","null","77","77","1","swim-dual-task","","A","uppercase","58000","0","2","01d92d17ed0ea9d99d2bac6381808c7ee69318be66dd3daf29c6bf4568786f8d","58012","458.20000000298023","77","1","swim","","","","",""
"dual-task","null","null","null","","swim","swim","425.6000000014901","","N","null","77","77","1","swim-dual-task","","N","uppercase","68000","0","2","01d92d17ed0ea9d99d2bac6381808c7ee69318be66dd3daf29c6bf4568786f8d","68003","425.6000000014901","77","1","swim","","","","",""
"dual-task","null","null","null","","swim","swim","512.3999999985099","","H","null","77","77","1","swim-dual-task","","H","uppercase","78000","0","2","01d92d17ed0ea9d99d2bac6381808c7ee69318be66dd3daf29c6bf4568786f8d","78001.10000000149","512.3999999985099","77","1","swim","","","","",""
"dual-task","null","null","null","","swim","swim","398.5","","q","null","88","88","1","swim-dual-task","","q","lowercase","86000","0","2","01d92d17ed0ea9d99d2bac6381808c7ee69318be66dd3daf29c6bf4568786f8d","86010.89999999851","398.5","88","1","swim","","","","",""
"dual-task","null","null","null","","swim","swim","486.29999999701977","","h","null","88","88","1","swim-dual-task","","h","lowercase","98000","0","2","01d92d17ed0ea9d99d2bac6381808c7ee69318be66dd3daf29c6bf4568786f8d","98002.10000000149","486.29999999701977","88","1","swim","","","","",""
"dual-task","null","null","null","","swim","swim","524.8000000044703","","E","null","77","77","1","swim-dual-task","","E","uppercase","110000","0","2","01d92d17ed0ea9d99d2bac6381808c7ee69318be66dd3daf29c6bf4568786f8d","110000.80000000447","524.8000000044703","77","1","swim","","","","",""
"dual-task","null","null","null","","swim","swim","482.1000000014901","","N","null","77","77","1","swim-dual-task","","N","uppercase","118000","0","2","01d92d17ed0ea9d99d2bac6381808c7ee69318be66dd3daf29c6bf4568786f8d","118005.20000000298","482.1000000014901","77","1","swim","","","","",""
"dual-task","null","null","null","","swim","swim","452.5","","H","null","77","77","1","swim-dual-task","","H","uppercase","132000","0","2","01d92d17ed0ea9d99d2bac6381808c7ee69318be66dd3daf29c6bf4568786f8d","132007.1000000015","452.5","77","1","swim","","","","",""
"dual-task","null","null","null","","swim","swim","453.5","","b","null","88","88","1","swim-dual-task","","b","lowercase","146000","0","2","01d92d17ed0ea9d99d2bac6381808c7ee69318be66dd3daf29c6bf4568786f8d","146010.20000000298","453.5","88","1","swim","","","","",""
"dual-task","null","null","null","","swim","swim","477.20000000298023","","t","null","88","88","1","swim-dual-task","","t","lowercase","154000","0","2","01d92d17ed0ea9d99d2bac6381808c7ee69318be66dd3daf29c6bf4568786f8d","154015","477.20000000298023","88","1","swim","","","","",""
"dual-task","null","null","null","","swim","swim","494.70000000298023","","D","null","77","77","1","swim-dual-task","","D","uppercase","160000","0","2","01d92d17ed0ea9d99d2bac6381808c7ee69318be66dd3daf29c6bf4568786f8d","160011.1000000015","494.70000000298023","77","1","swim","","","","",""
"dual-task","null","null","null","","swim","swim","409.3999999985099","","h","null","88","88","1","swim-dual-task","","h","lowercase","170000","0","2","01d92d17ed0ea9d99d2bac6381808c7ee69318be66dd3daf29c6bf4568786f8d","170006.1000000015","409.3999999985099","88","1","swim","","","","",""
"dual-task","null","null","null","","swim","swim","443.6000000014901","","d","null","88","88","1","swim-dual-task","","d","lowercase","182000","0","2","01d92d17ed0ea9d99d2bac6381808c7ee69318be66dd3daf29c6bf4568786f8d","182005","443.6000000014901","88","1","swim","","","","",""
"dual-task","null","null","null","","swim","swim","519.5","","R","null","77","77","1","swim-dual-task","","R","uppercase","190000","0","2","01d92d17ed0ea9d99d2bac6381808c7ee69318be66dd3daf29c6bf4568786f8d","190001.8999999985","519.5","77","1","swim","","","","",""
"dual-task","null","null","null","","swim","swim","417.29999999701977","","f","null","88","88","1","swim-dual-task","","f","lowercase","202000","0","2","01d92d17ed0ea9d99d2bac6381808c7ee69318be66dd3daf29c6bf4568786f8d","202011.5","417.29999999701977","88","1","swim","","","","",""
"dual-task","null","null","null","","swim","swim","464.40000000596046","","B","null","77","77","1","swim-dual-task","","B","uppercase","214000","0","2","01d92d17ed0ea9d99d2bac6381808c7ee69318be66dd3daf29c6bf4568786f8d","214003.20000000298","464.40000000596046","77","1","swim","","","","",""
"dual-task","null","null","null","","swim","swim","650.8999999985099","","q","null","88","88","1","swim-dual-task","","q","lowercase","226000","0","2","01d92d17ed0ea9d99d2bac6381808c7ee69318be66dd3daf29c6bf4568786f8d","226009.70000000298","650.8999999985099","88","1","swim","","","","",""
"dual-task","null","null","null","","swim","swim","495.5","","g","null","88","88","1","swim-dual-task","","g","lowercase","234000","0","2","01d92d17ed0ea9d99d2bac6381808c7ee69318be66dd3daf29c6bf4568786f8d","234012.8999999985","495.5","88","1","swim","","","","",""
"dual-task","null","null","null","","swim","swim","397.19999999552965","","g","null","77","88","0","swim-dual-task","","g","lowercase","242000","0","2","01d92d17ed0ea9d99d2bac6381808c7ee69318be66dd3daf29c6bf4568786f8d","242013.70000000298","397.19999999552965","77","0","swim","","","","",""
"dual-task","null","null","null","","swim","swim","473.5","","n","null","88","88","1","swim-dual-task","","n","lowercase","248000","0","2","01d92d17ed0ea9d99d2bac6381808c7ee69318be66dd3daf29c6bf4568786f8d","248007.8999999985","473.5","88","1","swim","","","","",""
"dual-task","null","null","null","","swim","swim","439","","F","null","77","77","1","swim-dual-task","","F","uppercase","256000","0","2","01d92d17ed0ea9d99d2bac6381808c7ee69318be66dd3daf29c6bf4568786f8d","256010.8999999985","439","77","1","swim","","","","",""
"dual-task","null","null","null","","swim","swim","515.5","","n","null","88","88","1","swim-dual-task","","n","lowercase","264000","0","2","01d92d17ed0ea9d99d2bac6381808c7ee69318be66dd3daf29c6bf4568786f8d","264012","515.5","88","1","swim","","","","",""
"dual-task","null","null","null","","swim","swim","465.19999999552965","","d","null","88","88","1","swim-dual-task","","d","lowercase","270000","0","2","01d92d17ed0ea9d99d2bac6381808c7ee69318be66dd3daf29c6bf4568786f8d","270011.6000000015","465.19999999552965","88","1","swim","","","","",""
"dual-task","null","null","null","","swim","swim","526.5999999940395","","e","null","88","88","1","swim-dual-task","","e","lowercase","280000","0","2","01d92d17ed0ea9d99d2bac6381808c7ee69318be66dd3daf29c6bf4568786f8d","280000.30000000447","526.5999999940395","88","1","swim","","","","",""
"dual-task","null","null","null","","swim","swim","712.5","","Q","null","77","77","1","swim-dual-task","","Q","uppercase","286000","0","2","01d92d17ed0ea9d99d2bac6381808c7ee69318be66dd3daf29c6bf4568786f8d","286013","712.5","77","1","swim","","","","",""
"dual-task","null","null","null","","swim","swim","452.1000000014901","","F","null","77","77","1","swim-dual-task","","F","uppercase","294000","0","2","01d92d17ed0ea9d99d2bac6381808c7ee69318be66dd3daf29c6bf4568786f8d","294006.1000000015","452.1000000014901","77","1","swim","","","","",""
"dual-task","null","null","null","","swim","swim","386","","D","null","77","77","1","swim-dual-task","","D","uppercase","306000","0","2","01d92d17ed0ea9d99d2bac6381808c7ee69318be66dd3daf29c6bf4568786f8d","306009","386","77","1","swim","","","","",""
"dual-task","null","null","null","","swim","swim","559.5","","n","null","88","88","1","swim-dual-task","","n","lowercase","314000","0","2","01d92d17ed0ea9d99d2bac6381808c7ee69318be66dd3daf29c6bf4568786f8d","314011","559.5","88","1","swim","","","","",""
"dual-task","null","null","null","","swim","swim","456.69999999552965","","r","null","88","88","1","swim-dual-task","","r","lowercase","326000","0","2","01d92d17ed0ea9d99d2bac6381808c7ee69318be66dd3daf29c6bf4568786f8d","326009.30000000447","456.69999999552965","88","1","swim","","","","",""
"dual-task","null","null","null","","swim","swim","533","","r","null","88","88","1","swim-dual-task","","r","lowercase","338000","0","2","01d92d17ed0ea9d99d2bac6381808c7ee69318be66dd3daf29c6bf4568786f8d","338011.80000000447","533","88","1","swim","","","","",""
"dual-task","null","null","null","","swim","swim","446.70000000298023","","F","null","77","77","1","swim-dual-task","","F","uppercase","348000","0","2","01d92d17ed0ea9d99d2bac6381808c7ee69318be66dd3daf29c6bf4568786f8d","348003.8999999985","446.70000000298023","77","1","swim","","","","",""
"dual-task","null","null","null","","swim","swim","469","","N","null","77","77","1","swim-dual-task","","N","uppercase","356000","0","2","01d92d17ed0ea9d99d2bac6381808c7ee69318be66dd3daf29c6bf4568786f8d","356012","469","77","1","swim","","","","",""
"dual-task","null","null","null","","swim","swim","437.29999999701977","","E","null","77","77","1","swim-dual-task","","E","uppercase","364000","0","2","01d92d17ed0ea9d99d2bac6381808c7ee69318be66dd3daf29c6bf4568786f8d","364014.200000003","437.29999999701977","77","1","swim","","","","",""
"dual-task","null","null","null","","swim","swim","422.8999999985099","","Q","null","77","77","1","swim-dual-task","","Q","uppercase","376000","0","2","01d92d17ed0ea9d99d2bac6381808c7ee69318be66dd3daf29c6bf4568786f8d","376007","422.8999999985099","77","1","swim","","","","",""
"dual-task","null","null","null","","swim","swim","368.8999999985099","","G","null","77","77","1","swim-dual-task","","G","uppercase","384000","0","2","01d92d17ed0ea9d99d2bac6381808c7ee69318be66dd3daf29c6bf4568786f8d","384012.80000000447","368.8999999985099","77","1","swim","","","","",""
"dual-task","null","null","null","","swim","swim","525.4000000059605","","E","null","77","77","1","swim-dual-task","","E","uppercase","394000","0","2","01d92d17ed0ea9d99d2bac6381808c7ee69318be66dd3daf29c6bf4568786f8d","394015.80000000447","525.4000000059605","77","1","swim","","","","",""
"dual-task","null","null","null","","swim","swim","460.70000000298023","","Q","null","77","77","1","swim-dual-task","","Q","uppercase","404000","0","2","01d92d17ed0ea9d99d2bac6381808c7ee69318be66dd3daf29c6bf4568786f8d","404011.8999999985","460.70000000298023","77","1","swim","","","","",""
"dual-task","null","null","null","","swim","swim","400.8999999985099","","n","null","77","88","0","swim-dual-task","","n","lowercase","410000","0","2","01d92d17ed0ea9d99d2bac6381808c7ee69318be66dd3daf29c6bf4568786f8d","410005.1000000015","400.8999999985099","77","0","swim","","","","",""
"dual-task","null","null","null","","swim","swim","475","","h","null","88","88","1","swim-dual-task","","h","lowercase","420000","0","2","01d92d17ed0ea9d99d2bac6381808c7ee69318be66dd3daf29c6bf4568786f8d","420012.200000003","475","88","1","swim","","","","",""
"dual-task","null","null","null","","swim","swim","515.5999999940395","","a","null","88","88","1","swim-dual-task","","a","lowercase","430000","0","2","01d92d17ed0ea9d99d2bac6381808c7ee69318be66dd3daf29c6bf4568786f8d","430007.30000000447","515.5999999940395","88","1","swim","","","","",""
"dual-task","null","null","null","","swim","swim","466.80000000447035","","B","null","77","77","1","swim-dual-task","","B","uppercase","436000","0","2","01d92d17ed0ea9d99d2bac6381808c7ee69318be66dd3daf29c6bf4568786f8d","436002.8999999985","466.80000000447035","77","1","swim","","","","",""
"dual-task","null","null","null","","swim","swim","454.20000000298023","","b","null","88","88","1","swim-dual-task","","b","lowercase","442000","0","2","01d92d17ed0ea9d99d2bac6381808c7ee69318be66dd3daf29c6bf4568786f8d","442000.8999999985","454.20000000298023","88","1","swim","","","","",""
"dual-task","null","null","null","","swim","swim","471.8999999985099","","e","null","88","88","1","swim-dual-task","","e","lowercase","454000","0","2","01d92d17ed0ea9d99d2bac6381808c7ee69318be66dd3daf29c6bf4568786f8d","454003.200000003","471.8999999985099","88","1","swim","","","","",""
"dual-task","null","null","null","","swim","swim","566.7000000029802","","r","null","88","88","1","swim-dual-task","","r","lowercase","462000","0","2","01d92d17ed0ea9d99d2bac6381808c7ee69318be66dd3daf29c6bf4568786f8d","462015.1000000015","566.7000000029802","88","1","swim","","","","",""
"dual-task","null","null","null","","swim","swim","516.1000000014901","","f","null","88","88","1","swim-dual-task","","f","lowercase","476000","0","2","01d92d17ed0ea9d99d2bac6381808c7ee69318be66dd3daf29c6bf4568786f8d","476006.1000000015","516.1000000014901","88","1","swim","","","","",""
"dual-task","null","null","null","","swim","swim","435.1000000014901","","b","null","88","88","1","swim-dual-task","","b","lowercase","490000","0","2","01d92d17ed0ea9d99d2bac6381808c7ee69318be66dd3daf29c6bf4568786f8d","490007.1000000015","435.1000000014901","88","1","swim","","","","",""
"dual-task","null","null","null","","swim","swim","371.59999999403954","","G","null","77","77","1","swim-dual-task","","G","uppercase","496000","0","2","01d92d17ed0ea9d99d2bac6381808c7ee69318be66dd3daf29c6bf4568786f8d","496006.30000000447","371.59999999403954","77","1","swim","","","","",""
"dual-task","null","null","null","","swim","swim","500.79999999701977","","T","null","77","77","1","swim-dual-task","","T","uppercase","510000","0","2","01d92d17ed0ea9d99d2bac6381808c7ee69318be66dd3daf29c6bf4568786f8d","510008.80000000447","500.79999999701977","77","1","swim","","","","",""
"dual-task","null","null","null","","swim","swim","425.69999999552965","","e","null","88","88","1","swim-dual-task","","e","lowercase","520000","0","2","01d92d17ed0ea9d99d2bac6381808c7ee69318be66dd3daf29c6bf4568786f8d","520009.30000000447","425.69999999552965","88","1","swim","","","","",""
"dual-task","null","null","null","","swim","swim","407.29999999701977","","h","null","88","88","1","swim-dual-task","","h","lowercase","528000","0","2","01d92d17ed0ea9d99d2bac6381808c7ee69318be66dd3daf29c6bf4568786f8d","528006.1000000015","407.29999999701977","88","1","swim","","","","",""
"dual-task","null","null","null","","swim","swim","438.30000000447035","","q","null","88","88","1","swim-dual-task","","q","lowercase","540000","0","2","01d92d17ed0ea9d99d2bac6381808c7ee69318be66dd3daf29c6bf4568786f8d","540002.8999999985","438.30000000447035","88","1","swim","","","","",""
"dual-task","null","null","null","","swim","swim","444.79999999701977","","Q","null","77","77","1","swim-dual-task","","Q","uppercase","546000","0","2","01d92d17ed0ea9d99d2bac6381808c7ee69318be66dd3daf29c6bf4568786f8d","546002","444.79999999701977","77","1","swim","","","","",""
"dual-task","null","null","null","","swim","swim","423.79999999701977","","d","null","88","88","1","swim-dual-task","","d","lowercase","554000","0","2","01d92d17ed0ea9d99d2bac6381808c7ee69318be66dd3daf29c6bf4568786f8d","554014.700000003","423.79999999701977","88","1","swim","","","","",""
"dual-task","null","null","null","","swim","swim","411.30000000447035","","B","null","77","77","1","swim-dual-task","","B","uppercase","566000","0","2","01d92d17ed0ea9d99d2bac6381808c7ee69318be66dd3daf29c6bf4568786f8d","566013","411.30000000447035","77","1","swim","","","","",""
"dual-task","null","null","null","","swim","swim","482.19999999552965","","H","null","77","77","1","swim-dual-task","","H","uppercase","578000","0","2","01d92d17ed0ea9d99d2bac6381808c7ee69318be66dd3daf29c6bf4568786f8d","578001.200000003","482.19999999552965","77","1","swim","","","","",""
"dual-task","null","null","null","","swim","swim","489.6000000014901","","a","null","88","88","1","swim-dual-task","","a","lowercase","588000","0","2","01d92d17ed0ea9d99d2bac6381808c7ee69318be66dd3daf29c6bf4568786f8d","588005.8999999985","489.6000000014901","88","1","swim","","","","",""
"dual-task","null","null","null","","swim","swim","528.6000000014901","","f","null","88","88","1","swim-dual-task","","f","lowercase","600000","0","2","01d92d17ed0ea9d99d2bac6381808c7ee69318be66dd3daf29c6bf4568786f8d","600004.8999999985","528.6000000014901","88","1","swim","","","","",""
"dual-task","null","null","null","","swim","swim","434.8999999985099","","R","null","77","77","1","swim-dual-task","","R","uppercase","610000","0","2","01d92d17ed0ea9d99d2bac6381808c7ee69318be66dd3daf29c6bf4568786f8d","610015.200000003","434.8999999985099","77","1","swim","","","","",""
"dual-task","null","null","null","","swim","swim","413.79999999701977","","B","null","77","77","1","swim-dual-task","","B","uppercase","622000","0","2","01d92d17ed0ea9d99d2bac6381808c7ee69318be66dd3daf29c6bf4568786f8d","622003.700000003","413.79999999701977","77","1","swim","","","","",""
"dual-task","null","null","null","","swim","swim","727.6000000014901","","E","null","77","77","1","swim-dual-task","","E","uppercase","634000","0","2","01d92d17ed0ea9d99d2bac6381808c7ee69318be66dd3daf29c6bf4568786f8d","634010.8999999985","727.6000000014901","77","1","swim","","","","",""
"dual-task","null","null","null","","swim","swim","409.20000000298023","","d","null","88","88","1","swim-dual-task","","d","lowercase","640000","0","2","01d92d17ed0ea9d99d2bac6381808c7ee69318be66dd3daf29c6bf4568786f8d","640013.8999999985","409.20000000298023","88","1","swim","","","","",""
"dual-task","null","null","null","","swim","swim","465.6000000014901","","D","null","77","77","1","swim-dual-task","","D","uppercase","652000","0","2","01d92d17ed0ea9d99d2bac6381808c7ee69318be66dd3daf29c6bf4568786f8d","652007.8999999985","465.6000000014901","77","1","swim","","","","",""
"dual-task","null","null","null","","swim","swim","441.20000000298023","","T","null","77","77","1","swim-dual-task","","T","uppercase","662000","0","2","01d92d17ed0ea9d99d2bac6381808c7ee69318be66dd3daf29c6bf4568786f8d","662002.8999999985","441.20000000298023","77","1","swim","","","","",""
"dual-task","null","null","null","","swim","swim","477","","a","null","88","88","1","swim-dual-task","","a","lowercase","672000","0","2","01d92d17ed0ea9d99d2bac6381808c7ee69318be66dd3daf29c6bf4568786f8d","672013.5","477","88","1","swim","","","","",""
"dual-task","null","null","null","","swim","swim","395.1000000014901","","H","null","77","77","1","swim-dual-task","","H","uppercase","682000","0","2","01d92d17ed0ea9d99d2bac6381808c7ee69318be66dd3daf29c6bf4568786f8d","682002","395.1000000014901","77","1","swim","","","","",""
"dual-task","null","null","null","","swim","swim","434.80000000447035","","R","null","77","77","1","swim-dual-task","","R","uppercase","690000","0","2","01d92d17ed0ea9d99d2bac6381808c7ee69318be66dd3daf29c6bf4568786f8d","690012.8000000045","434.80000000447035","77","1","swim","","","","",""
"dual-task","null","null","null","","swim","swim","501.8999999985099","","f","null","88","88","1","swim-dual-task","","f","lowercase","700000","0","2","01d92d17ed0ea9d99d2bac6381808c7ee69318be66dd3daf29c6bf4568786f8d","700004","501.8999999985099","88","1","swim","","","","",""
"dual-task","null","null","null","","swim","swim","370.30000000447035","","G","null","77","77","1","swim-dual-task","","G","uppercase","708000","0","2","01d92d17ed0ea9d99d2bac6381808c7ee69318be66dd3daf29c6bf4568786f8d","708006.8000000045","370.30000000447035","77","1","swim","","","","",""
"dual-task","null","null","null","","swim","swim","491.80000000447035","","t","null","88","88","1","swim-dual-task","","t","lowercase","716000","0","2","01d92d17ed0ea9d99d2bac6381808c7ee69318be66dd3daf29c6bf4568786f8d","716005.8999999985","491.80000000447035","88","1","swim","","","","",""
"dual-task","null","null","null","","swim","swim","447.80000000447035","","T","null","77","77","1","swim-dual-task","","T","uppercase","724000","0","2","01d92d17ed0ea9d99d2bac6381808c7ee69318be66dd3daf29c6bf4568786f8d","724013.3999999985","447.80000000447035","77","1","swim","","","","",""
"dual-task","null","null","null","","swim","swim","495.6000000014901","","T","null","77","77","1","swim-dual-task","","T","uppercase","736000","0","2","01d92d17ed0ea9d99d2bac6381808c7ee69318be66dd3daf29c6bf4568786f8d","736012","495.6000000014901","77","1","swim","","","","",""
"dual-task","null","null","null","","swim","swim","619.3000000044703","","b","null","88","88","1","swim-dual-task","","b","lowercase","744000","0","2","01d92d17ed0ea9d99d2bac6381808c7ee69318be66dd3daf29c6bf4568786f8d","744011.8999999985","619.3000000044703","88","1","swim","","","","",""
"dual-task","null","null","null","","swim","swim","404","","A","null","77","77","1","swim-dual-task","","A","uppercase","756000","0","2","01d92d17ed0ea9d99d2bac6381808c7ee69318be66dd3daf29c6bf4568786f8d","756012.8999999985","404","77","1","swim","","","","",""
"dual-task","null","null","null","","swim","swim","447.70000000298023","","q","null","88","88","1","swim-dual-task","","q","lowercase","768000","0","2","01d92d17ed0ea9d99d2bac6381808c7ee69318be66dd3daf29c6bf4568786f8d","768009.1000000015","447.70000000298023","88","1","swim","","","","",""
"dual-task","null","null","null","","swim","swim","546.7999999970198","","e","null","88","88","1","swim-dual-task","","e","lowercase","782000","0","2","01d92d17ed0ea9d99d2bac6381808c7ee69318be66dd3daf29c6bf4568786f8d","782015","546.7999999970198","88","1","swim","","","","",""
"dual-task","null","null","null","","swim","swim","650","","t","null","88","88","1","swim-dual-task","","t","lowercase","790000","0","2","01d92d17ed0ea9d99d2bac6381808c7ee69318be66dd3daf29c6bf4568786f8d","790005.3000000045","650","88","1","swim","","","","",""
"audio-keyboard-response","29","881004","0.0-7.0-0.0-1.0","01d92d17ed0ea9d99d2bac6381808c7ee69318be66dd3daf29c6bf4568786f8d","swim","swim","null","","audio/story_swim_scrambled.mp3","","null","","","","","","","","","","","","","","","","","","","",""
"html-button-response","30","884175","0.0-7.0-0.0-2.0","01d92d17ed0ea9d99d2bac6381808c7ee69318be66dd3daf29c6bf4568786f8d","swim","swim","3170","","<p>This concludes the story. Thank you for listening.</p><p>You will now answer some questions about the content of the story.</p>","0","","","","","","","","","","","","","","","","","","","","",""
"survey-multi-choice","31","892912","0.0-7.0-0.0-3.0-0.0","01d92d17ed0ea9d99d2bac6381808c7ee69318be66dd3daf29c6bf4568786f8d","swim","swim","8736","","<b>What were the astronaut candidates trained to do at the naval air station?</b>","","","","1","swim-comprehension","","","","","","","","","","","","","{""Q0"":""Eject out of aircraft and survive in water long enough to be rescued""}","","","",""
"survey-multi-choice","32","896408","0.0-7.0-0.0-3.0-0.1","01d92d17ed0ea9d99d2bac6381808c7ee69318be66dd3daf29c6bf4568786f8d","swim","swim","3243","","<b>What is the narrator afraid of, aside from the water?</b>","","","","1","swim-comprehension","","","","","","","","","","","","","{""Q0"":""Heights""}","","","",""
"survey-multi-choice","33","899213","0.0-7.0-0.0-3.0-0.2","01d92d17ed0ea9d99d2bac6381808c7ee69318be66dd3daf29c6bf4568786f8d","swim","swim","2540","","<b>How many astronaut candidates passed the first swim test?</b>","","","","1","swim-comprehension","","","","","","","","","","","","","{""Q0"":""All of them""}","","","",""
"survey-multi-choice","34","907365","0.0-7.0-0.0-3.0-0.3","01d92d17ed0ea9d99d2bac6381808c7ee69318be66dd3daf29c6bf4568786f8d","swim","swim","7901","","<b>How often does the narrator swim, now that he is a good swimmer?</b>","","","","0","swim-comprehension","","","","","","","","","","","","","{""Q0"":""Every weekend with his kids""}","","","",""
"survey-multi-choice","35","913052","0.0-7.0-0.0-3.0-0.4","01d92d17ed0ea9d99d2bac6381808c7ee69318be66dd3daf29c6bf4568786f8d","swim","swim","5434","","<b>What gave the narrator his greatest feeling of accomplishment?</b>","","","","0","swim-comprehension","","","","","","","","","","","","","{""Q0"":""Completing his PhD at MIT""}","","","",""
"survey-multi-choice","36","921157","0.0-7.0-0.0-3.0-0.5","01d92d17ed0ea9d99d2bac6381808c7ee69318be66dd3daf29c6bf4568786f8d","swim","swim","7852","","<b>How did the narrator train for his swim test?</b>","","","","1","swim-comprehension","","","","","","","","","","","","","{""Q0"":""Took his kids to the pool every day""}","","","",""
"survey-multi-choice","37","927309","0.0-7.0-0.0-3.0-0.6","01d92d17ed0ea9d99d2bac6381808c7ee69318be66dd3daf29c6bf4568786f8d","swim","swim","5900","","<b>What was the final step of the first swim test in the pool?</b>","","","","0","swim-comprehension","","","","","","","","","","","","","{""Q0"":""Perform a water rescue""}","","","",""
"survey-multi-choice","38","931628","0.0-7.0-0.0-3.0-0.7","01d92d17ed0ea9d99d2bac6381808c7ee69318be66dd3daf29c6bf4568786f8d","swim","swim","4067","","<b>How many astronaut candidates reported for duty at the Johnson Space Center?</b>","","","","1","swim-comprehension","","","","","","","","","","","","","{""Q0"":""Forty-four""}","","","",""
"survey-multi-choice","39","934698","0.0-7.0-0.0-3.0-0.8","01d92d17ed0ea9d99d2bac6381808c7ee69318be66dd3daf29c6bf4568786f8d","swim","swim","2818","","<b>Where is the home of naval aviation?</b>","","","","1","swim-comprehension","","","","","","","","","","","","","{""Q0"":""Pensacola""}","","","",""
"survey-multi-choice","40","940531","0.0-7.0-0.0-3.0-0.9","01d92d17ed0ea9d99d2bac6381808c7ee69318be66dd3daf29c6bf4568786f8d","swim","swim","5581","","<b>How many times did the astronaut candidates have to complete the final exercise to pass?</b>","","","","0","swim-comprehension","","","","","","","","","","","","","{""Q0"":""Five""}","","","",""
"html-button-response","41","942309","0.0-7.0-0.0-4.0","01d92d17ed0ea9d99d2bac6381808c7ee69318be66dd3daf29c6bf4568786f8d","swim","swim","1527","","<p>Thank you for your responses.</p><p>You will now answer some questions about your impressions of the story.</p>","0","","","","","","","","","","","","","","","","","","","","",""
"html-button-response","42","946184","0.0-7.0-0.0-5.0-0.0","01d92d17ed0ea9d99d2bac6381808c7ee69318be66dd3daf29c6bf4568786f8d","swim","swim","3874","","A1","6","","","","swim-engagement","","","","","","","","","","","","","","7","absorption","",""
"html-button-response","43","948174","0.0-7.0-0.0-5.0-0.1","01d92d17ed0ea9d99d2bac6381808c7ee69318be66dd3daf29c6bf4568786f8d","swim","swim","1738","","E6","4","","","","swim-engagement","","","","","","","","","","","","","","5","enjoyment","",""
"html-button-response","44","949952","0.0-7.0-0.0-5.0-0.2","01d92d17ed0ea9d99d2bac6381808c7ee69318be66dd3daf29c6bf4568786f8d","swim","swim","1526","","EE2","4","","","","swim-engagement","","","","","","","","","","","","","","5","emo-engage","",""
"html-button-response","45","951926","0.0-7.0-0.0-5.0-0.3","01d92d17ed0ea9d99d2bac6381808c7ee69318be66dd3daf29c6bf4568786f8d","swim","swim","1723","","E10","6","","","","swim-engagement","","","","","","","","","","","","","","7","enjoyment","",""
"html-button-response","46","954911","0.0-7.0-0.0-5.0-0.4","01d92d17ed0ea9d99d2bac6381808c7ee69318be66dd3daf29c6bf4568786f8d","swim","swim","2732","","A2","6","","","","swim-engagement","","","","","","","","","","","","","","7","absorption","",""
"html-button-response","47","957305","0.0-7.0-0.0-5.0-0.5","01d92d17ed0ea9d99d2bac6381808c7ee69318be66dd3daf29c6bf4568786f8d","swim","swim","2143","","E8","2","","","","swim-engagement","","","","","","","","","","","","","","3","enjoyment","",""
"html-button-response","48","959395","0.0-7.0-0.0-5.0-0.6","01d92d17ed0ea9d99d2bac6381808c7ee69318be66dd3daf29c6bf4568786f8d","swim","swim","1839","","EE3","4","","","","swim-engagement","","","","","","","","","","","","","","5","emo-engage","",""
"html-button-response","49","962017","0.0-7.0-0.0-5.0-0.7","01d92d17ed0ea9d99d2bac6381808c7ee69318be66dd3daf29c6bf4568786f8d","swim","swim","2371","","MS1","4","","","","swim-engagement","","","","","","","","","","","","","","5","mental-sim","",""
"html-button-response","50","964443","0.0-7.0-0.0-5.0-0.8","01d92d17ed0ea9d99d2bac6381808c7ee69318be66dd3daf29c6bf4568786f8d","swim","swim","2175","","A4","3","","","","swim-engagement","","","","","","","","","","","","","","4","absorption","",""
"html-button-response","51","966434","0.0-7.0-0.0-5.0-0.9","01d92d17ed0ea9d99d2bac6381808c7ee69318be66dd3daf29c6bf4568786f8d","swim","swim","1739","","A5","5","","","","swim-engagement","","","","","","","","","","","","","","6","absorption","",""
"html-button-response","52","968350","0.0-7.0-0.0-5.0-0.10","01d92d17ed0ea9d99d2bac6381808c7ee69318be66dd3daf29c6bf4568786f8d","swim","swim","1664","","EE4","3","","","","swim-engagement","","","","","","","","","","","","","","4","emo-engage","",""
"html-button-response","53","971182","0.0-7.0-0.0-5.0-0.11","01d92d17ed0ea9d99d2bac6381808c7ee69318be66dd3daf29c6bf4568786f8d","swim","swim","2582","","EE5","3","","","","swim-engagement","","","","","","","","","","","","","","4","emo-engage","",""
"html-button-response","54","972488","0.0-7.0-0.0-5.0-0.12","01d92d17ed0ea9d99d2bac6381808c7ee69318be66dd3daf29c6bf4568786f8d","swim","swim","1055","","A3","5","","","","swim-engagement","","","","","","","","","","","","","","6","absorption","",""
"html-button-response","55","975769","0.0-7.0-0.0-5.0-0.13","01d92d17ed0ea9d99d2bac6381808c7ee69318be66dd3daf29c6bf4568786f8d","swim","swim","3029","","MS2","3","","","","swim-engagement","","","","","","","","","","","","","","4","mental-sim","",""
"html-button-response","56","978443","0.0-7.0-0.0-5.0-0.14","01d92d17ed0ea9d99d2bac6381808c7ee69318be66dd3daf29c6bf4568786f8d","swim","swim","2422","","EE1","4","","","","swim-engagement","","","","","","","","","","","","","","5","emo-engage","",""
"html-button-response","57","980565","0.0-7.0-0.0-5.0-0.15","01d92d17ed0ea9d99d2bac6381808c7ee69318be66dd3daf29c6bf4568786f8d","swim","swim","1872","","E7","5","","","","swim-engagement","","","","","","","","","","","","","","6","enjoyment","",""
"html-button-response","58","981959","0.0-7.0-0.0-5.0-0.16","01d92d17ed0ea9d99d2bac6381808c7ee69318be66dd3daf29c6bf4568786f8d","swim","swim","1143","","MS3","3","","","","swim-engagement","","","","","","","","","","","","","","4","mental-sim","",""
"html-button-response","59","983479","0.0-7.0-0.0-5.0-0.17","01d92d17ed0ea9d99d2bac6381808c7ee69318be66dd3daf29c6bf4568786f8d","swim","swim","1269","","E1","4","","","","swim-engagement","","","","","","","","","","","","","","5","enjoyment","",""
"html-keyboard-response","60","1001284","0.0-7.0-1.0","01d92d17ed0ea9d99d2bac6381808c7ee69318be66dd3daf29c6bf4568786f8d","swim","swim","17553","","<p>Thank you for your responses. You will now listen to the second story.</p><p>Remember, as you listen to the story you will see letters appear on the screen.</br>As quickly as possible, press <b>&lt;x&gt;</b> if the letter is lowercase and <b>&lt;m&gt;</b> if the letter is uppercase.</p><p>Press <b>&lt;x&gt;</b> or <b>&lt;m&gt;</b> to begin listening!</p>","","77","","","","","","","","","","","","","","","","","","","",""
"html-keyboard-response","61","1001785","0.0-7.0-2.0-0.0","01d92d17ed0ea9d99d2bac6381808c7ee69318be66dd3daf29c6bf4568786f8d","swim","swim","null","","<div style=""font-size:60px;"" tabindex=""0"">+</div>","","null","","","","","","","","","","","","","","","","","","","",""
"dual-task","null","null","null","","swim","swim","470.3999999985099","","t","null","88","88","1","arctic-dual-task","","t","lowercase","12000","0","2","01d92d17ed0ea9d99d2bac6381808c7ee69318be66dd3daf29c6bf4568786f8d","12002.89999999851","470.3999999985099","88","1","arctic","","","","",""
"dual-task","null","null","null","","swim","swim","495","","G","null","77","77","1","arctic-dual-task","","G","uppercase","20000","0","2","01d92d17ed0ea9d99d2bac6381808c7ee69318be66dd3daf29c6bf4568786f8d","20007.89999999851","495","77","1","arctic","","","","",""
"dual-task","null","null","null","","swim","swim","475","","e","null","88","88","1","arctic-dual-task","","e","lowercase","26000","0","2","01d92d17ed0ea9d99d2bac6381808c7ee69318be66dd3daf29c6bf4568786f8d","26008.79999999702","475","88","1","arctic","","","","",""
"dual-task","null","null","null","","swim","swim","451","","d","null","88","88","1","arctic-dual-task","","d","lowercase","36000","0","2","01d92d17ed0ea9d99d2bac6381808c7ee69318be66dd3daf29c6bf4568786f8d","36009.20000000298","451","88","1","arctic","","","","",""
"dual-task","null","null","null","","swim","swim","431.30000000447035","","e","null","88","88","1","arctic-dual-task","","e","lowercase","48000","0","2","01d92d17ed0ea9d99d2bac6381808c7ee69318be66dd3daf29c6bf4568786f8d","48003.20000000298","431.30000000447035","88","1","arctic","","","","",""
"dual-task","null","null","null","","swim","swim","491.5","","f","null","88","88","1","arctic-dual-task","","f","lowercase","54000","0","2","01d92d17ed0ea9d99d2bac6381808c7ee69318be66dd3daf29c6bf4568786f8d","54013.39999999851","491.5","88","1","arctic","","","","",""
"dual-task","null","null","null","","swim","swim","509.20000000298023","","n","null","88","88","1","arctic-dual-task","","n","lowercase","62000","0","2","01d92d17ed0ea9d99d2bac6381808c7ee69318be66dd3daf29c6bf4568786f8d","62010.29999999702","509.20000000298023","88","1","arctic","","","","",""
"dual-task","null","null","null","","swim","swim","448.80000000447035","","e","null","88","88","1","arctic-dual-task","","e","lowercase","72000","0","2","01d92d17ed0ea9d99d2bac6381808c7ee69318be66dd3daf29c6bf4568786f8d","72013.10000000149","448.80000000447035","88","1","arctic","","","","",""
"dual-task","null","null","null","","swim","swim","410.6000000014901","","H","null","88","77","0","arctic-dual-task","","H","uppercase","78000","0","2","01d92d17ed0ea9d99d2bac6381808c7ee69318be66dd3daf29c6bf4568786f8d","78012.39999999851","410.6000000014901","88","0","arctic","","","","",""
"dual-task","null","null","null","","swim","swim","536.8999999985099","","n","null","88","88","1","arctic-dual-task","","n","lowercase","90000","0","2","01d92d17ed0ea9d99d2bac6381808c7ee69318be66dd3daf29c6bf4568786f8d","90003.39999999851","536.8999999985099","88","1","arctic","","","","",""
"dual-task","null","null","null","","swim","swim","422.29999999701977","","q","null","77","88","0","arctic-dual-task","","q","lowercase","96000","0","2","01d92d17ed0ea9d99d2bac6381808c7ee69318be66dd3daf29c6bf4568786f8d","96003.89999999851","422.29999999701977","77","0","arctic","","","","",""
"dual-task","null","null","null","","swim","swim","389.5","","D","null","88","77","0","arctic-dual-task","","D","uppercase","102000","0","2","01d92d17ed0ea9d99d2bac6381808c7ee69318be66dd3daf29c6bf4568786f8d","102007.89999999851","389.5","88","0","arctic","","","","",""
"dual-task","null","null","null","","swim","swim","633.8000000044703","","g","null","88","88","1","arctic-dual-task","","g","lowercase","114000","0","2","01d92d17ed0ea9d99d2bac6381808c7ee69318be66dd3daf29c6bf4568786f8d","114009.89999999851","633.8000000044703","88","1","arctic","","","","",""
"dual-task","null","null","null","","swim","swim","493.20000000298023","","b","null","88","88","1","arctic-dual-task","","b","lowercase","126000","0","2","01d92d17ed0ea9d99d2bac6381808c7ee69318be66dd3daf29c6bf4568786f8d","126007.5","493.20000000298023","88","1","arctic","","","","",""
"dual-task","null","null","null","","swim","swim","500","","B","null","77","77","1","arctic-dual-task","","B","uppercase","138000","0","2","01d92d17ed0ea9d99d2bac6381808c7ee69318be66dd3daf29c6bf4568786f8d","138012.6000000015","500","77","1","arctic","","","","",""
"dual-task","null","null","null","","swim","swim","408.29999999701977","","a","null","88","88","1","arctic-dual-task","","a","lowercase","148000","0","2","01d92d17ed0ea9d99d2bac6381808c7ee69318be66dd3daf29c6bf4568786f8d","148005.8999999985","408.29999999701977","88","1","arctic","","","","",""
"dual-task","null","null","null","","swim","swim","589.3000000044703","","Q","null","77","77","1","arctic-dual-task","","Q","uppercase","158000","0","2","01d92d17ed0ea9d99d2bac6381808c7ee69318be66dd3daf29c6bf4568786f8d","158004.3999999985","589.3000000044703","77","1","arctic","","","","",""
"dual-task","null","null","null","","swim","swim","612.5999999940395","","E","null","77","77","1","arctic-dual-task","","E","uppercase","166000","0","2","01d92d17ed0ea9d99d2bac6381808c7ee69318be66dd3daf29c6bf4568786f8d","166004.70000000298","612.5999999940395","77","1","arctic","","","","",""
"dual-task","null","null","null","","swim","swim","574.5","","t","null","88","88","1","arctic-dual-task","","t","lowercase","174000","0","2","01d92d17ed0ea9d99d2bac6381808c7ee69318be66dd3daf29c6bf4568786f8d","174009.1000000015","574.5","88","1","arctic","","","","",""
"dual-task","null","null","null","","swim","swim","393.19999999552965","","A","null","77","77","1","arctic-dual-task","","A","uppercase","182000","0","2","01d92d17ed0ea9d99d2bac6381808c7ee69318be66dd3daf29c6bf4568786f8d","182009","393.19999999552965","77","1","arctic","","","","",""
"dual-task","null","null","null","","swim","swim","477","","r","null","88","88","1","arctic-dual-task","","r","lowercase","190000","0","2","01d92d17ed0ea9d99d2bac6381808c7ee69318be66dd3daf29c6bf4568786f8d","190009.79999999702","477","88","1","arctic","","","","",""
"dual-task","null","null","null","","swim","swim","493.09999999403954","","a","null","88","88","1","arctic-dual-task","","a","lowercase","198000","0","2","01d92d17ed0ea9d99d2bac6381808c7ee69318be66dd3daf29c6bf4568786f8d","198000","493.09999999403954","88","1","arctic","","","","",""
"dual-task","null","null","null","","swim","swim","627.1999999955297","","D","null","77","77","1","arctic-dual-task","","D","uppercase","210000","0","2","01d92d17ed0ea9d99d2bac6381808c7ee69318be66dd3daf29c6bf4568786f8d","210014.6000000015","627.1999999955297","77","1","arctic","","","","",""
"dual-task","null","null","null","","swim","swim","564.2999999970198","","R","null","77","77","1","arctic-dual-task","","R","uppercase","222000","0","2","01d92d17ed0ea9d99d2bac6381808c7ee69318be66dd3daf29c6bf4568786f8d","222010.5","564.2999999970198","77","1","arctic","","","","",""
"dual-task","null","null","null","","swim","swim","473.09999999403954","","R","null","77","77","1","arctic-dual-task","","R","uppercase","236000","0","2","01d92d17ed0ea9d99d2bac6381808c7ee69318be66dd3daf29c6bf4568786f8d","236008.70000000298","473.09999999403954","77","1","arctic","","","","",""
"dual-task","null","null","null","","swim","swim","487","","E","null","77","77","1","arctic-dual-task","","E","uppercase","250000","0","2","01d92d17ed0ea9d99d2bac6381808c7ee69318be66dd3daf29c6bf4568786f8d","250010.79999999702","487","77","1","arctic","","","","",""
"dual-task","null","null","null","","swim","swim","473.19999999552965","","E","null","77","77","1","arctic-dual-task","","E","uppercase","258000","0","2","01d92d17ed0ea9d99d2bac6381808c7ee69318be66dd3daf29c6bf4568786f8d","258001.20000000298","473.19999999552965","77","1","arctic","","","","",""
"dual-task","null","null","null","","swim","swim","450.69999999552965","","r","null","88","88","1","arctic-dual-task","","r","lowercase","268000","0","2","01d92d17ed0ea9d99d2bac6381808c7ee69318be66dd3daf29c6bf4568786f8d","268002.1000000015","450.69999999552965","88","1","arctic","","","","",""
"dual-task","null","null","null","","swim","swim","437.19999999552965","","f","null","88","88","1","arctic-dual-task","","f","lowercase","278000","0","2","01d92d17ed0ea9d99d2bac6381808c7ee69318be66dd3daf29c6bf4568786f8d","278002.200000003","437.19999999552965","88","1","arctic","","","","",""
"dual-task","null","null","null","","swim","swim","492.1000000014901","","t","null","88","88","1","arctic-dual-task","","t","lowercase","284000","0","2","01d92d17ed0ea9d99d2bac6381808c7ee69318be66dd3daf29c6bf4568786f8d","284012.799999997","492.1000000014901","88","1","arctic","","","","",""
"dual-task","null","null","null","","swim","swim","570.7999999970198","","Q","null","77","77","1","arctic-dual-task","","Q","uppercase","292000","0","2","01d92d17ed0ea9d99d2bac6381808c7ee69318be66dd3daf29c6bf4568786f8d","292012.6000000015","570.7999999970198","77","1","arctic","","","","",""
"dual-task","null","null","null","","swim","swim","407.1000000014901","","d","null","88","88","1","arctic-dual-task","","d","lowercase","304000","0","2","01d92d17ed0ea9d99d2bac6381808c7ee69318be66dd3daf29c6bf4568786f8d","304015.8999999985","407.1000000014901","88","1","arctic","","","","",""
"dual-task","null","null","null","","swim","swim","416.5","","N","null","77","77","1","arctic-dual-task","","N","uppercase","310000","0","2","01d92d17ed0ea9d99d2bac6381808c7ee69318be66dd3daf29c6bf4568786f8d","310007.8999999985","416.5","77","1","arctic","","","","",""
"dual-task","null","null","null","","swim","swim","495.6000000014901","","N","null","77","77","1","arctic-dual-task","","N","uppercase","322000","0","2","01d92d17ed0ea9d99d2bac6381808c7ee69318be66dd3daf29c6bf4568786f8d","322012.799999997","495.6000000014901","77","1","arctic","","","","",""
"dual-task","null","null","null","","swim","swim","466.5","","q","null","88","88","1","arctic-dual-task","","q","lowercase","336000","0","2","01d92d17ed0ea9d99d2bac6381808c7ee69318be66dd3daf29c6bf4568786f8d","336002.6000000015","466.5","88","1","arctic","","","","",""
"dual-task","null","null","null","","swim","swim","755.9000000059605","","F","null","77","77","1","arctic-dual-task","","F","uppercase","344000","0","2","01d92d17ed0ea9d99d2bac6381808c7ee69318be66dd3daf29c6bf4568786f8d","344009.799999997","755.9000000059605","77","1","arctic","","","","",""
"dual-task","null","null","null","","swim","swim","385.29999999701977","","e","null","88","88","1","arctic-dual-task","","e","lowercase","358000","0","2","01d92d17ed0ea9d99d2bac6381808c7ee69318be66dd3daf29c6bf4568786f8d","358013.5","385.29999999701977","88","1","arctic","","","","",""
"dual-task","null","null","null","","swim","swim","433.3999999985099","","G","null","77","77","1","arctic-dual-task","","G","uppercase","370000","0","2","01d92d17ed0ea9d99d2bac6381808c7ee69318be66dd3daf29c6bf4568786f8d","370001.6000000015","433.3999999985099","77","1","arctic","","","","",""
"dual-task","null","null","null","","swim","swim","450.20000000298023","","T","null","77","77","1","arctic-dual-task","","T","uppercase","380000","0","2","01d92d17ed0ea9d99d2bac6381808c7ee69318be66dd3daf29c6bf4568786f8d","380005","450.20000000298023","77","1","arctic","","","","",""
"dual-task","null","null","null","","swim","swim","424.30000000447035","","h","null","88","88","1","arctic-dual-task","","h","lowercase","392000","0","2","01d92d17ed0ea9d99d2bac6381808c7ee69318be66dd3daf29c6bf4568786f8d","392006.700000003","424.30000000447035","88","1","arctic","","","","",""
"dual-task","null","null","null","","swim","swim","499.3999999985099","","n","null","88","88","1","arctic-dual-task","","n","lowercase","400000","0","2","01d92d17ed0ea9d99d2bac6381808c7ee69318be66dd3daf29c6bf4568786f8d","400003.6000000015","499.3999999985099","88","1","arctic","","","","",""
"dual-task","null","null","null","","swim","swim","475.90000000596046","","f","null","88","88","1","arctic-dual-task","","f","lowercase","408000","0","2","01d92d17ed0ea9d99d2bac6381808c7ee69318be66dd3daf29c6bf4568786f8d","408015.299999997","475.90000000596046","88","1","arctic","","","","",""
"dual-task","null","null","null","","swim","swim","633.2000000029802","","q","null","88","88","1","arctic-dual-task","","q","lowercase","420000","0","2","01d92d17ed0ea9d99d2bac6381808c7ee69318be66dd3daf29c6bf4568786f8d","420009.8999999985","633.2000000029802","88","1","arctic","","","","",""
"dual-task","null","null","null","","swim","swim","591.1000000014901","","D","null","77","77","1","arctic-dual-task","","D","uppercase","430000","0","2","01d92d17ed0ea9d99d2bac6381808c7ee69318be66dd3daf29c6bf4568786f8d","430005.700000003","591.1000000014901","77","1","arctic","","","","",""
"dual-task","null","null","null","","swim","swim","448.30000000447035","","b","null","88","88","1","arctic-dual-task","","b","lowercase","442000","0","2","01d92d17ed0ea9d99d2bac6381808c7ee69318be66dd3daf29c6bf4568786f8d","442013.8999999985","448.30000000447035","88","1","arctic","","","","",""
"dual-task","null","null","null","","swim","swim","468.19999999552965","","H","null","77","77","1","arctic-dual-task","","H","uppercase","456000","0","2","01d92d17ed0ea9d99d2bac6381808c7ee69318be66dd3daf29c6bf4568786f8d","456015.1000000015","468.19999999552965","77","1","arctic","","","","",""
"dual-task","null","null","null","","swim","swim","466.1000000014901","","g","null","88","88","1","arctic-dual-task","","g","lowercase","464000","0","2","01d92d17ed0ea9d99d2bac6381808c7ee69318be66dd3daf29c6bf4568786f8d","464003.799999997","466.1000000014901","88","1","arctic","","","","",""
"dual-task","null","null","null","","swim","swim","467.69999999552965","","R","null","77","77","1","arctic-dual-task","","R","uppercase","470000","0","2","01d92d17ed0ea9d99d2bac6381808c7ee69318be66dd3daf29c6bf4568786f8d","470000.6000000015","467.69999999552965","77","1","arctic","","","","",""
"dual-task","null","null","null","","swim","swim","476.09999999403954","","H","null","77","77","1","arctic-dual-task","","H","uppercase","476000","0","2","01d92d17ed0ea9d99d2bac6381808c7ee69318be66dd3daf29c6bf4568786f8d","476011.6000000015","476.09999999403954","77","1","arctic","","","","",""
"dual-task","null","null","null","","swim","swim","480.59999999403954","","R","null","77","77","1","arctic-dual-task","","R","uppercase","490000","0","2","01d92d17ed0ea9d99d2bac6381808c7ee69318be66dd3daf29c6bf4568786f8d","490015.6000000015","480.59999999403954","77","1","arctic","","","","",""
"dual-task","null","null","null","","swim","swim","507","","n","null","88","88","1","arctic-dual-task","","n","lowercase","502000","0","2","01d92d17ed0ea9d99d2bac6381808c7ee69318be66dd3daf29c6bf4568786f8d","502006.200000003","507","88","1","arctic","","","","",""
"dual-task","null","null","null","","swim","swim","465.20000000298023","","B","null","77","77","1","arctic-dual-task","","B","uppercase","510000","0","2","01d92d17ed0ea9d99d2bac6381808c7ee69318be66dd3daf29c6bf4568786f8d","510015.6000000015","465.20000000298023","77","1","arctic","","","","",""
"dual-task","null","null","null","","swim","swim","450.79999999701977","","G","null","77","77","1","arctic-dual-task","","G","uppercase","516000","0","2","01d92d17ed0ea9d99d2bac6381808c7ee69318be66dd3daf29c6bf4568786f8d","516011.6000000015","450.79999999701977","77","1","arctic","","","","",""
"dual-task","null","null","null","","swim","swim","405.1000000014901","","b","null","88","88","1","arctic-dual-task","","b","lowercase","526000","0","2","01d92d17ed0ea9d99d2bac6381808c7ee69318be66dd3daf29c6bf4568786f8d","526007.799999997","405.1000000014901","88","1","arctic","","","","",""
"dual-task","null","null","null","","swim","swim","509.6000000014901","","q","null","88","88","1","arctic-dual-task","","q","lowercase","538000","0","2","01d92d17ed0ea9d99d2bac6381808c7ee69318be66dd3daf29c6bf4568786f8d","538015.700000003","509.6000000014901","88","1","arctic","","","","",""
"dual-task","null","null","null","","swim","swim","534.7999999970198","","T","null","77","77","1","arctic-dual-task","","T","uppercase","552000","0","2","01d92d17ed0ea9d99d2bac6381808c7ee69318be66dd3daf29c6bf4568786f8d","552006.5","534.7999999970198","77","1","arctic","","","","",""
"dual-task","null","null","null","","swim","swim","480.90000000596046","","h","null","88","88","1","arctic-dual-task","","h","lowercase","564000","0","2","01d92d17ed0ea9d99d2bac6381808c7ee69318be66dd3daf29c6bf4568786f8d","564012.799999997","480.90000000596046","88","1","arctic","","","","",""
"dual-task","null","null","null","","swim","swim","381.3999999985099","","d","null","88","88","1","arctic-dual-task","","d","lowercase","572000","0","2","01d92d17ed0ea9d99d2bac6381808c7ee69318be66dd3daf29c6bf4568786f8d","572013.5","381.3999999985099","88","1","arctic","","","","",""
"dual-task","null","null","null","","swim","swim","482","","G","null","77","77","1","arctic-dual-task","","G","uppercase","582000","0","2","01d92d17ed0ea9d99d2bac6381808c7ee69318be66dd3daf29c6bf4568786f8d","582001.5","482","77","1","arctic","","","","",""
"dual-task","null","null","null","","swim","swim","496.1000000014901","","A","null","77","77","1","arctic-dual-task","","A","uppercase","590000","0","2","01d92d17ed0ea9d99d2bac6381808c7ee69318be66dd3daf29c6bf4568786f8d","590009.700000003","496.1000000014901","77","1","arctic","","","","",""
"dual-task","null","null","null","","swim","swim","437.6000000014901","","F","null","77","77","1","arctic-dual-task","","F","uppercase","596000","0","2","01d92d17ed0ea9d99d2bac6381808c7ee69318be66dd3daf29c6bf4568786f8d","596001.700000003","437.6000000014901","77","1","arctic","","","","",""
"dual-task","null","null","null","","swim","swim","504.3999999985099","","D","null","77","77","1","arctic-dual-task","","D","uppercase","604000","0","2","01d92d17ed0ea9d99d2bac6381808c7ee69318be66dd3daf29c6bf4568786f8d","604000.6000000015","504.3999999985099","77","1","arctic","","","","",""
"dual-task","null","null","null","","swim","swim","412.5","","f","null","77","88","0","arctic-dual-task","","f","lowercase","612000","0","2","01d92d17ed0ea9d99d2bac6381808c7ee69318be66dd3daf29c6bf4568786f8d","612011.8999999985","412.5","77","0","arctic","","","","",""
"dual-task","null","null","null","","swim","swim","536.9000000059605","","Q","null","77","77","1","arctic-dual-task","","Q","uppercase","624000","0","2","01d92d17ed0ea9d99d2bac6381808c7ee69318be66dd3daf29c6bf4568786f8d","624014.700000003","536.9000000059605","77","1","arctic","","","","",""
"dual-task","null","null","null","","swim","swim","433.5","","r","null","88","88","1","arctic-dual-task","","r","lowercase","632000","0","2","01d92d17ed0ea9d99d2bac6381808c7ee69318be66dd3daf29c6bf4568786f8d","632000.700000003","433.5","88","1","arctic","","","","",""
"dual-task","null","null","null","","swim","swim","478","","a","null","88","88","1","arctic-dual-task","","a","lowercase","644000","0","2","01d92d17ed0ea9d99d2bac6381808c7ee69318be66dd3daf29c6bf4568786f8d","644002.299999997","478","88","1","arctic","","","","",""
"dual-task","null","null","null","","swim","swim","432.6000000014901","","g","null","88","88","1","arctic-dual-task","","g","lowercase","654000","0","2","01d92d17ed0ea9d99d2bac6381808c7ee69318be66dd3daf29c6bf4568786f8d","654013.3999999985","432.6000000014901","88","1","arctic","","","","",""
"dual-task","null","null","null","","swim","swim","449.3999999985099","","B","null","77","77","1","arctic-dual-task","","B","uppercase","664000","0","2","01d92d17ed0ea9d99d2bac6381808c7ee69318be66dd3daf29c6bf4568786f8d","664009","449.3999999985099","77","1","arctic","","","","",""
"dual-task","null","null","null","","swim","swim","464.30000000447035","","N","null","77","77","1","arctic-dual-task","","N","uppercase","672000","0","2","01d92d17ed0ea9d99d2bac6381808c7ee69318be66dd3daf29c6bf4568786f8d","672003.8999999985","464.30000000447035","77","1","arctic","","","","",""
"dual-task","null","null","null","","swim","swim","433.30000000447035","","T","null","77","77","1","arctic-dual-task","","T","uppercase","678000","0","2","01d92d17ed0ea9d99d2bac6381808c7ee69318be66dd3daf29c6bf4568786f8d","678000.299999997","433.30000000447035","77","1","arctic","","","","",""
"dual-task","null","null","null","","swim","swim","414.5","","N","null","77","77","1","arctic-dual-task","","N","uppercase","686000","0","2","01d92d17ed0ea9d99d2bac6381808c7ee69318be66dd3daf29c6bf4568786f8d","686007.6000000015","414.5","77","1","arctic","","","","",""
"dual-task","null","null","null","","swim","swim","524.8999999985099","","T","null","77","77","1","arctic-dual-task","","T","uppercase","698000","0","2","01d92d17ed0ea9d99d2bac6381808c7ee69318be66dd3daf29c6bf4568786f8d","698008.6000000015","524.8999999985099","77","1","arctic","","","","",""
"dual-task","null","null","null","","swim","swim","397.20000000298023","","A","null","77","77","1","arctic-dual-task","","A","uppercase","712000","0","2","01d92d17ed0ea9d99d2bac6381808c7ee69318be66dd3daf29c6bf4568786f8d","712002.299999997","397.20000000298023","77","1","arctic","","","","",""
"dual-task","null","null","null","","swim","swim","462.69999999552965","","F","null","77","77","1","arctic-dual-task","","F","uppercase","718000","0","2","01d92d17ed0ea9d99d2bac6381808c7ee69318be66dd3daf29c6bf4568786f8d","718001.6000000015","462.69999999552965","77","1","arctic","","","","",""
"dual-task","null","null","null","","swim","swim","485.70000000298023","","b","null","88","88","1","arctic-dual-task","","b","lowercase","732000","0","2","01d92d17ed0ea9d99d2bac6381808c7ee69318be66dd3daf29c6bf4568786f8d","732015.700000003","485.70000000298023","88","1","arctic","","","","",""
"dual-task","null","null","null","","swim","swim","411.30000000447035","","H","null","77","77","1","arctic-dual-task","","H","uppercase","738000","0","2","01d92d17ed0ea9d99d2bac6381808c7ee69318be66dd3daf29c6bf4568786f8d","738009.8999999985","411.30000000447035","77","1","arctic","","","","",""
"dual-task","null","null","null","","swim","swim","412","","B","null","77","77","1","arctic-dual-task","","B","uppercase","752000","0","2","01d92d17ed0ea9d99d2bac6381808c7ee69318be66dd3daf29c6bf4568786f8d","752010.3999999985","412","77","1","arctic","","","","",""
"dual-task","null","null","null","","swim","swim","506.09999999403954","","r","null","88","88","1","arctic-dual-task","","r","lowercase","760000","0","2","01d92d17ed0ea9d99d2bac6381808c7ee69318be66dd3daf29c6bf4568786f8d","760012.1000000015","506.09999999403954","88","1","arctic","","","","",""
"dual-task","null","null","null","","swim","swim","428.29999999701977","","h","null","88","88","1","arctic-dual-task","","h","lowercase","768000","0","2","01d92d17ed0ea9d99d2bac6381808c7ee69318be66dd3daf29c6bf4568786f8d","768004.5","428.29999999701977","88","1","arctic","","","","",""
"dual-task","null","null","null","","swim","swim","427.1000000014901","","t","null","88","88","1","arctic-dual-task","","t","lowercase","780000","0","2","01d92d17ed0ea9d99d2bac6381808c7ee69318be66dd3daf29c6bf4568786f8d","780002.799999997","427.1000000014901","88","1","arctic","","","","",""
"audio-keyboard-response","62","1799956","0.0-7.0-2.0-1.0","01d92d17ed0ea9d99d2bac6381808c7ee69318be66dd3daf29c6bf4568786f8d","swim","swim","null","","audio/story_arctic.mp3","","null","","","","","","","","","","","","","","","","","","","",""
"html-button-response","63","1803682","0.0-7.0-2.0-2.0","01d92d17ed0ea9d99d2bac6381808c7ee69318be66dd3daf29c6bf4568786f8d","swim","swim","3725","","<p>This concludes the story. Thank you for listening.</p><p>You will now answer some questions about the content of the story.</p>","0","","","","","","","","","","","","","","","","","","","","",""
"survey-multi-choice","64","1813069","0.0-7.0-2.0-3.0-0.0","01d92d17ed0ea9d99d2bac6381808c7ee69318be66dd3daf29c6bf4568786f8d","swim","swim","9386","","<b>How did the narrator prepare for her expedition?</b>","","","","1","arctic-comprehension","","","","","","","","","","","","","{""Q0"":""Trained in Alaska learning how to dogsled""}","","","",""
"survey-multi-choice","65","1816717","0.0-7.0-2.0-3.0-0.1","01d92d17ed0ea9d99d2bac6381808c7ee69318be66dd3daf29c6bf4568786f8d","swim","swim","3396","","<b>What is the name of the narrator&#39;s neighbour?</b>","","","","1","arctic-comprehension","","","","","","","","","","","","","{""Q0"":""Dave""}","","","",""
"survey-multi-choice","66","1820860","0.0-7.0-2.0-3.0-0.2","01d92d17ed0ea9d99d2bac6381808c7ee69318be66dd3daf29c6bf4568786f8d","swim","swim","3890","","<b>What were the weather conditions in the Arctic like the winter of the narrator&#39;s expedition?</b>","","","","1","arctic-comprehension","","","","","","","","","","","","","{""Q0"":""There were more storms than any other winter in recorded history.""}","","","",""
"survey-multi-choice","67","1824880","0.0-7.0-2.0-3.0-0.3","01d92d17ed0ea9d99d2bac6381808c7ee69318be66dd3daf29c6bf4568786f8d","swim","swim","3768","","<b>Which dog on the narrator&#39;s dog team never followed instructions?</b>","","","","1","arctic-comprehension","","","","","","","","","","","","","{""Q0"":""Robert""}","","","",""
"survey-multi-choice","68","1827432","0.0-7.0-2.0-3.0-0.4","01d92d17ed0ea9d99d2bac6381808c7ee69318be66dd3daf29c6bf4568786f8d","swim","swim","2287","","<b>How many sponsorships did the narrator receive to support her expedition?</b>","","","","1","arctic-comprehension","","","","","","","","","","","","","{""Q0"":""None""}","","","",""
"survey-multi-choice","69","1831293","0.0-7.0-2.0-3.0-0.5","01d92d17ed0ea9d99d2bac6381808c7ee69318be66dd3daf29c6bf4568786f8d","swim","swim","3608","","<b>What did the narrator do for leisure while in her tent?</b>","","","","1","arctic-comprehension","","","","","","","","","","","","","{""Q0"":""Read""}","","","",""
"survey-multi-choice","70","1835477","0.0-7.0-2.0-3.0-0.6","01d92d17ed0ea9d99d2bac6381808c7ee69318be66dd3daf29c6bf4568786f8d","swim","swim","3932","","<b>What was the objective of the narrator&#39;s expedition?</b>","","","","1","arctic-comprehension","","","","","","","","","","","","","{""Q0"":""Dogsled across Arctic America""}","","","",""
"survey-multi-choice","71","1840486","0.0-7.0-2.0-3.0-0.7","01d92d17ed0ea9d99d2bac6381808c7ee69318be66dd3daf29c6bf4568786f8d","swim","swim","4754","","<b>How did the narrator&#39;s encounter with the polar bears end?</b>","","","","1","arctic-comprehension","","","","","","","","","","","","","{""Q0"":""The bears walked back to their den.""}","","","",""
"survey-multi-choice","72","1867922","0.0-7.0-2.0-3.0-0.8","01d92d17ed0ea9d99d2bac6381808c7ee69318be66dd3daf29c6bf4568786f8d","swim","swim","27185","","<b>How did the narrator&#39;s neighbour respond when she told him about her expedition?</b>","","","","1","arctic-comprehension","","","","","","","","","","","","","{""Q0"":""He said she was going to fail.""}","","","",""
"survey-multi-choice","73","1871565","0.0-7.0-2.0-3.0-0.9","01d92d17ed0ea9d99d2bac6381808c7ee69318be66dd3daf29c6bf4568786f8d","swim","swim","3390","","<b>How did the dogs respond when they saw the bears?</b>","","","","0","arctic-comprehension","","","","","","","","","","","","","{""Q0"":""Barked aggressively""}","","","",""
"html-button-response","74","1872787","0.0-7.0-2.0-4.0","01d92d17ed0ea9d99d2bac6381808c7ee69318be66dd3daf29c6bf4568786f8d","swim","swim","971","","<p>Thank you for your responses.</p><p>You will now answer some questions about your impressions of the story.</p>","0","","","","","","","","","","","","","","","","","","","","",""
"html-button-response","75","1874341","0.0-7.0-2.0-5.0-0.0","01d92d17ed0ea9d99d2bac6381808c7ee69318be66dd3daf29c6bf4568786f8d","swim","swim","1553","","E6","6","","","","arctic-engagement","","","","","","","","","","","","","","7","enjoyment","",""
"html-button-response","76","1876497","0.0-7.0-2.0-5.0-0.1","01d92d17ed0ea9d99d2bac6381808c7ee69318be66dd3daf29c6bf4568786f8d","swim","swim","1905","","EE5","4","","","","arctic-engagement","","","","","","","","","","","","","","5","emo-engage","",""
"html-button-response","77","1878623","0.0-7.0-2.0-5.0-0.2","01d92d17ed0ea9d99d2bac6381808c7ee69318be66dd3daf29c6bf4568786f8d","swim","swim","1875","","A5","4","","","","arctic-engagement","","","","","","","","","","","","","","5","absorption","",""
"html-button-response","78","1880666","0.0-7.0-2.0-5.0-0.3","01d92d17ed0ea9d99d2bac6381808c7ee69318be66dd3daf29c6bf4568786f8d","swim","swim","1790","","MS1","5","","","","arctic-engagement","","","","","","","","","","","","","","6","mental-sim","",""
"html-button-response","79","1882854","0.0-7.0-2.0-5.0-0.4","01d92d17ed0ea9d99d2bac6381808c7ee69318be66dd3daf29c6bf4568786f8d","swim","swim","1937","","MS3","5","","","","arctic-engagement","","","","","","","","","","","","","","6","mental-sim","",""
"html-button-response","80","1885022","0.0-7.0-2.0-5.0-0.5","01d92d17ed0ea9d99d2bac6381808c7ee69318be66dd3daf29c6bf4568786f8d","swim","swim","1918","","EE4","3","","","","arctic-engagement","","","","","","","","","","","","","","4","emo-engage","",""
"html-button-response","81","1887956","0.0-7.0-2.0-5.0-0.6","01d92d17ed0ea9d99d2bac6381808c7ee69318be66dd3daf29c6bf4568786f8d","swim","swim","2681","","E10","6","","","","arctic-engagement","","","","","","","","","","","","","","7","enjoyment","",""
"html-button-response","82","1889721","0.0-7.0-2.0-5.0-0.7","01d92d17ed0ea9d99d2bac6381808c7ee69318be66dd3daf29c6bf4568786f8d","swim","swim","1513","","A2","4","","","","arctic-engagement","","","","","","","","","","","","","","5","absorption","",""
"html-button-response","83","1893019","0.0-7.0-2.0-5.0-0.8","01d92d17ed0ea9d99d2bac6381808c7ee69318be66dd3daf29c6bf4568786f8d","swim","swim","3046","","EE1","4","","","","arctic-engagement","","","","","","","","","","","","","","5","emo-engage","",""
"html-button-response","84","1894571","0.0-7.0-2.0-5.0-0.9","01d92d17ed0ea9d99d2bac6381808c7ee69318be66dd3daf29c6bf4568786f8d","swim","swim","1300","","E8","5","","","","arctic-engagement","","","","","","","","","","","","","","6","enjoyment","",""
"html-button-response","85","1896057","0.0-7.0-2.0-5.0-0.10","01d92d17ed0ea9d99d2bac6381808c7ee69318be66dd3daf29c6bf4568786f8d","swim","swim","1235","","EE3","4","","","","arctic-engagement","","","","","","","","","","","","","","5","emo-engage","",""
"html-button-response","86","1897677","0.0-7.0-2.0-5.0-0.11","01d92d17ed0ea9d99d2bac6381808c7ee69318be66dd3daf29c6bf4568786f8d","swim","swim","1370","","E1","6","","","","arctic-engagement","","","","","","","","","","","","","","7","enjoyment","",""
"html-button-response","87","1900080","0.0-7.0-2.0-5.0-0.12","01d92d17ed0ea9d99d2bac6381808c7ee69318be66dd3daf29c6bf4568786f8d","swim","swim","2151","","EE2","3","","","","arctic-engagement","","","","","","","","","","","","","","4","emo-engage","",""
"html-button-response","88","1901944","0.0-7.0-2.0-5.0-0.13","01d92d17ed0ea9d99d2bac6381808c7ee69318be66dd3daf29c6bf4568786f8d","swim","swim","1613","","E7","5","","","","arctic-engagement","","","","","","","","","","","","","","6","enjoyment","",""
"html-button-response","89","1903462","0.0-7.0-2.0-5.0-0.14","01d92d17ed0ea9d99d2bac6381808c7ee69318be66dd3daf29c6bf4568786f8d","swim","swim","1266","","A4","4","","","","arctic-engagement","","","","","","","","","","","","","","5","absorption","",""
"html-button-response","90","1905444","0.0-7.0-2.0-5.0-0.15","01d92d17ed0ea9d99d2bac6381808c7ee69318be66dd3daf29c6bf4568786f8d","swim","swim","1731","","A1","4","","","","arctic-engagement","","","","","","","","","","","","","","5","absorption","",""
"html-button-response","91","1906714","0.0-7.0-2.0-5.0-0.16","01d92d17ed0ea9d99d2bac6381808c7ee69318be66dd3daf29c6bf4568786f8d","swim","swim","1019","","A3","5","","","","arctic-engagement","","","","","","","","","","","","","","6","absorption","",""
"html-button-response","92","1909018","0.0-7.0-2.0-5.0-0.17","01d92d17ed0ea9d99d2bac6381808c7ee69318be66dd3daf29c6bf4568786f8d","swim","swim","2052","","MS2","3","","","","arctic-engagement","","","","","","","","","","","","","","4","mental-sim","",""
"html-button-response","93","1910190","0.0-8.0","01d92d17ed0ea9d99d2bac6381808c7ee69318be66dd3daf29c6bf4568786f8d","swim","swim","920","","<p>Thank you for your responses.</p><p>You will now answer some demographic, hearing, and general health questions.</p>","0","","","","","","","","","","","","","","","","","","","","",""
"survey-multi-choice","94","1912181","0.0-9.0-0.0","01d92d17ed0ea9d99d2bac6381808c7ee69318be66dd3daf29c6bf4568786f8d","swim","swim","1989","","","","","","","survey","","","","","","","","","","","","","{""Q0"":""Chrome""}","","","browser",""
"survey-text","95","1915313","0.0-9.0-1.0","01d92d17ed0ea9d99d2bac6381808c7ee69318be66dd3daf29c6bf4568786f8d","swim","swim","2879.2999999970198","","","","","","","survey","","","","","","","","","","","","","{""AGE"":""29""}","","","age","29"
"survey-multi-choice","96","1917101","0.0-9.0-2.0","01d92d17ed0ea9d99d2bac6381808c7ee69318be66dd3daf29c6bf4568786f8d","swim","swim","1536","","","","","","","survey","","","","","","","","","","","","","{""Q0"":""Male""}","","","gender","Male"
"survey-multi-choice","97","1918870","0.0-9.0-4.0","01d92d17ed0ea9d99d2bac6381808c7ee69318be66dd3daf29c6bf4568786f8d","swim","swim","1515","","","","","","","survey","","","","","","","","","","","","","{""Q0"":""Right""}","","","handedness","Right"
"survey-multi-choice","98","1921242","0.0-9.0-5.0","01d92d17ed0ea9d99d2bac6381808c7ee69318be66dd3daf29c6bf4568786f8d","swim","swim","2119","","","","","","","survey","","","","","","","","","","","","","{""Q0"":""Bachelor's Degree""}","","","education","Bachelor's Degree"
"survey-text","99","1924673","0.0-10.0-0.0","01d92d17ed0ea9d99d2bac6381808c7ee69318be66dd3daf29c6bf4568786f8d","swim","swim","3178.2000000029802","","","","","","","survey","","","","","","","","","","","","","{""L1"":""English""}","","","first-language","English"
"survey-text","100","1928889","0.0-10.0-1.0","01d92d17ed0ea9d99d2bac6381808c7ee69318be66dd3daf29c6bf4568786f8d","swim","swim","3955.89999999851","","","","","","","survey","","","","","","","","","","","","","{""L2name"":"""",""L2fluency"":"""",""L3name"":"""",""L3fluency"":"""",""L4name"":"""",""L4fluency"":""""}","","","additional-languages","{""L2name"":"""",""L2fluency"":"""",""L3name"":"""",""L3fluency"":"""",""L4name"":"""",""L4fluency"":""""}"
"survey-multi-choice","101","1932273","0.0-10.0-2.0","01d92d17ed0ea9d99d2bac6381808c7ee69318be66dd3daf29c6bf4568786f8d","swim","swim","3132","","","","","","","survey","","","","","","","","","","","","","{""Q0"":""No""}","","","hearing-aid","No"
"survey-multi-choice","102","1935745","0.0-10.0-3.0","01d92d17ed0ea9d99d2bac6381808c7ee69318be66dd3daf29c6bf4568786f8d","swim","swim","3221","","","","","","","survey","","","","","","","","","","","","","{""Q0"":""Never""}","","","ringing-ears","Never"
"survey-multi-choice","103","1939556","0.0-10.0-5.0","01d92d17ed0ea9d99d2bac6381808c7ee69318be66dd3daf29c6bf4568786f8d","swim","swim","3558","","","","","","","survey","","","","","","","","","","","","","{""Q0"":""Yes""}","","","neuro-disease","Yes"
"survey-text","104","1945671","0.0-10.0-6.0-0.0","01d92d17ed0ea9d99d2bac6381808c7ee69318be66dd3daf29c6bf4568786f8d","swim","swim","5862.60000000149","","","","","","","survey","","","","","","","","","","","","","{""ND2"":""Multiple Sclerosis""}","","","neuro-disease-clarify","Multiple Sclerosis"
"survey-multi-choice","105","1948375","0.0-10.0-7.0","01d92d17ed0ea9d99d2bac6381808c7ee69318be66dd3daf29c6bf4568786f8d","swim","swim","2451","","","","","","","survey","","","","","","","","","","","","","{""Q0"":""Yes""}","","","take-meds","Yes"
"survey-text","106","1961406","0.0-10.0-8.0-0.0","01d92d17ed0ea9d99d2bac6381808c7ee69318be66dd3daf29c6bf4568786f8d","swim","swim","12778.30000000447","","","","","","","survey","","","","","","","","","","","","","{""MED"":""immunosuppressant ""}","","","take-meds-clarify","immunosuppressant "
"survey-text","107","1965503","0.0-10.0-9.0","01d92d17ed0ea9d99d2bac6381808c7ee69318be66dd3daf29c6bf4568786f8d","swim","swim","3839.2000000029802","","","","","","","survey","","","","","","","","","","","","","{""HC"":""""}","","","health-concerns",""
"html-button-response","108","1968093","0.0-11.0-0.0","01d92d17ed0ea9d99d2bac6381808c7ee69318be66dd3daf29c6bf4568786f8d","swim","swim","2338","","<p>How would you describe your musical skills/experiences?</p>","2","","","","survey","","","","","","","","","","","","","","","","music-skill","3"
"survey-multi-choice","109","1971333","0.0-11.0-1.0","01d92d17ed0ea9d99d2bac6381808c7ee69318be66dd3daf29c6bf4568786f8d","swim","swim","2988","","","","","","","survey","","","","","","","","","","","","","{""Q0"":""No""}","","","music-instrument","No"
"html-button-response","110","1973264","0.0-12.0-0.0","01d92d17ed0ea9d99d2bac6381808c7ee69318be66dd3daf29c6bf4568786f8d","swim","swim","1679","","<p>How would you describe your general hearing abilities?</p>","4","","","","survey","","","","","","","","","","","","","","","","ssq-01","5"
"html-button-response","111","1980585","0.0-12.0-1.0","01d92d17ed0ea9d99d2bac6381808c7ee69318be66dd3daf29c6bf4568786f8d","swim","swim","7070","","<p>When you talk with someone at a place that strongly reverberates/echoes (e.g., in a church or train station),</br>can you understand what the person says?</p>","6","","","","survey","","","","","","","","","","","","","","","","ssq-02","6"
"html-button-response","112","1984328","0.0-12.0-2.0","01d92d17ed0ea9d99d2bac6381808c7ee69318be66dd3daf29c6bf4568786f8d","swim","swim","3491","","<p>When you are with a group (~5 people) in a lively restaurant, can you follow the group's conversation?</p>","6","","","","survey","","","","","","","","","","","","","","","","ssq-03","6"
"html-button-response","113","1988212","0.0-12.0-3.0","01d92d17ed0ea9d99d2bac6381808c7ee69318be66dd3daf29c6bf4568786f8d","swim","swim","3632","","<p>Based on the sound of a bus or truck, can you tell whether it is moving towards or away from you?</p>","8","","","","survey","","","","","","","","","","","","","","","","ssq-04","8"
"html-button-response","114","1992100","0.0-12.0-4.0","01d92d17ed0ea9d99d2bac6381808c7ee69318be66dd3daf29c6bf4568786f8d","swim","swim","3637","","<p>When you are in an unknown environment, can you tell from which direction a brief sound originates?</p>","6","","","","survey","","","","","","","","","","","","","","","","ssq-05","6"
"html-button-response","115","1995918","0.0-12.0-5.0","01d92d17ed0ea9d99d2bac6381808c7ee69318be66dd3daf29c6bf4568786f8d","swim","swim","3567","","<p>Are you able to ignore distracting sounds when you concentrate on a specific aspect of your acoustic surrounding?</p>","3","","","","survey","","","","","","","","","","","","","","","","ssq-06","3"
"fullscreen","116","1997171","0.0-13.0","01d92d17ed0ea9d99d2bac6381808c7ee69318be66dd3daf29c6bf4568786f8d","swim","swim","","","","","","","","","true","","","","","","","","","","","","","","","",""
