"trial_type","trial_index","time_elapsed","internal_node_id","ParticipantID","firstStory","scramStory","rt","url","stimulus","button_pressed","key_press","correctRESP","correct","designation","success","letterStim","letterType","ONSET","TIMEOUT","CONDITION","Participant","ONSET_ACTUAL","RT","RESP","ACC","STORY","responses","response","type","surveyQuestion","QRESP"
"pavlovia","0","2","0.0-0.0","b58f3ad0abcc38c21d4ac58d8a2c9e4ab4edefc31244736d47003ab347318f61","swim","swim","","","","","","","","","","","","","","","","","","","","","","","","",""
"external-html","1","20616","0.0-1.0","b58f3ad0abcc38c21d4ac58d8a2c9e4ab4edefc31244736d47003ab347318f61","swim","swim","20478","consent/consent_updated.html","","","","","","","","","","","","","","","","","","","","","","",""
"html-button-response","2","24027","0.0-2.0-0.0","b58f3ad0abcc38c21d4ac58d8a2c9e4ab4edefc31244736d47003ab347318f61","swim","swim","3411","","<p>Before we begin the main task, you will complete a short volume calibration and headphone check.</p><p>Please make sure you are in a quiet listening environment, that you are wearing headphones, and that your computer's volume is turned on.<p></p>","0","","","","","","","","","","","","","","","","","","","","",""
"html-button-response","3","26936","0.0-2.0-1.0","b58f3ad0abcc38c21d4ac58d8a2c9e4ab4edefc31244736d47003ab347318f61","swim","swim","2643","","<p>The volume calibration will be first.</p><p>You will hear a thirty-second noise. Please adjust your computer's volume so that this noise is being presented at a comfortable level.<p></p>","0","","","","","","","","","","","","","","","","","","","","",""
"audio-button-response","4","29565","0.0-2.0-2.0","b58f3ad0abcc38c21d4ac58d8a2c9e4ab4edefc31244736d47003ab347318f61","swim","swim","2370","","audio/volumetest.mp3","0","","","","","","","","","","","","","","","","","","","","",""
"html-keyboard-response","5","169656","0.0-3.0-0.0","b58f3ad0abcc38c21d4ac58d8a2c9e4ab4edefc31244736d47003ab347318f61","swim","swim","140090","","<p>You will now complete a short headphone check.</p><p>On each trial, you will hear three tones. One of these tones will be quieter than the others. Your task is to identify whether the quiet tone occurred first, second, or third.</p><p>There are six trials in total.<p></p><p></p>(Press SPACEBAR to begin)","","32","","","","","","","","","","","","","","","","","","","",""
"html-keyboard-response","6","170408","0.0-3.0-1.0-0.0","b58f3ad0abcc38c21d4ac58d8a2c9e4ab4edefc31244736d47003ab347318f61","swim","swim","null","","<div style=""font-size:60px;"">+</div>","","null","","","","","","","","","","","","","","","","","","","",""
"audio-button-response","7","174802","0.0-3.0-1.0-1.0","b58f3ad0abcc38c21d4ac58d8a2c9e4ab4edefc31244736d47003ab347318f61","swim","swim","4393","","audio/t2_2.mp3","1","","1","1","headphone-test","","","","","","","","","","","","","","","","",""
"html-keyboard-response","8","175303","0.0-3.0-1.0-2.0","b58f3ad0abcc38c21d4ac58d8a2c9e4ab4edefc31244736d47003ab347318f61","swim","swim","null","","<p>Correct</p>","","null","","","","","","","","","","","","","","","","","","","",""
"html-keyboard-response","9","175814","0.0-3.0-1.0-0.1","b58f3ad0abcc38c21d4ac58d8a2c9e4ab4edefc31244736d47003ab347318f61","swim","swim","null","","<div style=""font-size:60px;"">+</div>","","null","","","","","","","","","","","","","","","","","","","",""
"audio-button-response","10","180199","0.0-3.0-1.0-1.1","b58f3ad0abcc38c21d4ac58d8a2c9e4ab4edefc31244736d47003ab347318f61","swim","swim","4384","","audio/t1_1.mp3","0","","0","1","headphone-test","","","","","","","","","","","","","","","","",""
"html-keyboard-response","11","180699","0.0-3.0-1.0-2.1","b58f3ad0abcc38c21d4ac58d8a2c9e4ab4edefc31244736d47003ab347318f61","swim","swim","null","","<p>Correct</p>","","null","","","","","","","","","","","","","","","","","","","",""
"html-keyboard-response","12","181204","0.0-3.0-1.0-0.2","b58f3ad0abcc38c21d4ac58d8a2c9e4ab4edefc31244736d47003ab347318f61","swim","swim","null","","<div style=""font-size:60px;"">+</div>","","null","","","","","","","","","","","","","","","","","","","",""
"audio-button-response","13","185458","0.0-3.0-1.0-1.2","b58f3ad0abcc38c21d4ac58d8a2c9e4ab4edefc31244736d47003ab347318f61","swim","swim","4253","","audio/t3_1.mp3","2","","2","1","headphone-test","","","","","","","","","","","","","","","","",""
"html-keyboard-response","14","185959","0.0-3.0-1.0-2.2","b58f3ad0abcc38c21d4ac58d8a2c9e4ab4edefc31244736d47003ab347318f61","swim","swim","null","","<p>Correct</p>","","null","","","","","","","","","","","","","","","","","","","",""
"html-keyboard-response","15","186460","0.0-3.0-1.0-0.3","b58f3ad0abcc38c21d4ac58d8a2c9e4ab4edefc31244736d47003ab347318f61","swim","swim","null","","<div style=""font-size:60px;"">+</div>","","null","","","","","","","","","","","","","","","","","","","",""
"audio-button-response","16","191133","0.0-3.0-1.0-1.3","b58f3ad0abcc38c21d4ac58d8a2c9e4ab4edefc31244736d47003ab347318f61","swim","swim","4671","","audio/t2_1.mp3","1","","1","1","headphone-test","","","","","","","","","","","","","","","","",""
"html-keyboard-response","17","191647","0.0-3.0-1.0-2.3","b58f3ad0abcc38c21d4ac58d8a2c9e4ab4edefc31244736d47003ab347318f61","swim","swim","null","","<p>Correct</p>","","null","","","","","","","","","","","","","","","","","","","",""
"html-keyboard-response","18","192152","0.0-3.0-1.0-0.4","b58f3ad0abcc38c21d4ac58d8a2c9e4ab4edefc31244736d47003ab347318f61","swim","swim","null","","<div style=""font-size:60px;"">+</div>","","null","","","","","","","","","","","","","","","","","","","",""
"audio-button-response","19","196723","0.0-3.0-1.0-1.4","b58f3ad0abcc38c21d4ac58d8a2c9e4ab4edefc31244736d47003ab347318f61","swim","swim","4570","","audio/t3_2.mp3","2","","2","1","headphone-test","","","","","","","","","","","","","","","","",""
"html-keyboard-response","20","197225","0.0-3.0-1.0-2.4","b58f3ad0abcc38c21d4ac58d8a2c9e4ab4edefc31244736d47003ab347318f61","swim","swim","null","","<p>Correct</p>","","null","","","","","","","","","","","","","","","","","","","",""
"html-keyboard-response","21","197725","0.0-3.0-1.0-0.5","b58f3ad0abcc38c21d4ac58d8a2c9e4ab4edefc31244736d47003ab347318f61","swim","swim","null","","<div style=""font-size:60px;"">+</div>","","null","","","","","","","","","","","","","","","","","","","",""
"audio-button-response","22","202006","0.0-3.0-1.0-1.5","b58f3ad0abcc38c21d4ac58d8a2c9e4ab4edefc31244736d47003ab347318f61","swim","swim","4280","","audio/t1_2.mp3","0","","0","1","headphone-test","","","","","","","","","","","","","","","","",""
"html-keyboard-response","23","202509","0.0-3.0-1.0-2.5","b58f3ad0abcc38c21d4ac58d8a2c9e4ab4edefc31244736d47003ab347318f61","swim","swim","null","","<p>Correct</p>","","null","","","","","","","","","","","","","","","","","","","",""
"fullscreen","24","205139","0.0-4.0","b58f3ad0abcc38c21d4ac58d8a2c9e4ab4edefc31244736d47003ab347318f61","swim","swim","","","","","","","","","true","","","","","","","","","","","","","","","",""
"html-button-response","25","224030","0.0-5.0-0.0","b58f3ad0abcc38c21d4ac58d8a2c9e4ab4edefc31244736d47003ab347318f61","swim","swim","18890","","<p>There are two blocks to this experiment.</p><p>In each block, you will hear a ~13.5 minute story. One of the stories will be scrambled. Please listen carefully to both stories and understand them as best you can.</p><p>After each story, you will be asked some questions to assess your comprehension.</p>","0","","","","","","","","","","","","","","","","","","","","",""
"html-button-response","26","339468","0.0-5.0-1.0","b58f3ad0abcc38c21d4ac58d8a2c9e4ab4edefc31244736d47003ab347318f61","swim","swim","115437","","<p>During each story, there will be an additional task.</p><p>A letter will occasionally appear on the screen.</br>Your job is to - as quickly as you can - decide whether the letter is lowercase or uppercase and press one of two keys on the keyboard:</p><p>If the letter is <b>lowercase</b>, press key &lt;<b>x</b>&gt;.</p><p>If the letter is <b>uppercase</b>, press key &lt;<b>m</b>&gt;.</p>","0","","","","","","","","","","","","","","","","","","","","",""
"html-keyboard-response","27","344801","0.0-5.0-2.0","b58f3ad0abcc38c21d4ac58d8a2c9e4ab4edefc31244736d47003ab347318f61","swim","swim","5333","","<p>Because we want your responses to be as quick as possible, please keep your index fingers over the keys while listening.</p><p>Each block lasts about 20 minutes.</p><p><b>Press &lt;x&gt; or &lt;m&gt; to start the first block!</b></p>","","88","","","","","","","","","","","","","","","","","","","",""
"html-keyboard-response","28","345303","0.0-7.0-0.0-0.0","b58f3ad0abcc38c21d4ac58d8a2c9e4ab4edefc31244736d47003ab347318f61","swim","swim","null","","<div style=""font-size:60px;"" tabindex=""0"">+</div>","","null","","","","","","","","","","","","","","","","","","","",""
"dual-task","null","null","null","","swim","swim","NA","","F","null","NA","77","0","swim-dual-task","","F","uppercase","16000","1","4","b58f3ad0abcc38c21d4ac58d8a2c9e4ab4edefc31244736d47003ab347318f61","16000","NA","NA","0","swim","","","","",""
"dual-task","null","null","null","","swim","swim","NA","","D","null","NA","77","0","swim-dual-task","","D","uppercase","22000","1","4","b58f3ad0abcc38c21d4ac58d8a2c9e4ab4edefc31244736d47003ab347318f61","22012.5","NA","NA","0","swim","","","","",""
"dual-task","null","null","null","","swim","swim","1011.7000000476837","","B","null","77","77","1","swim-dual-task","","B","uppercase","36000","0","4","b58f3ad0abcc38c21d4ac58d8a2c9e4ab4edefc31244736d47003ab347318f61","36009.39999997616","1011.7000000476837","77","1","swim","","","","",""
"dual-task","null","null","null","","swim","swim","937.1999999880791","","G","null","77","77","1","swim-dual-task","","G","uppercase","46000","0","4","b58f3ad0abcc38c21d4ac58d8a2c9e4ab4edefc31244736d47003ab347318f61","46006","937.1999999880791","77","1","swim","","","","",""
"dual-task","null","null","null","","swim","swim","1033.1000000238419","","a","null","88","88","1","swim-dual-task","","a","lowercase","52000","0","4","b58f3ad0abcc38c21d4ac58d8a2c9e4ab4edefc31244736d47003ab347318f61","51999.799999952316","1033.1000000238419","88","1","swim","","","","",""
"dual-task","null","null","null","","swim","swim","NA","","r","null","NA","88","0","swim-dual-task","","r","lowercase","60000","1","4","b58f3ad0abcc38c21d4ac58d8a2c9e4ab4edefc31244736d47003ab347318f61","60003.19999998808","NA","NA","0","swim","","","","",""
"dual-task","null","null","null","","swim","swim","601.3999999761581","","B","null","77","77","1","swim-dual-task","","B","uppercase","70000","0","4","b58f3ad0abcc38c21d4ac58d8a2c9e4ab4edefc31244736d47003ab347318f61","70007.89999997616","601.3999999761581","77","1","swim","","","","",""
"dual-task","null","null","null","","swim","swim","612.6999999880791","","H","null","77","77","1","swim-dual-task","","H","uppercase","84000","0","4","b58f3ad0abcc38c21d4ac58d8a2c9e4ab4edefc31244736d47003ab347318f61","84010.89999997616","612.6999999880791","77","1","swim","","","","",""
"dual-task","null","null","null","","swim","swim","684.6999999880791","","t","null","88","88","1","swim-dual-task","","t","lowercase","90000","0","4","b58f3ad0abcc38c21d4ac58d8a2c9e4ab4edefc31244736d47003ab347318f61","90002","684.6999999880791","88","1","swim","","","","",""
"dual-task","null","null","null","","swim","swim","676.3999999761581","","T","null","77","77","1","swim-dual-task","","T","uppercase","102000","0","4","b58f3ad0abcc38c21d4ac58d8a2c9e4ab4edefc31244736d47003ab347318f61","102013.89999997616","676.3999999761581","77","1","swim","","","","",""
"dual-task","null","null","null","","swim","swim","661.6999999880791","","n","null","88","88","1","swim-dual-task","","n","lowercase","114000","0","4","b58f3ad0abcc38c21d4ac58d8a2c9e4ab4edefc31244736d47003ab347318f61","114007.5","661.6999999880791","88","1","swim","","","","",""
"dual-task","null","null","null","","swim","swim","700","","d","null","88","88","1","swim-dual-task","","d","lowercase","122000","0","4","b58f3ad0abcc38c21d4ac58d8a2c9e4ab4edefc31244736d47003ab347318f61","122000.5","700","88","1","swim","","","","",""
"dual-task","null","null","null","","swim","swim","515.1000000238419","","D","null","77","77","1","swim-dual-task","","D","uppercase","130000","0","4","b58f3ad0abcc38c21d4ac58d8a2c9e4ab4edefc31244736d47003ab347318f61","130001.89999997616","515.1000000238419","77","1","swim","","","","",""
"dual-task","null","null","null","","swim","swim","600.3000000119209","","B","null","77","77","1","swim-dual-task","","B","uppercase","142000","0","4","b58f3ad0abcc38c21d4ac58d8a2c9e4ab4edefc31244736d47003ab347318f61","142001.19999998808","600.3000000119209","77","1","swim","","","","",""
"dual-task","null","null","null","","swim","swim","553.0999999642372","","E","null","77","77","1","swim-dual-task","","E","uppercase","148000","0","4","b58f3ad0abcc38c21d4ac58d8a2c9e4ab4edefc31244736d47003ab347318f61","148011.5","553.0999999642372","77","1","swim","","","","",""
"dual-task","null","null","null","","swim","swim","635.7000000476837","","T","null","77","77","1","swim-dual-task","","T","uppercase","158000","0","4","b58f3ad0abcc38c21d4ac58d8a2c9e4ab4edefc31244736d47003ab347318f61","158014.29999995232","635.7000000476837","77","1","swim","","","","",""
"dual-task","null","null","null","","swim","swim","1805.5","","r","null","88","88","1","swim-dual-task","","r","lowercase","166000","0","4","b58f3ad0abcc38c21d4ac58d8a2c9e4ab4edefc31244736d47003ab347318f61","166003.19999998808","1805.5","88","1","swim","","","","",""
"dual-task","null","null","null","","swim","swim","687.8000000119209","","H","null","77","77","1","swim-dual-task","","H","uppercase","180000","0","4","b58f3ad0abcc38c21d4ac58d8a2c9e4ab4edefc31244736d47003ab347318f61","180007.89999997616","687.8000000119209","77","1","swim","","","","",""
"dual-task","null","null","null","","swim","swim","577.5","","b","null","88","88","1","swim-dual-task","","b","lowercase","192000","0","4","b58f3ad0abcc38c21d4ac58d8a2c9e4ab4edefc31244736d47003ab347318f61","192001.69999998808","577.5","88","1","swim","","","","",""
"dual-task","null","null","null","","swim","swim","529.7999999523163","","R","null","77","77","1","swim-dual-task","","R","uppercase","200000","0","4","b58f3ad0abcc38c21d4ac58d8a2c9e4ab4edefc31244736d47003ab347318f61","200007.89999997616","529.7999999523163","77","1","swim","","","","",""
"dual-task","null","null","null","","swim","swim","788.5999999642372","","g","null","88","88","1","swim-dual-task","","g","lowercase","206000","0","4","b58f3ad0abcc38c21d4ac58d8a2c9e4ab4edefc31244736d47003ab347318f61","206011.69999998808","788.5999999642372","88","1","swim","","","","",""
"dual-task","null","null","null","","swim","swim","677.6999999880791","","q","null","88","88","1","swim-dual-task","","q","lowercase","216000","0","4","b58f3ad0abcc38c21d4ac58d8a2c9e4ab4edefc31244736d47003ab347318f61","216003.69999998808","677.6999999880791","88","1","swim","","","","",""
"dual-task","null","null","null","","swim","swim","NA","","H","null","NA","77","0","swim-dual-task","","H","uppercase","222000","1","4","b58f3ad0abcc38c21d4ac58d8a2c9e4ab4edefc31244736d47003ab347318f61","222002","NA","NA","0","swim","","","","",""
"dual-task","null","null","null","","swim","swim","593.2000000476837","","A","null","77","77","1","swim-dual-task","","A","uppercase","232000","0","4","b58f3ad0abcc38c21d4ac58d8a2c9e4ab4edefc31244736d47003ab347318f61","232011.69999998808","593.2000000476837","77","1","swim","","","","",""
"dual-task","null","null","null","","swim","swim","573.8999999761581","","r","null","88","88","1","swim-dual-task","","r","lowercase","244000","0","4","b58f3ad0abcc38c21d4ac58d8a2c9e4ab4edefc31244736d47003ab347318f61","244003.79999995232","573.8999999761581","88","1","swim","","","","",""
"dual-task","null","null","null","","swim","swim","626.6000000238419","","N","null","77","77","1","swim-dual-task","","N","uppercase","250000","0","4","b58f3ad0abcc38c21d4ac58d8a2c9e4ab4edefc31244736d47003ab347318f61","250010.69999998808","626.6000000238419","77","1","swim","","","","",""
"dual-task","null","null","null","","swim","swim","593.8000000119209","","r","null","88","88","1","swim-dual-task","","r","lowercase","262000","0","4","b58f3ad0abcc38c21d4ac58d8a2c9e4ab4edefc31244736d47003ab347318f61","262011.69999998808","593.8000000119209","88","1","swim","","","","",""
"dual-task","null","null","null","","swim","swim","690.6000000238419","","q","null","88","88","1","swim-dual-task","","q","lowercase","272000","0","4","b58f3ad0abcc38c21d4ac58d8a2c9e4ab4edefc31244736d47003ab347318f61","272002.09999996424","690.6000000238419","88","1","swim","","","","",""
"dual-task","null","null","null","","swim","swim","650.4000000357628","","f","null","88","88","1","swim-dual-task","","f","lowercase","278000","0","4","b58f3ad0abcc38c21d4ac58d8a2c9e4ab4edefc31244736d47003ab347318f61","278004.59999996424","650.4000000357628","88","1","swim","","","","",""
"dual-task","null","null","null","","swim","swim","636.3000000119209","","g","null","88","88","1","swim-dual-task","","g","lowercase","292000","0","4","b58f3ad0abcc38c21d4ac58d8a2c9e4ab4edefc31244736d47003ab347318f61","292002.7999999523","636.3000000119209","88","1","swim","","","","",""
"dual-task","null","null","null","","swim","swim","509.4000000357628","","B","null","77","77","1","swim-dual-task","","B","uppercase","304000","0","4","b58f3ad0abcc38c21d4ac58d8a2c9e4ab4edefc31244736d47003ab347318f61","304011.6999999881","509.4000000357628","77","1","swim","","","","",""
"dual-task","null","null","null","","swim","swim","802.8999999761581","","g","null","88","88","1","swim-dual-task","","g","lowercase","316000","0","4","b58f3ad0abcc38c21d4ac58d8a2c9e4ab4edefc31244736d47003ab347318f61","316002","802.8999999761581","88","1","swim","","","","",""
"dual-task","null","null","null","","swim","swim","593.1999999880791","","N","null","77","77","1","swim-dual-task","","N","uppercase","324000","0","4","b58f3ad0abcc38c21d4ac58d8a2c9e4ab4edefc31244736d47003ab347318f61","324004.5","593.1999999880791","77","1","swim","","","","",""
"dual-task","null","null","null","","swim","swim","741.8999999761581","","G","null","77","77","1","swim-dual-task","","G","uppercase","336000","0","4","b58f3ad0abcc38c21d4ac58d8a2c9e4ab4edefc31244736d47003ab347318f61","336012.39999997616","741.8999999761581","77","1","swim","","","","",""
"dual-task","null","null","null","","swim","swim","614","","h","null","88","88","1","swim-dual-task","","h","lowercase","346000","0","4","b58f3ad0abcc38c21d4ac58d8a2c9e4ab4edefc31244736d47003ab347318f61","346014.89999997616","614","88","1","swim","","","","",""
"dual-task","null","null","null","","swim","swim","644.9000000357628","","A","null","77","77","1","swim-dual-task","","A","uppercase","360000","0","4","b58f3ad0abcc38c21d4ac58d8a2c9e4ab4edefc31244736d47003ab347318f61","360012.6999999881","644.9000000357628","77","1","swim","","","","",""
"dual-task","null","null","null","","swim","swim","637","","n","null","77","88","0","swim-dual-task","","n","lowercase","368000","0","4","b58f3ad0abcc38c21d4ac58d8a2c9e4ab4edefc31244736d47003ab347318f61","368009.89999997616","637","77","0","swim","","","","",""
"dual-task","null","null","null","","swim","swim","681.8999999761581","","T","null","77","77","1","swim-dual-task","","T","uppercase","378000","0","4","b58f3ad0abcc38c21d4ac58d8a2c9e4ab4edefc31244736d47003ab347318f61","378003.6999999881","681.8999999761581","77","1","swim","","","","",""
"dual-task","null","null","null","","swim","swim","617.1000000238419","","A","null","77","77","1","swim-dual-task","","A","uppercase","386000","0","4","b58f3ad0abcc38c21d4ac58d8a2c9e4ab4edefc31244736d47003ab347318f61","386007.6999999881","617.1000000238419","77","1","swim","","","","",""
"dual-task","null","null","null","","swim","swim","642.3000000119209","","D","null","77","77","1","swim-dual-task","","D","uppercase","398000","0","4","b58f3ad0abcc38c21d4ac58d8a2c9e4ab4edefc31244736d47003ab347318f61","398004.7999999523","642.3000000119209","77","1","swim","","","","",""
"dual-task","null","null","null","","swim","swim","577.5","","G","null","77","77","1","swim-dual-task","","G","uppercase","408000","0","4","b58f3ad0abcc38c21d4ac58d8a2c9e4ab4edefc31244736d47003ab347318f61","408004.7999999523","577.5","77","1","swim","","","","",""
"dual-task","null","null","null","","swim","swim","587.8999999761581","","T","null","77","77","1","swim-dual-task","","T","uppercase","418000","0","4","b58f3ad0abcc38c21d4ac58d8a2c9e4ab4edefc31244736d47003ab347318f61","418011.59999996424","587.8999999761581","77","1","swim","","","","",""
"dual-task","null","null","null","","swim","swim","576.7000000476837","","N","null","77","77","1","swim-dual-task","","N","uppercase","426000","0","4","b58f3ad0abcc38c21d4ac58d8a2c9e4ab4edefc31244736d47003ab347318f61","426002.2999999523","576.7000000476837","77","1","swim","","","","",""
"dual-task","null","null","null","","swim","swim","665","","e","null","88","88","1","swim-dual-task","","e","lowercase","432000","0","4","b58f3ad0abcc38c21d4ac58d8a2c9e4ab4edefc31244736d47003ab347318f61","432006","665","88","1","swim","","","","",""
"dual-task","null","null","null","","swim","swim","647.3000000119209","","h","null","88","88","1","swim-dual-task","","h","lowercase","440000","0","4","b58f3ad0abcc38c21d4ac58d8a2c9e4ab4edefc31244736d47003ab347318f61","440015.59999996424","647.3000000119209","88","1","swim","","","","",""
"dual-task","null","null","null","","swim","swim","552.6999999880791","","G","null","77","77","1","swim-dual-task","","G","uppercase","448000","0","4","b58f3ad0abcc38c21d4ac58d8a2c9e4ab4edefc31244736d47003ab347318f61","448008.59999996424","552.6999999880791","77","1","swim","","","","",""
"dual-task","null","null","null","","swim","swim","612.8000000119209","","g","null","88","88","1","swim-dual-task","","g","lowercase","458000","0","4","b58f3ad0abcc38c21d4ac58d8a2c9e4ab4edefc31244736d47003ab347318f61","458012.59999996424","612.8000000119209","88","1","swim","","","","",""
"dual-task","null","null","null","","swim","swim","704.6000000238419","","t","null","88","88","1","swim-dual-task","","t","lowercase","472000","0","4","b58f3ad0abcc38c21d4ac58d8a2c9e4ab4edefc31244736d47003ab347318f61","472001.6999999881","704.6000000238419","88","1","swim","","","","",""
"dual-task","null","null","null","","swim","swim","624.8000000119209","","n","null","88","88","1","swim-dual-task","","n","lowercase","484000","0","4","b58f3ad0abcc38c21d4ac58d8a2c9e4ab4edefc31244736d47003ab347318f61","484002.7999999523","624.8000000119209","88","1","swim","","","","",""
"dual-task","null","null","null","","swim","swim","615.3000000119209","","a","null","88","88","1","swim-dual-task","","a","lowercase","492000","0","4","b58f3ad0abcc38c21d4ac58d8a2c9e4ab4edefc31244736d47003ab347318f61","492012.7999999523","615.3000000119209","88","1","swim","","","","",""
"dual-task","null","null","null","","swim","swim","675.8000000119209","","d","null","88","88","1","swim-dual-task","","d","lowercase","502000","0","4","b58f3ad0abcc38c21d4ac58d8a2c9e4ab4edefc31244736d47003ab347318f61","502015.59999996424","675.8000000119209","88","1","swim","","","","",""
"dual-task","null","null","null","","swim","swim","624.1999999880791","","A","null","77","77","1","swim-dual-task","","A","uppercase","514000","0","4","b58f3ad0abcc38c21d4ac58d8a2c9e4ab4edefc31244736d47003ab347318f61","514010.5","624.1999999880791","77","1","swim","","","","",""
"dual-task","null","null","null","","swim","swim","884.1000000238419","","H","null","77","77","1","swim-dual-task","","H","uppercase","526000","0","4","b58f3ad0abcc38c21d4ac58d8a2c9e4ab4edefc31244736d47003ab347318f61","526004","884.1000000238419","77","1","swim","","","","",""
"dual-task","null","null","null","","swim","swim","648.6999999880791","","h","null","88","88","1","swim-dual-task","","h","lowercase","538000","0","4","b58f3ad0abcc38c21d4ac58d8a2c9e4ab4edefc31244736d47003ab347318f61","538007.5999999642","648.6999999880791","88","1","swim","","","","",""
"dual-task","null","null","null","","swim","swim","673.3999999761581","","t","null","88","88","1","swim-dual-task","","t","lowercase","548000","0","4","b58f3ad0abcc38c21d4ac58d8a2c9e4ab4edefc31244736d47003ab347318f61","548003.6999999881","673.3999999761581","88","1","swim","","","","",""
"dual-task","null","null","null","","swim","swim","665.5999999642372","","N","null","77","77","1","swim-dual-task","","N","uppercase","560000","0","4","b58f3ad0abcc38c21d4ac58d8a2c9e4ab4edefc31244736d47003ab347318f61","560013.6999999881","665.5999999642372","77","1","swim","","","","",""
"dual-task","null","null","null","","swim","swim","597.4000000357628","","F","null","77","77","1","swim-dual-task","","F","uppercase","570000","0","4","b58f3ad0abcc38c21d4ac58d8a2c9e4ab4edefc31244736d47003ab347318f61","570006","597.4000000357628","77","1","swim","","","","",""
"dual-task","null","null","null","","swim","swim","633.7000000476837","","a","null","88","88","1","swim-dual-task","","a","lowercase","576000","0","4","b58f3ad0abcc38c21d4ac58d8a2c9e4ab4edefc31244736d47003ab347318f61","576002.6999999881","633.7000000476837","88","1","swim","","","","",""
"dual-task","null","null","null","","swim","swim","617.9000000357628","","a","null","88","88","1","swim-dual-task","","a","lowercase","584000","0","4","b58f3ad0abcc38c21d4ac58d8a2c9e4ab4edefc31244736d47003ab347318f61","584003.5","617.9000000357628","88","1","swim","","","","",""
"dual-task","null","null","null","","swim","swim","517.6999999880791","","E","null","77","77","1","swim-dual-task","","E","uppercase","596000","0","4","b58f3ad0abcc38c21d4ac58d8a2c9e4ab4edefc31244736d47003ab347318f61","596012.8999999762","517.6999999880791","77","1","swim","","","","",""
"dual-task","null","null","null","","swim","swim","1163.2000000476837","","q","null","88","88","1","swim-dual-task","","q","lowercase","608000","0","4","b58f3ad0abcc38c21d4ac58d8a2c9e4ab4edefc31244736d47003ab347318f61","608004.6999999881","1163.2000000476837","88","1","swim","","","","",""
"dual-task","null","null","null","","swim","swim","875","","h","null","88","88","1","swim-dual-task","","h","lowercase","618000","0","4","b58f3ad0abcc38c21d4ac58d8a2c9e4ab4edefc31244736d47003ab347318f61","618002.1999999881","875","88","1","swim","","","","",""
"dual-task","null","null","null","","swim","swim","625.5","","b","null","88","88","1","swim-dual-task","","b","lowercase","626000","0","4","b58f3ad0abcc38c21d4ac58d8a2c9e4ab4edefc31244736d47003ab347318f61","626003.6999999881","625.5","88","1","swim","","","","",""
"dual-task","null","null","null","","swim","swim","684.1999999880791","","D","null","77","77","1","swim-dual-task","","D","uppercase","638000","0","4","b58f3ad0abcc38c21d4ac58d8a2c9e4ab4edefc31244736d47003ab347318f61","638001.6999999881","684.1999999880791","77","1","swim","","","","",""
"dual-task","null","null","null","","swim","swim","649.6000000238419","","f","null","88","88","1","swim-dual-task","","f","lowercase","644000","0","4","b58f3ad0abcc38c21d4ac58d8a2c9e4ab4edefc31244736d47003ab347318f61","644011.6999999881","649.6000000238419","88","1","swim","","","","",""
"dual-task","null","null","null","","swim","swim","672.5","","F","null","77","77","1","swim-dual-task","","F","uppercase","658000","0","4","b58f3ad0abcc38c21d4ac58d8a2c9e4ab4edefc31244736d47003ab347318f61","658015.8999999762","672.5","77","1","swim","","","","",""
"dual-task","null","null","null","","swim","swim","653.2000000476837","","Q","null","77","77","1","swim-dual-task","","Q","uppercase","668000","0","4","b58f3ad0abcc38c21d4ac58d8a2c9e4ab4edefc31244736d47003ab347318f61","668011.7999999523","653.2000000476837","77","1","swim","","","","",""
"dual-task","null","null","null","","swim","swim","584.8999999761581","","F","null","77","77","1","swim-dual-task","","F","uppercase","678000","0","4","b58f3ad0abcc38c21d4ac58d8a2c9e4ab4edefc31244736d47003ab347318f61","678013.8999999762","584.8999999761581","77","1","swim","","","","",""
"dual-task","null","null","null","","swim","swim","647.8000000119209","","E","null","77","77","1","swim-dual-task","","E","uppercase","686000","0","4","b58f3ad0abcc38c21d4ac58d8a2c9e4ab4edefc31244736d47003ab347318f61","686010.8999999762","647.8000000119209","77","1","swim","","","","",""
"dual-task","null","null","null","","swim","swim","946.6999999880791","","Q","null","77","77","1","swim-dual-task","","Q","uppercase","698000","0","4","b58f3ad0abcc38c21d4ac58d8a2c9e4ab4edefc31244736d47003ab347318f61","698002.5","946.6999999880791","77","1","swim","","","","",""
"dual-task","null","null","null","","swim","swim","1191.5","","d","null","88","88","1","swim-dual-task","","d","lowercase","706000","0","4","b58f3ad0abcc38c21d4ac58d8a2c9e4ab4edefc31244736d47003ab347318f61","706011.0999999642","1191.5","88","1","swim","","","","",""
"dual-task","null","null","null","","swim","swim","618.3999999761581","","R","null","77","77","1","swim-dual-task","","R","uppercase","714000","0","4","b58f3ad0abcc38c21d4ac58d8a2c9e4ab4edefc31244736d47003ab347318f61","714015.5","618.3999999761581","77","1","swim","","","","",""
"dual-task","null","null","null","","swim","swim","585.3000000119209","","E","null","77","77","1","swim-dual-task","","E","uppercase","728000","0","4","b58f3ad0abcc38c21d4ac58d8a2c9e4ab4edefc31244736d47003ab347318f61","728007.5999999642","585.3000000119209","77","1","swim","","","","",""
"dual-task","null","null","null","","swim","swim","844.3000000119209","","e","null","88","88","1","swim-dual-task","","e","lowercase","738000","0","4","b58f3ad0abcc38c21d4ac58d8a2c9e4ab4edefc31244736d47003ab347318f61","738014.8999999762","844.3000000119209","88","1","swim","","","","",""
"dual-task","null","null","null","","swim","swim","651.8000000119209","","n","null","88","88","1","swim-dual-task","","n","lowercase","750000","0","4","b58f3ad0abcc38c21d4ac58d8a2c9e4ab4edefc31244736d47003ab347318f61","750011.5","651.8000000119209","88","1","swim","","","","",""
"dual-task","null","null","null","","swim","swim","686.5999999642372","","b","null","88","88","1","swim-dual-task","","b","lowercase","758000","0","4","b58f3ad0abcc38c21d4ac58d8a2c9e4ab4edefc31244736d47003ab347318f61","758006.3999999762","686.5999999642372","88","1","swim","","","","",""
"dual-task","null","null","null","","swim","swim","625.6999999880791","","R","null","77","77","1","swim-dual-task","","R","uppercase","764000","0","4","b58f3ad0abcc38c21d4ac58d8a2c9e4ab4edefc31244736d47003ab347318f61","764009.5999999642","625.6999999880791","77","1","swim","","","","",""
"dual-task","null","null","null","","swim","swim","613.6000000238419","","t","null","88","88","1","swim-dual-task","","t","lowercase","774000","0","4","b58f3ad0abcc38c21d4ac58d8a2c9e4ab4edefc31244736d47003ab347318f61","774011.6999999881","613.6000000238419","88","1","swim","","","","",""
"dual-task","null","null","null","","swim","swim","703.3000000119209","","b","null","88","88","1","swim-dual-task","","b","lowercase","780000","0","4","b58f3ad0abcc38c21d4ac58d8a2c9e4ab4edefc31244736d47003ab347318f61","780001.7999999523","703.3000000119209","88","1","swim","","","","",""
"dual-task","null","null","null","","swim","swim","612.8000000119209","","f","null","88","88","1","swim-dual-task","","f","lowercase","786000","0","4","b58f3ad0abcc38c21d4ac58d8a2c9e4ab4edefc31244736d47003ab347318f61","786011.8999999762","612.8000000119209","88","1","swim","","","","",""
"dual-task","null","null","null","","swim","swim","545.0999999642372","","e","null","88","88","1","swim-dual-task","","e","lowercase","796000","0","4","b58f3ad0abcc38c21d4ac58d8a2c9e4ab4edefc31244736d47003ab347318f61","796011.7999999523","545.0999999642372","88","1","swim","","","","",""
"audio-keyboard-response","29","1155304","0.0-7.0-0.0-1.0","b58f3ad0abcc38c21d4ac58d8a2c9e4ab4edefc31244736d47003ab347318f61","swim","swim","null","","audio/story_swim_scrambled.mp3","","null","","","","","","","","","","","","","","","","","","","",""
"html-button-response","30","1158391","0.0-7.0-0.0-2.0","b58f3ad0abcc38c21d4ac58d8a2c9e4ab4edefc31244736d47003ab347318f61","swim","swim","3086","","<p>This concludes the story. Thank you for listening.</p><p>You will now answer some questions about the content of the story.</p>","0","","","","","","","","","","","","","","","","","","","","",""
"survey-multi-choice","31","1166487","0.0-7.0-0.0-3.0-0.0","b58f3ad0abcc38c21d4ac58d8a2c9e4ab4edefc31244736d47003ab347318f61","swim","swim","8093","","<b>How did the narrator train for his swim test?</b>","","","","1","swim-comprehension","","","","","","","","","","","","","{""Q0"":""Took his kids to the pool every day""}","","","",""
"survey-multi-choice","32","1170098","0.0-7.0-0.0-3.0-0.1","b58f3ad0abcc38c21d4ac58d8a2c9e4ab4edefc31244736d47003ab347318f61","swim","swim","3347","","<b>Where is the home of naval aviation?</b>","","","","1","swim-comprehension","","","","","","","","","","","","","{""Q0"":""Pensacola""}","","","",""
"survey-multi-choice","33","1174345","0.0-7.0-0.0-3.0-0.2","b58f3ad0abcc38c21d4ac58d8a2c9e4ab4edefc31244736d47003ab347318f61","swim","swim","3993","","<b>How many astronaut candidates passed the first swim test?</b>","","","","1","swim-comprehension","","","","","","","","","","","","","{""Q0"":""All of them""}","","","",""
"survey-multi-choice","34","1184933","0.0-7.0-0.0-3.0-0.3","b58f3ad0abcc38c21d4ac58d8a2c9e4ab4edefc31244736d47003ab347318f61","swim","swim","10333","","<b>What gave the narrator his greatest feeling of accomplishment?</b>","","","","0","swim-comprehension","","","","","","","","","","","","","{""Q0"":""Raising kids""}","","","",""
"survey-multi-choice","35","1191119","0.0-7.0-0.0-3.0-0.4","b58f3ad0abcc38c21d4ac58d8a2c9e4ab4edefc31244736d47003ab347318f61","swim","swim","5932","","<b>What were the astronaut candidates trained to do at the naval air station?</b>","","","","1","swim-comprehension","","","","","","","","","","","","","{""Q0"":""Eject out of aircraft and survive in water long enough to be rescued""}","","","",""
"survey-multi-choice","36","1203365","0.0-7.0-0.0-3.0-0.5","b58f3ad0abcc38c21d4ac58d8a2c9e4ab4edefc31244736d47003ab347318f61","swim","swim","11991","","<b>What was the final step of the first swim test in the pool?</b>","","","","1","swim-comprehension","","","","","","","","","","","","","{""Q0"":""Tread water with hands above the water""}","","","",""
"survey-multi-choice","37","1206614","0.0-7.0-0.0-3.0-0.6","b58f3ad0abcc38c21d4ac58d8a2c9e4ab4edefc31244736d47003ab347318f61","swim","swim","2993","","<b>What is the narrator afraid of, aside from the water?</b>","","","","1","swim-comprehension","","","","","","","","","","","","","{""Q0"":""Heights""}","","","",""
"survey-multi-choice","38","1211574","0.0-7.0-0.0-3.0-0.7","b58f3ad0abcc38c21d4ac58d8a2c9e4ab4edefc31244736d47003ab347318f61","swim","swim","4706","","<b>How many times did the astronaut candidates have to complete the final exercise to pass?</b>","","","","1","swim-comprehension","","","","","","","","","","","","","{""Q0"":""Two""}","","","",""
"survey-multi-choice","39","1217685","0.0-7.0-0.0-3.0-0.8","b58f3ad0abcc38c21d4ac58d8a2c9e4ab4edefc31244736d47003ab347318f61","swim","swim","5858","","<b>How often does the narrator swim, now that he is a good swimmer?</b>","","","","0","swim-comprehension","","","","","","","","","","","","","{""Q0"":""Every weekend with his kids""}","","","",""
"survey-multi-choice","40","1222112","0.0-7.0-0.0-3.0-0.9","b58f3ad0abcc38c21d4ac58d8a2c9e4ab4edefc31244736d47003ab347318f61","swim","swim","4170","","<b>How many astronaut candidates reported for duty at the Johnson Space Center?</b>","","","","1","swim-comprehension","","","","","","","","","","","","","{""Q0"":""Forty-four""}","","","",""
"html-button-response","41","1224011","0.0-7.0-0.0-4.0","b58f3ad0abcc38c21d4ac58d8a2c9e4ab4edefc31244736d47003ab347318f61","swim","swim","1648","","<p>Thank you for your responses.</p><p>You will now answer some questions about your impressions of the story.</p>","0","","","","","","","","","","","","","","","","","","","","",""
"html-button-response","42","1226010","0.0-7.0-0.0-5.0-0.0","b58f3ad0abcc38c21d4ac58d8a2c9e4ab4edefc31244736d47003ab347318f61","swim","swim","1997","","A2","6","","","","swim-engagement","","","","","","","","","","","","","","7","absorption","",""
"html-button-response","43","1228095","0.0-7.0-0.0-5.0-0.1","b58f3ad0abcc38c21d4ac58d8a2c9e4ab4edefc31244736d47003ab347318f61","swim","swim","1834","","EE5","6","","","","swim-engagement","","","","","","","","","","","","","","7","emo-engage","",""
"html-button-response","44","1230916","0.0-7.0-0.0-5.0-0.2","b58f3ad0abcc38c21d4ac58d8a2c9e4ab4edefc31244736d47003ab347318f61","swim","swim","2568","","A4","6","","","","swim-engagement","","","","","","","","","","","","","","7","absorption","",""
"html-button-response","45","1232445","0.0-7.0-0.0-5.0-0.3","b58f3ad0abcc38c21d4ac58d8a2c9e4ab4edefc31244736d47003ab347318f61","swim","swim","1276","","E7","6","","","","swim-engagement","","","","","","","","","","","","","","7","enjoyment","",""
"html-button-response","46","1234699","0.0-7.0-0.0-5.0-0.4","b58f3ad0abcc38c21d4ac58d8a2c9e4ab4edefc31244736d47003ab347318f61","swim","swim","2002","","MS3","6","","","","swim-engagement","","","","","","","","","","","","","","7","mental-sim","",""
"html-button-response","47","1236033","0.0-7.0-0.0-5.0-0.5","b58f3ad0abcc38c21d4ac58d8a2c9e4ab4edefc31244736d47003ab347318f61","swim","swim","1071","","E1","6","","","","swim-engagement","","","","","","","","","","","","","","7","enjoyment","",""
"html-button-response","48","1236994","0.0-7.0-0.0-5.0-0.6","b58f3ad0abcc38c21d4ac58d8a2c9e4ab4edefc31244736d47003ab347318f61","swim","swim","695","","A3","6","","","","swim-engagement","","","","","","","","","","","","","","7","absorption","",""
"html-button-response","49","1238429","0.0-7.0-0.0-5.0-0.7","b58f3ad0abcc38c21d4ac58d8a2c9e4ab4edefc31244736d47003ab347318f61","swim","swim","1182","","E10","6","","","","swim-engagement","","","","","","","","","","","","","","7","enjoyment","",""
"html-button-response","50","1241319","0.0-7.0-0.0-5.0-0.8","b58f3ad0abcc38c21d4ac58d8a2c9e4ab4edefc31244736d47003ab347318f61","swim","swim","2627","","EE1","6","","","","swim-engagement","","","","","","","","","","","","","","7","emo-engage","",""
"html-button-response","51","1242829","0.0-7.0-0.0-5.0-0.9","b58f3ad0abcc38c21d4ac58d8a2c9e4ab4edefc31244736d47003ab347318f61","swim","swim","1258","","EE2","6","","","","swim-engagement","","","","","","","","","","","","","","7","emo-engage","",""
"html-button-response","52","1244273","0.0-7.0-0.0-5.0-0.10","b58f3ad0abcc38c21d4ac58d8a2c9e4ab4edefc31244736d47003ab347318f61","swim","swim","1193","","EE3","6","","","","swim-engagement","","","","","","","","","","","","","","7","emo-engage","",""
"html-button-response","53","1246971","0.0-7.0-0.0-5.0-0.11","b58f3ad0abcc38c21d4ac58d8a2c9e4ab4edefc31244736d47003ab347318f61","swim","swim","2445","","A5","6","","","","swim-engagement","","","","","","","","","","","","","","7","absorption","",""
"html-button-response","54","1249964","0.0-7.0-0.0-5.0-0.12","b58f3ad0abcc38c21d4ac58d8a2c9e4ab4edefc31244736d47003ab347318f61","swim","swim","2734","","MS2","6","","","","swim-engagement","","","","","","","","","","","","","","7","mental-sim","",""
"html-button-response","55","1251579","0.0-7.0-0.0-5.0-0.13","b58f3ad0abcc38c21d4ac58d8a2c9e4ab4edefc31244736d47003ab347318f61","swim","swim","1355","","EE4","6","","","","swim-engagement","","","","","","","","","","","","","","7","emo-engage","",""
"html-button-response","56","1252912","0.0-7.0-0.0-5.0-0.14","b58f3ad0abcc38c21d4ac58d8a2c9e4ab4edefc31244736d47003ab347318f61","swim","swim","1072","","E6","6","","","","swim-engagement","","","","","","","","","","","","","","7","enjoyment","",""
"html-button-response","57","1255010","0.0-7.0-0.0-5.0-0.15","b58f3ad0abcc38c21d4ac58d8a2c9e4ab4edefc31244736d47003ab347318f61","swim","swim","1847","","A1","6","","","","swim-engagement","","","","","","","","","","","","","","7","absorption","",""
"html-button-response","58","1256812","0.0-7.0-0.0-5.0-0.16","b58f3ad0abcc38c21d4ac58d8a2c9e4ab4edefc31244736d47003ab347318f61","swim","swim","1550","","MS1","6","","","","swim-engagement","","","","","","","","","","","","","","7","mental-sim","",""
"html-button-response","59","1258963","0.0-7.0-0.0-5.0-0.17","b58f3ad0abcc38c21d4ac58d8a2c9e4ab4edefc31244736d47003ab347318f61","swim","swim","1898","","E8","6","","","","swim-engagement","","","","","","","","","","","","","","7","enjoyment","",""
"html-keyboard-response","60","1318849","0.0-7.0-1.0","b58f3ad0abcc38c21d4ac58d8a2c9e4ab4edefc31244736d47003ab347318f61","swim","swim","59635","","<p>Thank you for your responses. You will now listen to the second story.</p><p>Remember, as you listen to the story you will see letters appear on the screen.</br>As quickly as possible, press <b>&lt;x&gt;</b> if the letter is lowercase and <b>&lt;m&gt;</b> if the letter is uppercase.</p><p>Press <b>&lt;x&gt;</b> or <b>&lt;m&gt;</b> to begin listening!</p>","","88","","","","","","","","","","","","","","","","","","","",""
"html-keyboard-response","61","1319350","0.0-7.0-2.0-0.0","b58f3ad0abcc38c21d4ac58d8a2c9e4ab4edefc31244736d47003ab347318f61","swim","swim","null","","<div style=""font-size:60px;"" tabindex=""0"">+</div>","","null","","","","","","","","","","","","","","","","","","","",""
"dual-task","null","null","null","","swim","swim","858.6999999880791","","B","null","77","77","1","arctic-dual-task","","B","uppercase","16000","0","4","b58f3ad0abcc38c21d4ac58d8a2c9e4ab4edefc31244736d47003ab347318f61","16004.800000011921","858.6999999880791","77","1","arctic","","","","",""
"dual-task","null","null","null","","swim","swim","984.8000000119209","","q","null","88","88","1","arctic-dual-task","","q","lowercase","22000","0","4","b58f3ad0abcc38c21d4ac58d8a2c9e4ab4edefc31244736d47003ab347318f61","22007.5","984.8000000119209","88","1","arctic","","","","",""
"dual-task","null","null","null","","swim","swim","544.8999999761581","","D","null","77","77","1","arctic-dual-task","","D","uppercase","30000","0","4","b58f3ad0abcc38c21d4ac58d8a2c9e4ab4edefc31244736d47003ab347318f61","30003.600000023842","544.8999999761581","77","1","arctic","","","","",""
"dual-task","null","null","null","","swim","swim","560.3000000119209","","Q","null","77","77","1","arctic-dual-task","","Q","uppercase","40000","0","4","b58f3ad0abcc38c21d4ac58d8a2c9e4ab4edefc31244736d47003ab347318f61","40008.5","560.3000000119209","77","1","arctic","","","","",""
"dual-task","null","null","null","","swim","swim","816.3000000119209","","b","null","88","88","1","arctic-dual-task","","b","lowercase","52000","0","4","b58f3ad0abcc38c21d4ac58d8a2c9e4ab4edefc31244736d47003ab347318f61","52011.69999998808","816.3000000119209","88","1","arctic","","","","",""
"dual-task","null","null","null","","swim","swim","672.4000000357628","","G","null","77","77","1","arctic-dual-task","","G","uppercase","60000","0","4","b58f3ad0abcc38c21d4ac58d8a2c9e4ab4edefc31244736d47003ab347318f61","60007.69999998808","672.4000000357628","77","1","arctic","","","","",""
"dual-task","null","null","null","","swim","swim","557","","A","null","77","77","1","arctic-dual-task","","A","uppercase","66000","0","4","b58f3ad0abcc38c21d4ac58d8a2c9e4ab4edefc31244736d47003ab347318f61","66009.69999998808","557","77","1","arctic","","","","",""
"dual-task","null","null","null","","swim","swim","711.3999999761581","","q","null","88","88","1","arctic-dual-task","","q","lowercase","74000","0","4","b58f3ad0abcc38c21d4ac58d8a2c9e4ab4edefc31244736d47003ab347318f61","74002.5","711.3999999761581","88","1","arctic","","","","",""
"dual-task","null","null","null","","swim","swim","1067.5999999642372","","h","null","88","88","1","arctic-dual-task","","h","lowercase","80000","0","4","b58f3ad0abcc38c21d4ac58d8a2c9e4ab4edefc31244736d47003ab347318f61","80006.90000003576","1067.5999999642372","88","1","arctic","","","","",""
"dual-task","null","null","null","","swim","swim","631.5","","b","null","88","88","1","arctic-dual-task","","b","lowercase","94000","0","4","b58f3ad0abcc38c21d4ac58d8a2c9e4ab4edefc31244736d47003ab347318f61","94005.5","631.5","88","1","arctic","","","","",""
"dual-task","null","null","null","","swim","swim","674.8000000119209","","A","null","77","77","1","arctic-dual-task","","A","uppercase","106000","0","4","b58f3ad0abcc38c21d4ac58d8a2c9e4ab4edefc31244736d47003ab347318f61","106002.69999998808","674.8000000119209","77","1","arctic","","","","",""
"dual-task","null","null","null","","swim","swim","773.5","","Q","null","77","77","1","arctic-dual-task","","Q","uppercase","118000","0","4","b58f3ad0abcc38c21d4ac58d8a2c9e4ab4edefc31244736d47003ab347318f61","118007.80000001192","773.5","77","1","arctic","","","","",""
"dual-task","null","null","null","","swim","swim","551.3999999761581","","D","null","77","77","1","arctic-dual-task","","D","uppercase","130000","0","4","b58f3ad0abcc38c21d4ac58d8a2c9e4ab4edefc31244736d47003ab347318f61","130009.60000002384","551.3999999761581","77","1","arctic","","","","",""
"dual-task","null","null","null","","swim","swim","565.4000000357628","","B","null","77","77","1","arctic-dual-task","","B","uppercase","142000","0","4","b58f3ad0abcc38c21d4ac58d8a2c9e4ab4edefc31244736d47003ab347318f61","142001.5","565.4000000357628","77","1","arctic","","","","",""
"dual-task","null","null","null","","swim","swim","963.1999999880791","","r","null","88","88","1","arctic-dual-task","","r","lowercase","156000","0","4","b58f3ad0abcc38c21d4ac58d8a2c9e4ab4edefc31244736d47003ab347318f61","156013.60000002384","963.1999999880791","88","1","arctic","","","","",""
"dual-task","null","null","null","","swim","swim","577.5","","F","null","77","77","1","arctic-dual-task","","F","uppercase","162000","0","4","b58f3ad0abcc38c21d4ac58d8a2c9e4ab4edefc31244736d47003ab347318f61","162010.90000003576","577.5","77","1","arctic","","","","",""
"dual-task","null","null","null","","swim","swim","743.8000000119209","","r","null","88","88","1","arctic-dual-task","","r","lowercase","176000","0","4","b58f3ad0abcc38c21d4ac58d8a2c9e4ab4edefc31244736d47003ab347318f61","176001.5","743.8000000119209","88","1","arctic","","","","",""
"dual-task","null","null","null","","swim","swim","564.0999999642372","","A","null","77","77","1","arctic-dual-task","","A","uppercase","184000","0","4","b58f3ad0abcc38c21d4ac58d8a2c9e4ab4edefc31244736d47003ab347318f61","184015.60000002384","564.0999999642372","77","1","arctic","","","","",""
"dual-task","null","null","null","","swim","swim","574.5999999642372","","b","null","88","88","1","arctic-dual-task","","b","lowercase","192000","0","4","b58f3ad0abcc38c21d4ac58d8a2c9e4ab4edefc31244736d47003ab347318f61","192012.40000003576","574.5999999642372","88","1","arctic","","","","",""
"dual-task","null","null","null","","swim","swim","828.1999999880791","","d","null","88","88","1","arctic-dual-task","","d","lowercase","206000","0","4","b58f3ad0abcc38c21d4ac58d8a2c9e4ab4edefc31244736d47003ab347318f61","206005.80000001192","828.1999999880791","88","1","arctic","","","","",""
"dual-task","null","null","null","","swim","swim","788.6999999880791","","E","null","77","77","1","arctic-dual-task","","E","uppercase","216000","0","4","b58f3ad0abcc38c21d4ac58d8a2c9e4ab4edefc31244736d47003ab347318f61","216003.5","788.6999999880791","77","1","arctic","","","","",""
"dual-task","null","null","null","","swim","swim","548","","H","null","77","77","1","arctic-dual-task","","H","uppercase","226000","0","4","b58f3ad0abcc38c21d4ac58d8a2c9e4ab4edefc31244736d47003ab347318f61","226002.5","548","77","1","arctic","","","","",""
"dual-task","null","null","null","","swim","swim","694.9000000357628","","d","null","88","88","1","arctic-dual-task","","d","lowercase","238000","0","4","b58f3ad0abcc38c21d4ac58d8a2c9e4ab4edefc31244736d47003ab347318f61","238002.69999998808","694.9000000357628","88","1","arctic","","","","",""
"dual-task","null","null","null","","swim","swim","545.5","","R","null","77","77","1","arctic-dual-task","","R","uppercase","252000","0","4","b58f3ad0abcc38c21d4ac58d8a2c9e4ab4edefc31244736d47003ab347318f61","252011","545.5","77","1","arctic","","","","",""
"dual-task","null","null","null","","swim","swim","627.3000000119209","","b","null","88","88","1","arctic-dual-task","","b","lowercase","262000","0","4","b58f3ad0abcc38c21d4ac58d8a2c9e4ab4edefc31244736d47003ab347318f61","262011.40000003576","627.3000000119209","88","1","arctic","","","","",""
"dual-task","null","null","null","","swim","swim","579.6000000238419","","T","null","77","77","1","arctic-dual-task","","T","uppercase","272000","0","4","b58f3ad0abcc38c21d4ac58d8a2c9e4ab4edefc31244736d47003ab347318f61","272012.5","579.6000000238419","77","1","arctic","","","","",""
"dual-task","null","null","null","","swim","swim","623.5","","r","null","88","88","1","arctic-dual-task","","r","lowercase","280000","0","4","b58f3ad0abcc38c21d4ac58d8a2c9e4ab4edefc31244736d47003ab347318f61","280005.3000000119","623.5","88","1","arctic","","","","",""
"dual-task","null","null","null","","swim","swim","533.6000000238419","","E","null","77","77","1","arctic-dual-task","","E","uppercase","288000","0","4","b58f3ad0abcc38c21d4ac58d8a2c9e4ab4edefc31244736d47003ab347318f61","288010.1999999881","533.6000000238419","77","1","arctic","","","","",""
"dual-task","null","null","null","","swim","swim","519.6000000238419","","g","null","88","88","1","arctic-dual-task","","g","lowercase","294000","0","4","b58f3ad0abcc38c21d4ac58d8a2c9e4ab4edefc31244736d47003ab347318f61","294014.6999999881","519.6000000238419","88","1","arctic","","","","",""
"dual-task","null","null","null","","swim","swim","713.1000000238419","","Q","null","77","77","1","arctic-dual-task","","Q","uppercase","302000","0","4","b58f3ad0abcc38c21d4ac58d8a2c9e4ab4edefc31244736d47003ab347318f61","302000.5","713.1000000238419","77","1","arctic","","","","",""
"dual-task","null","null","null","","swim","swim","666.6999999880791","","f","null","88","88","1","arctic-dual-task","","f","lowercase","308000","0","4","b58f3ad0abcc38c21d4ac58d8a2c9e4ab4edefc31244736d47003ab347318f61","308011.90000003576","666.6999999880791","88","1","arctic","","","","",""
"dual-task","null","null","null","","swim","swim","566.6000000238419","","F","null","77","77","1","arctic-dual-task","","F","uppercase","318000","0","4","b58f3ad0abcc38c21d4ac58d8a2c9e4ab4edefc31244736d47003ab347318f61","318005.8000000119","566.6000000238419","77","1","arctic","","","","",""
"dual-task","null","null","null","","swim","swim","605.5","","t","null","88","88","1","arctic-dual-task","","t","lowercase","324000","0","4","b58f3ad0abcc38c21d4ac58d8a2c9e4ab4edefc31244736d47003ab347318f61","324003.5","605.5","88","1","arctic","","","","",""
"dual-task","null","null","null","","swim","swim","622.1999999880791","","g","null","88","88","1","arctic-dual-task","","g","lowercase","330000","0","4","b58f3ad0abcc38c21d4ac58d8a2c9e4ab4edefc31244736d47003ab347318f61","330003.40000003576","622.1999999880791","88","1","arctic","","","","",""
"dual-task","null","null","null","","swim","swim","595.8000000119209","","q","null","88","88","1","arctic-dual-task","","q","lowercase","338000","0","4","b58f3ad0abcc38c21d4ac58d8a2c9e4ab4edefc31244736d47003ab347318f61","338007.1999999881","595.8000000119209","88","1","arctic","","","","",""
"dual-task","null","null","null","","swim","swim","577.1999999880791","","a","null","88","88","1","arctic-dual-task","","a","lowercase","348000","0","4","b58f3ad0abcc38c21d4ac58d8a2c9e4ab4edefc31244736d47003ab347318f61","348002.5","577.1999999880791","88","1","arctic","","","","",""
"dual-task","null","null","null","","swim","swim","906.5","","T","null","77","77","1","arctic-dual-task","","T","uppercase","362000","0","4","b58f3ad0abcc38c21d4ac58d8a2c9e4ab4edefc31244736d47003ab347318f61","362007.60000002384","906.5","77","1","arctic","","","","",""
"dual-task","null","null","null","","swim","swim","736.5","","e","null","88","88","1","arctic-dual-task","","e","lowercase","374000","0","4","b58f3ad0abcc38c21d4ac58d8a2c9e4ab4edefc31244736d47003ab347318f61","374015.6999999881","736.5","88","1","arctic","","","","",""
"dual-task","null","null","null","","swim","swim","638.8999999761581","","e","null","88","88","1","arctic-dual-task","","e","lowercase","384000","0","4","b58f3ad0abcc38c21d4ac58d8a2c9e4ab4edefc31244736d47003ab347318f61","384000.90000003576","638.8999999761581","88","1","arctic","","","","",""
"dual-task","null","null","null","","swim","swim","989.2000000476837","","n","null","88","88","1","arctic-dual-task","","n","lowercase","390000","0","4","b58f3ad0abcc38c21d4ac58d8a2c9e4ab4edefc31244736d47003ab347318f61","390007.60000002384","989.2000000476837","88","1","arctic","","","","",""
"dual-task","null","null","null","","swim","swim","407","","B","null","77","77","1","arctic-dual-task","","B","uppercase","402000","0","4","b58f3ad0abcc38c21d4ac58d8a2c9e4ab4edefc31244736d47003ab347318f61","402012.60000002384","407","77","1","arctic","","","","",""
"dual-task","null","null","null","","swim","swim","548.3000000119209","","R","null","77","77","1","arctic-dual-task","","R","uppercase","410000","0","4","b58f3ad0abcc38c21d4ac58d8a2c9e4ab4edefc31244736d47003ab347318f61","410006.1999999881","548.3000000119209","77","1","arctic","","","","",""
"dual-task","null","null","null","","swim","swim","791.6999999880791","","Q","null","88","77","0","arctic-dual-task","","Q","uppercase","416000","0","4","b58f3ad0abcc38c21d4ac58d8a2c9e4ab4edefc31244736d47003ab347318f61","416015.6999999881","791.6999999880791","88","0","arctic","","","","",""
"dual-task","null","null","null","","swim","swim","818.8999999761581","","h","null","88","88","1","arctic-dual-task","","h","lowercase","426000","0","4","b58f3ad0abcc38c21d4ac58d8a2c9e4ab4edefc31244736d47003ab347318f61","426015.1999999881","818.8999999761581","88","1","arctic","","","","",""
"dual-task","null","null","null","","swim","swim","799.8000000119209","","H","null","77","77","1","arctic-dual-task","","H","uppercase","434000","0","4","b58f3ad0abcc38c21d4ac58d8a2c9e4ab4edefc31244736d47003ab347318f61","434009.8000000119","799.8000000119209","77","1","arctic","","","","",""
"dual-task","null","null","null","","swim","swim","766.3000000119209","","T","null","77","77","1","arctic-dual-task","","T","uppercase","444000","0","4","b58f3ad0abcc38c21d4ac58d8a2c9e4ab4edefc31244736d47003ab347318f61","444008.60000002384","766.3000000119209","77","1","arctic","","","","",""
"dual-task","null","null","null","","swim","swim","481.69999998807907","","H","null","77","77","1","arctic-dual-task","","H","uppercase","458000","0","4","b58f3ad0abcc38c21d4ac58d8a2c9e4ab4edefc31244736d47003ab347318f61","458007.60000002384","481.69999998807907","77","1","arctic","","","","",""
"dual-task","null","null","null","","swim","swim","715.5999999642372","","N","null","77","77","1","arctic-dual-task","","N","uppercase","466000","0","4","b58f3ad0abcc38c21d4ac58d8a2c9e4ab4edefc31244736d47003ab347318f61","466012.5","715.5999999642372","77","1","arctic","","","","",""
"dual-task","null","null","null","","swim","swim","743.6999999880791","","t","null","88","88","1","arctic-dual-task","","t","lowercase","478000","0","4","b58f3ad0abcc38c21d4ac58d8a2c9e4ab4edefc31244736d47003ab347318f61","478002.6999999881","743.6999999880791","88","1","arctic","","","","",""
"dual-task","null","null","null","","swim","swim","815.5","","h","null","88","88","1","arctic-dual-task","","h","lowercase","492000","0","4","b58f3ad0abcc38c21d4ac58d8a2c9e4ab4edefc31244736d47003ab347318f61","492001.6999999881","815.5","88","1","arctic","","","","",""
"dual-task","null","null","null","","swim","swim","750.7999999523163","","F","null","77","77","1","arctic-dual-task","","F","uppercase","506000","0","4","b58f3ad0abcc38c21d4ac58d8a2c9e4ab4edefc31244736d47003ab347318f61","506009.6999999881","750.7999999523163","77","1","arctic","","","","",""
"dual-task","null","null","null","","swim","swim","677.6000000238419","","G","null","77","77","1","arctic-dual-task","","G","uppercase","520000","0","4","b58f3ad0abcc38c21d4ac58d8a2c9e4ab4edefc31244736d47003ab347318f61","520007.60000002384","677.6000000238419","77","1","arctic","","","","",""
"dual-task","null","null","null","","swim","swim","790.5999999642372","","d","null","88","88","1","arctic-dual-task","","d","lowercase","532000","0","4","b58f3ad0abcc38c21d4ac58d8a2c9e4ab4edefc31244736d47003ab347318f61","532002.5","790.5999999642372","88","1","arctic","","","","",""
"dual-task","null","null","null","","swim","swim","709.1000000238419","","g","null","88","88","1","arctic-dual-task","","g","lowercase","544000","0","4","b58f3ad0abcc38c21d4ac58d8a2c9e4ab4edefc31244736d47003ab347318f61","544009.6000000238","709.1000000238419","88","1","arctic","","","","",""
"dual-task","null","null","null","","swim","swim","555.8000000119209","","D","null","77","77","1","arctic-dual-task","","D","uppercase","550000","0","4","b58f3ad0abcc38c21d4ac58d8a2c9e4ab4edefc31244736d47003ab347318f61","550008.5","555.8000000119209","77","1","arctic","","","","",""
"dual-task","null","null","null","","swim","swim","732.5999999642372","","t","null","88","88","1","arctic-dual-task","","t","lowercase","558000","0","4","b58f3ad0abcc38c21d4ac58d8a2c9e4ab4edefc31244736d47003ab347318f61","558002.6000000238","732.5999999642372","88","1","arctic","","","","",""
"dual-task","null","null","null","","swim","swim","571.0999999642372","","q","null","88","88","1","arctic-dual-task","","q","lowercase","566000","0","4","b58f3ad0abcc38c21d4ac58d8a2c9e4ab4edefc31244736d47003ab347318f61","566012.5","571.0999999642372","88","1","arctic","","","","",""
"dual-task","null","null","null","","swim","swim","641.3999999761581","","f","null","88","88","1","arctic-dual-task","","f","lowercase","580000","0","4","b58f3ad0abcc38c21d4ac58d8a2c9e4ab4edefc31244736d47003ab347318f61","580013.6000000238","641.3999999761581","88","1","arctic","","","","",""
"dual-task","null","null","null","","swim","swim","506.5999999642372","","R","null","77","77","1","arctic-dual-task","","R","uppercase","588000","0","4","b58f3ad0abcc38c21d4ac58d8a2c9e4ab4edefc31244736d47003ab347318f61","588008.4000000358","506.5999999642372","77","1","arctic","","","","",""
"dual-task","null","null","null","","swim","swim","701.4000000357628","","A","null","77","77","1","arctic-dual-task","","A","uppercase","598000","0","4","b58f3ad0abcc38c21d4ac58d8a2c9e4ab4edefc31244736d47003ab347318f61","598010.4000000358","701.4000000357628","77","1","arctic","","","","",""
"dual-task","null","null","null","","swim","swim","1466.5999999642372","","e","null","88","88","1","arctic-dual-task","","e","lowercase","606000","0","4","b58f3ad0abcc38c21d4ac58d8a2c9e4ab4edefc31244736d47003ab347318f61","606008.3000000119","1466.5999999642372","88","1","arctic","","","","",""
"dual-task","null","null","null","","swim","swim","663.5","","f","null","88","88","1","arctic-dual-task","","f","lowercase","616000","0","4","b58f3ad0abcc38c21d4ac58d8a2c9e4ab4edefc31244736d47003ab347318f61","616009.6999999881","663.5","88","1","arctic","","","","",""
"dual-task","null","null","null","","swim","swim","733.8999999761581","","G","null","77","77","1","arctic-dual-task","","G","uppercase","630000","0","4","b58f3ad0abcc38c21d4ac58d8a2c9e4ab4edefc31244736d47003ab347318f61","630015","733.8999999761581","77","1","arctic","","","","",""
"dual-task","null","null","null","","swim","swim","1009.8999999761581","","a","null","88","88","1","arctic-dual-task","","a","lowercase","640000","0","4","b58f3ad0abcc38c21d4ac58d8a2c9e4ab4edefc31244736d47003ab347318f61","640007.6000000238","1009.8999999761581","88","1","arctic","","","","",""
"dual-task","null","null","null","","swim","swim","521.6999999880791","","R","null","77","77","1","arctic-dual-task","","R","uppercase","652000","0","4","b58f3ad0abcc38c21d4ac58d8a2c9e4ab4edefc31244736d47003ab347318f61","652001","521.6999999880791","77","1","arctic","","","","",""
"dual-task","null","null","null","","swim","swim","563.8999999761581","","T","null","77","77","1","arctic-dual-task","","T","uppercase","666000","0","4","b58f3ad0abcc38c21d4ac58d8a2c9e4ab4edefc31244736d47003ab347318f61","666015.6999999881","563.8999999761581","77","1","arctic","","","","",""
"dual-task","null","null","null","","swim","swim","799.0999999642372","","e","null","88","88","1","arctic-dual-task","","e","lowercase","676000","0","4","b58f3ad0abcc38c21d4ac58d8a2c9e4ab4edefc31244736d47003ab347318f61","676015","799.0999999642372","88","1","arctic","","","","",""
"dual-task","null","null","null","","swim","swim","620.7999999523163","","d","null","88","88","1","arctic-dual-task","","d","lowercase","684000","0","4","b58f3ad0abcc38c21d4ac58d8a2c9e4ab4edefc31244736d47003ab347318f61","684012.4000000358","620.7999999523163","88","1","arctic","","","","",""
"dual-task","null","null","null","","swim","swim","797.7000000476837","","n","null","88","88","1","arctic-dual-task","","n","lowercase","694000","0","4","b58f3ad0abcc38c21d4ac58d8a2c9e4ab4edefc31244736d47003ab347318f61","694005.6000000238","797.7000000476837","88","1","arctic","","","","",""
"dual-task","null","null","null","","swim","swim","555.8000000119209","","E","null","77","77","1","arctic-dual-task","","E","uppercase","706000","0","4","b58f3ad0abcc38c21d4ac58d8a2c9e4ab4edefc31244736d47003ab347318f61","706005.6000000238","555.8000000119209","77","1","arctic","","","","",""
"dual-task","null","null","null","","swim","swim","711.8000000119209","","N","null","77","77","1","arctic-dual-task","","N","uppercase","714000","0","4","b58f3ad0abcc38c21d4ac58d8a2c9e4ab4edefc31244736d47003ab347318f61","714008.6000000238","711.8000000119209","77","1","arctic","","","","",""
"dual-task","null","null","null","","swim","swim","681.8000000119209","","t","null","88","88","1","arctic-dual-task","","t","lowercase","728000","0","4","b58f3ad0abcc38c21d4ac58d8a2c9e4ab4edefc31244736d47003ab347318f61","728008.6000000238","681.8000000119209","88","1","arctic","","","","",""
"dual-task","null","null","null","","swim","swim","601.8999999761581","","N","null","77","77","1","arctic-dual-task","","N","uppercase","742000","0","4","b58f3ad0abcc38c21d4ac58d8a2c9e4ab4edefc31244736d47003ab347318f61","742004.5","601.8999999761581","77","1","arctic","","","","",""
"dual-task","null","null","null","","swim","swim","966","","H","null","77","77","1","arctic-dual-task","","H","uppercase","756000","0","4","b58f3ad0abcc38c21d4ac58d8a2c9e4ab4edefc31244736d47003ab347318f61","756011.1000000238","966","77","1","arctic","","","","",""
"dual-task","null","null","null","","swim","swim","682.6999999880791","","h","null","88","88","1","arctic-dual-task","","h","lowercase","762000","0","4","b58f3ad0abcc38c21d4ac58d8a2c9e4ab4edefc31244736d47003ab347318f61","762001.5","682.6999999880791","88","1","arctic","","","","",""
"dual-task","null","null","null","","swim","swim","991.7000000476837","","a","null","88","88","1","arctic-dual-task","","a","lowercase","770000","0","4","b58f3ad0abcc38c21d4ac58d8a2c9e4ab4edefc31244736d47003ab347318f61","770003.6000000238","991.7000000476837","88","1","arctic","","","","",""
"dual-task","null","null","null","","swim","swim","640.8999999761581","","a","null","88","88","1","arctic-dual-task","","a","lowercase","776000","0","4","b58f3ad0abcc38c21d4ac58d8a2c9e4ab4edefc31244736d47003ab347318f61","776000.8000000119","640.8999999761581","88","1","arctic","","","","",""
"dual-task","null","null","null","","swim","swim","774","","D","null","77","77","1","arctic-dual-task","","D","uppercase","784000","0","4","b58f3ad0abcc38c21d4ac58d8a2c9e4ab4edefc31244736d47003ab347318f61","784006.9000000358","774","77","1","arctic","","","","",""
"audio-keyboard-response","62","2117403","0.0-7.0-2.0-1.0","b58f3ad0abcc38c21d4ac58d8a2c9e4ab4edefc31244736d47003ab347318f61","swim","swim","null","","audio/story_arctic.mp3","","null","","","","","","","","","","","","","","","","","","","",""
"html-button-response","63","2119104","0.0-7.0-2.0-2.0","b58f3ad0abcc38c21d4ac58d8a2c9e4ab4edefc31244736d47003ab347318f61","swim","swim","1700","","<p>This concludes the story. Thank you for listening.</p><p>You will now answer some questions about the content of the story.</p>","0","","","","","","","","","","","","","","","","","","","","",""
"survey-multi-choice","64","2122523","0.0-7.0-2.0-3.0-0.0","b58f3ad0abcc38c21d4ac58d8a2c9e4ab4edefc31244736d47003ab347318f61","swim","swim","3417","","<b>How did the narrator&#39;s encounter with the polar bears end?</b>","","","","1","arctic-comprehension","","","","","","","","","","","","","{""Q0"":""The bears walked back to their den.""}","","","",""
"survey-multi-choice","65","2126222","0.0-7.0-2.0-3.0-0.1","b58f3ad0abcc38c21d4ac58d8a2c9e4ab4edefc31244736d47003ab347318f61","swim","swim","3445","","<b>What did the narrator do for leisure while in her tent?</b>","","","","1","arctic-comprehension","","","","","","","","","","","","","{""Q0"":""Read""}","","","",""
"survey-multi-choice","66","2130843","0.0-7.0-2.0-3.0-0.2","b58f3ad0abcc38c21d4ac58d8a2c9e4ab4edefc31244736d47003ab347318f61","swim","swim","4368","","<b>Which dog on the narrator&#39;s dog team never followed instructions?</b>","","","","1","arctic-comprehension","","","","","","","","","","","","","{""Q0"":""Robert""}","","","",""
"survey-multi-choice","67","2140743","0.0-7.0-2.0-3.0-0.3","b58f3ad0abcc38c21d4ac58d8a2c9e4ab4edefc31244736d47003ab347318f61","swim","swim","9644","","<b>How did the narrator prepare for her expedition?</b>","","","","1","arctic-comprehension","","","","","","","","","","","","","{""Q0"":""Trained in Alaska learning how to dogsled""}","","","",""
"survey-multi-choice","68","2144260","0.0-7.0-2.0-3.0-0.4","b58f3ad0abcc38c21d4ac58d8a2c9e4ab4edefc31244736d47003ab347318f61","swim","swim","3254","","<b>How did the narrator&#39;s neighbour respond when she told him about her expedition?</b>","","","","1","arctic-comprehension","","","","","","","","","","","","","{""Q0"":""He said she was going to fail.""}","","","",""
"survey-multi-choice","69","2147589","0.0-7.0-2.0-3.0-0.5","b58f3ad0abcc38c21d4ac58d8a2c9e4ab4edefc31244736d47003ab347318f61","swim","swim","3075","","<b>What is the name of the narrator&#39;s neighbour?</b>","","","","1","arctic-comprehension","","","","","","","","","","","","","{""Q0"":""Dave""}","","","",""
"survey-multi-choice","70","2151152","0.0-7.0-2.0-3.0-0.6","b58f3ad0abcc38c21d4ac58d8a2c9e4ab4edefc31244736d47003ab347318f61","swim","swim","3311","","<b>How many sponsorships did the narrator receive to support her expedition?</b>","","","","1","arctic-comprehension","","","","","","","","","","","","","{""Q0"":""None""}","","","",""
"survey-multi-choice","71","2155612","0.0-7.0-2.0-3.0-0.7","b58f3ad0abcc38c21d4ac58d8a2c9e4ab4edefc31244736d47003ab347318f61","swim","swim","4207","","<b>What was the objective of the narrator&#39;s expedition?</b>","","","","1","arctic-comprehension","","","","","","","","","","","","","{""Q0"":""Dogsled across Arctic America""}","","","",""
"survey-multi-choice","72","2158733","0.0-7.0-2.0-3.0-0.8","b58f3ad0abcc38c21d4ac58d8a2c9e4ab4edefc31244736d47003ab347318f61","swim","swim","2867","","<b>What were the weather conditions in the Arctic like the winter of the narrator&#39;s expedition?</b>","","","","1","arctic-comprehension","","","","","","","","","","","","","{""Q0"":""There were more storms than any other winter in recorded history.""}","","","",""
"survey-multi-choice","73","2163176","0.0-7.0-2.0-3.0-0.9","b58f3ad0abcc38c21d4ac58d8a2c9e4ab4edefc31244736d47003ab347318f61","swim","swim","4190","","<b>How did the dogs respond when they saw the bears?</b>","","","","1","arctic-comprehension","","","","","","","","","","","","","{""Q0"":""Approached them""}","","","",""
"html-button-response","74","2164461","0.0-7.0-2.0-4.0","b58f3ad0abcc38c21d4ac58d8a2c9e4ab4edefc31244736d47003ab347318f61","swim","swim","1033","","<p>Thank you for your responses.</p><p>You will now answer some questions about your impressions of the story.</p>","0","","","","","","","","","","","","","","","","","","","","",""
"html-button-response","75","2165406","0.0-7.0-2.0-5.0-0.0","b58f3ad0abcc38c21d4ac58d8a2c9e4ab4edefc31244736d47003ab347318f61","swim","swim","943","","E7","6","","","","arctic-engagement","","","","","","","","","","","","","","7","enjoyment","",""
"html-button-response","76","2167005","0.0-7.0-2.0-5.0-0.1","b58f3ad0abcc38c21d4ac58d8a2c9e4ab4edefc31244736d47003ab347318f61","swim","swim","1347","","MS2","6","","","","arctic-engagement","","","","","","","","","","","","","","7","mental-sim","",""
"html-button-response","77","2168316","0.0-7.0-2.0-5.0-0.2","b58f3ad0abcc38c21d4ac58d8a2c9e4ab4edefc31244736d47003ab347318f61","swim","swim","1059","","E10","6","","","","arctic-engagement","","","","","","","","","","","","","","7","enjoyment","",""
"html-button-response","78","2169940","0.0-7.0-2.0-5.0-0.3","b58f3ad0abcc38c21d4ac58d8a2c9e4ab4edefc31244736d47003ab347318f61","swim","swim","1371","","A1","6","","","","arctic-engagement","","","","","","","","","","","","","","7","absorption","",""
"html-button-response","79","2171140","0.0-7.0-2.0-5.0-0.4","b58f3ad0abcc38c21d4ac58d8a2c9e4ab4edefc31244736d47003ab347318f61","swim","swim","947","","A3","6","","","","arctic-engagement","","","","","","","","","","","","","","7","absorption","",""
"html-button-response","80","2172203","0.0-7.0-2.0-5.0-0.5","b58f3ad0abcc38c21d4ac58d8a2c9e4ab4edefc31244736d47003ab347318f61","swim","swim","812","","EE3","6","","","","arctic-engagement","","","","","","","","","","","","","","7","emo-engage","",""
"html-button-response","81","2174363","0.0-7.0-2.0-5.0-0.6","b58f3ad0abcc38c21d4ac58d8a2c9e4ab4edefc31244736d47003ab347318f61","swim","swim","1909","","MS3","6","","","","arctic-engagement","","","","","","","","","","","","","","7","mental-sim","",""
"html-button-response","82","2175851","0.0-7.0-2.0-5.0-0.7","b58f3ad0abcc38c21d4ac58d8a2c9e4ab4edefc31244736d47003ab347318f61","swim","swim","1237","","E6","6","","","","arctic-engagement","","","","","","","","","","","","","","7","enjoyment","",""
"html-button-response","83","2176967","0.0-7.0-2.0-5.0-0.8","b58f3ad0abcc38c21d4ac58d8a2c9e4ab4edefc31244736d47003ab347318f61","swim","swim","864","","E1","6","","","","arctic-engagement","","","","","","","","","","","","","","7","enjoyment","",""
"html-button-response","84","2178489","0.0-7.0-2.0-5.0-0.9","b58f3ad0abcc38c21d4ac58d8a2c9e4ab4edefc31244736d47003ab347318f61","swim","swim","1270","","MS1","6","","","","arctic-engagement","","","","","","","","","","","","","","7","mental-sim","",""
"html-button-response","85","2179996","0.0-7.0-2.0-5.0-0.10","b58f3ad0abcc38c21d4ac58d8a2c9e4ab4edefc31244736d47003ab347318f61","swim","swim","1254","","EE1","6","","","","arctic-engagement","","","","","","","","","","","","","","7","emo-engage","",""
"html-button-response","86","2181137","0.0-7.0-2.0-5.0-0.11","b58f3ad0abcc38c21d4ac58d8a2c9e4ab4edefc31244736d47003ab347318f61","swim","swim","883","","EE2","6","","","","arctic-engagement","","","","","","","","","","","","","","7","emo-engage","",""
"html-button-response","87","2182827","0.0-7.0-2.0-5.0-0.12","b58f3ad0abcc38c21d4ac58d8a2c9e4ab4edefc31244736d47003ab347318f61","swim","swim","1437","","A5","6","","","","arctic-engagement","","","","","","","","","","","","","","7","absorption","",""
"html-button-response","88","2184478","0.0-7.0-2.0-5.0-0.13","b58f3ad0abcc38c21d4ac58d8a2c9e4ab4edefc31244736d47003ab347318f61","swim","swim","1399","","A4","6","","","","arctic-engagement","","","","","","","","","","","","","","7","absorption","",""
"html-button-response","89","2185735","0.0-7.0-2.0-5.0-0.14","b58f3ad0abcc38c21d4ac58d8a2c9e4ab4edefc31244736d47003ab347318f61","swim","swim","996","","A2","6","","","","arctic-engagement","","","","","","","","","","","","","","7","absorption","",""
"html-button-response","90","2187003","0.0-7.0-2.0-5.0-0.15","b58f3ad0abcc38c21d4ac58d8a2c9e4ab4edefc31244736d47003ab347318f61","swim","swim","1004","","EE4","6","","","","arctic-engagement","","","","","","","","","","","","","","7","emo-engage","",""
"html-button-response","91","2188049","0.0-7.0-2.0-5.0-0.16","b58f3ad0abcc38c21d4ac58d8a2c9e4ab4edefc31244736d47003ab347318f61","swim","swim","791","","EE5","6","","","","arctic-engagement","","","","","","","","","","","","","","7","emo-engage","",""
"html-button-response","92","2189292","0.0-7.0-2.0-5.0-0.17","b58f3ad0abcc38c21d4ac58d8a2c9e4ab4edefc31244736d47003ab347318f61","swim","swim","991","","E8","6","","","","arctic-engagement","","","","","","","","","","","","","","7","enjoyment","",""
"html-button-response","93","2190405","0.0-8.0","b58f3ad0abcc38c21d4ac58d8a2c9e4ab4edefc31244736d47003ab347318f61","swim","swim","861","","<p>Thank you for your responses.</p><p>You will now answer some demographic, hearing, and general health questions.</p>","0","","","","","","","","","","","","","","","","","","","","",""
"survey-multi-choice","94","2192341","0.0-9.0-0.0","b58f3ad0abcc38c21d4ac58d8a2c9e4ab4edefc31244736d47003ab347318f61","swim","swim","1932","","","","","","","survey","","","","","","","","","","","","","{""Q0"":""Chrome""}","","","browser",""
"survey-text","95","2195006","0.0-9.0-1.0","b58f3ad0abcc38c21d4ac58d8a2c9e4ab4edefc31244736d47003ab347318f61","swim","swim","2412.199999988079","","","","","","","survey","","","","","","","","","","","","","{""AGE"":""34""}","","","age","34"
"survey-multi-choice","96","2197108","0.0-9.0-2.0","b58f3ad0abcc38c21d4ac58d8a2c9e4ab4edefc31244736d47003ab347318f61","swim","swim","1848","","","","","","","survey","","","","","","","","","","","","","{""Q0"":""Male""}","","","gender","Male"
"survey-multi-choice","97","2198947","0.0-9.0-4.0","b58f3ad0abcc38c21d4ac58d8a2c9e4ab4edefc31244736d47003ab347318f61","swim","swim","1587","","","","","","","survey","","","","","","","","","","","","","{""Q0"":""Right""}","","","handedness","Right"
"survey-multi-choice","98","2200980","0.0-9.0-5.0","b58f3ad0abcc38c21d4ac58d8a2c9e4ab4edefc31244736d47003ab347318f61","swim","swim","1779","","","","","","","survey","","","","","","","","","","","","","{""Q0"":""High school""}","","","education","High school"
"survey-text","99","2208662","0.0-10.0-0.0","b58f3ad0abcc38c21d4ac58d8a2c9e4ab4edefc31244736d47003ab347318f61","swim","swim","7429","","","","","","","survey","","","","","","","","","","","","","{""L1"":""english""}","","","first-language","english"
"survey-text","100","2211789","0.0-10.0-1.0","b58f3ad0abcc38c21d4ac58d8a2c9e4ab4edefc31244736d47003ab347318f61","swim","swim","2872.800000011921","","","","","","","survey","","","","","","","","","","","","","{""L2name"":"""",""L2fluency"":"""",""L3name"":"""",""L3fluency"":"""",""L4name"":"""",""L4fluency"":""""}","","","additional-languages","{""L2name"":"""",""L2fluency"":"""",""L3name"":"""",""L3fluency"":"""",""L4name"":"""",""L4fluency"":""""}"
"survey-multi-choice","101","2214364","0.0-10.0-2.0","b58f3ad0abcc38c21d4ac58d8a2c9e4ab4edefc31244736d47003ab347318f61","swim","swim","2323","","","","","","","survey","","","","","","","","","","","","","{""Q0"":""No""}","","","hearing-aid","No"
"survey-multi-choice","102","2216822","0.0-10.0-3.0","b58f3ad0abcc38c21d4ac58d8a2c9e4ab4edefc31244736d47003ab347318f61","swim","swim","2204","","","","","","","survey","","","","","","","","","","","","","{""Q0"":""Never""}","","","ringing-ears","Never"
"survey-multi-choice","103","2218985","0.0-10.0-5.0","b58f3ad0abcc38c21d4ac58d8a2c9e4ab4edefc31244736d47003ab347318f61","swim","swim","1911","","","","","","","survey","","","","","","","","","","","","","{""Q0"":""No""}","","","neuro-disease","No"
"survey-multi-choice","104","2220771","0.0-10.0-7.0","b58f3ad0abcc38c21d4ac58d8a2c9e4ab4edefc31244736d47003ab347318f61","swim","swim","1533","","","","","","","survey","","","","","","","","","","","","","{""Q0"":""No""}","","","take-meds","No"
"survey-text","105","2222906","0.0-10.0-9.0","b58f3ad0abcc38c21d4ac58d8a2c9e4ab4edefc31244736d47003ab347318f61","swim","swim","1882","","","","","","","survey","","","","","","","","","","","","","{""HC"":""""}","","","health-concerns",""
"html-button-response","106","2225882","0.0-11.0-0.0","b58f3ad0abcc38c21d4ac58d8a2c9e4ab4edefc31244736d47003ab347318f61","swim","swim","2724","","<p>How would you describe your musical skills/experiences?</p>","0","","","","survey","","","","","","","","","","","","","","","","music-skill","1"
"survey-multi-choice","107","2227607","0.0-11.0-1.0","b58f3ad0abcc38c21d4ac58d8a2c9e4ab4edefc31244736d47003ab347318f61","swim","swim","1473","","","","","","","survey","","","","","","","","","","","","","{""Q0"":""No""}","","","music-instrument","No"
"html-button-response","108","2230479","0.0-12.0-0.0","b58f3ad0abcc38c21d4ac58d8a2c9e4ab4edefc31244736d47003ab347318f61","swim","swim","2620","","<p>How would you describe your general hearing abilities?</p>","5","","","","survey","","","","","","","","","","","","","","","","ssq-01","6"
"html-button-response","109","2234332","0.0-12.0-1.0","b58f3ad0abcc38c21d4ac58d8a2c9e4ab4edefc31244736d47003ab347318f61","swim","swim","3602","","<p>When you talk with someone at a place that strongly reverberates/echoes (e.g., in a church or train station),</br>can you understand what the person says?</p>","10","","","","survey","","","","","","","","","","","","","","","","ssq-02","10"
"html-button-response","110","2236237","0.0-12.0-2.0","b58f3ad0abcc38c21d4ac58d8a2c9e4ab4edefc31244736d47003ab347318f61","swim","swim","1653","","<p>When you are with a group (~5 people) in a lively restaurant, can you follow the group's conversation?</p>","10","","","","survey","","","","","","","","","","","","","","","","ssq-03","10"
"html-button-response","111","2240107","0.0-12.0-3.0","b58f3ad0abcc38c21d4ac58d8a2c9e4ab4edefc31244736d47003ab347318f61","swim","swim","3618","","<p>Based on the sound of a bus or truck, can you tell whether it is moving towards or away from you?</p>","5","","","","survey","","","","","","","","","","","","","","","","ssq-04","5"
"html-button-response","112","2243303","0.0-12.0-4.0","b58f3ad0abcc38c21d4ac58d8a2c9e4ab4edefc31244736d47003ab347318f61","swim","swim","2945","","<p>When you are in an unknown environment, can you tell from which direction a brief sound originates?</p>","7","","","","survey","","","","","","","","","","","","","","","","ssq-05","7"
"html-button-response","113","2246349","0.0-12.0-5.0","b58f3ad0abcc38c21d4ac58d8a2c9e4ab4edefc31244736d47003ab347318f61","swim","swim","2793","","<p>Are you able to ignore distracting sounds when you concentrate on a specific aspect of your acoustic surrounding?</p>","10","","","","survey","","","","","","","","","","","","","","","","ssq-06","10"
"fullscreen","114","2247601","0.0-13.0","b58f3ad0abcc38c21d4ac58d8a2c9e4ab4edefc31244736d47003ab347318f61","swim","swim","","","","","","","","","true","","","","","","","","","","","","","","","",""
