"trial_type","trial_index","time_elapsed","internal_node_id","ParticipantID","firstStory","scramStory","rt","url","stimulus","button_pressed","key_press","correctRESP","correct","designation","success","letterStim","letterType","ONSET","TIMEOUT","CONDITION","Participant","ONSET_ACTUAL","RT","RESP","ACC","STORY","responses","response","type","surveyQuestion","QRESP"
"pavlovia","0","3","0.0-0.0","f8bebe8409f40781fe40a3e1a58243b31097b571e5a06e028455719f30e66260","arctic","arctic","","","","","","","","","","","","","","","","","","","","","","","","",""
"external-html","1","5409","0.0-1.0","f8bebe8409f40781fe40a3e1a58243b31097b571e5a06e028455719f30e66260","arctic","arctic","5214","consent/consent_updated.html","","","","","","","","","","","","","","","","","","","","","","",""
"html-button-response","2","89037","0.0-2.0-0.0","f8bebe8409f40781fe40a3e1a58243b31097b571e5a06e028455719f30e66260","arctic","arctic","83626","","<p>Before we begin the main task, you will complete a short volume calibration and headphone check.</p><p>Please make sure you are in a quiet listening environment, that you are wearing headphones, and that your computer's volume is turned on.<p></p>","0","","","","","","","","","","","","","","","","","","","","",""
"html-button-response","3","100794","0.0-2.0-1.0","f8bebe8409f40781fe40a3e1a58243b31097b571e5a06e028455719f30e66260","arctic","arctic","11504","","<p>The volume calibration will be first.</p><p>You will hear a thirty-second noise. Please adjust your computer's volume so that this noise is being presented at a comfortable level.<p></p>","0","","","","","","","","","","","","","","","","","","","","",""
"audio-button-response","4","111273","0.0-2.0-2.0","f8bebe8409f40781fe40a3e1a58243b31097b571e5a06e028455719f30e66260","arctic","arctic","10217","","audio/volumetest.mp3","0","","","","","","","","","","","","","","","","","","","","",""
"html-keyboard-response","5","119454","0.0-3.0-0.0","f8bebe8409f40781fe40a3e1a58243b31097b571e5a06e028455719f30e66260","arctic","arctic","8179","","<p>You will now complete a short headphone check.</p><p>On each trial, you will hear three tones. One of these tones will be quieter than the others. Your task is to identify whether the quiet tone occurred first, second, or third.</p><p>There are six trials in total.<p></p><p></p>(Press SPACEBAR to begin)","","32","","","","","","","","","","","","","","","","","","","",""
"html-keyboard-response","6","120225","0.0-3.0-1.0-0.0","f8bebe8409f40781fe40a3e1a58243b31097b571e5a06e028455719f30e66260","arctic","arctic","null","","<div style=""font-size:60px;"">+</div>","","null","","","","","","","","","","","","","","","","","","","",""
"audio-button-response","7","125005","0.0-3.0-1.0-1.0","f8bebe8409f40781fe40a3e1a58243b31097b571e5a06e028455719f30e66260","arctic","arctic","4778","","audio/t1_1.mp3","0","","0","1","headphone-test","","","","","","","","","","","","","","","","",""
"html-keyboard-response","8","125515","0.0-3.0-1.0-2.0","f8bebe8409f40781fe40a3e1a58243b31097b571e5a06e028455719f30e66260","arctic","arctic","null","","<p>Correct</p>","","null","","","","","","","","","","","","","","","","","","","",""
"html-keyboard-response","9","126024","0.0-3.0-1.0-0.1","f8bebe8409f40781fe40a3e1a58243b31097b571e5a06e028455719f30e66260","arctic","arctic","null","","<div style=""font-size:60px;"">+</div>","","null","","","","","","","","","","","","","","","","","","","",""
"audio-button-response","10","130568","0.0-3.0-1.0-1.1","f8bebe8409f40781fe40a3e1a58243b31097b571e5a06e028455719f30e66260","arctic","arctic","4541","","audio/t2_1.mp3","1","","1","1","headphone-test","","","","","","","","","","","","","","","","",""
"html-keyboard-response","11","131085","0.0-3.0-1.0-2.1","f8bebe8409f40781fe40a3e1a58243b31097b571e5a06e028455719f30e66260","arctic","arctic","null","","<p>Correct</p>","","null","","","","","","","","","","","","","","","","","","","",""
"html-keyboard-response","12","131605","0.0-3.0-1.0-0.2","f8bebe8409f40781fe40a3e1a58243b31097b571e5a06e028455719f30e66260","arctic","arctic","null","","<div style=""font-size:60px;"">+</div>","","null","","","","","","","","","","","","","","","","","","","",""
"audio-button-response","13","136130","0.0-3.0-1.0-1.2","f8bebe8409f40781fe40a3e1a58243b31097b571e5a06e028455719f30e66260","arctic","arctic","4521","","audio/t2_2.mp3","1","","1","1","headphone-test","","","","","","","","","","","","","","","","",""
"html-keyboard-response","14","136646","0.0-3.0-1.0-2.2","f8bebe8409f40781fe40a3e1a58243b31097b571e5a06e028455719f30e66260","arctic","arctic","null","","<p>Correct</p>","","null","","","","","","","","","","","","","","","","","","","",""
"html-keyboard-response","15","137154","0.0-3.0-1.0-0.3","f8bebe8409f40781fe40a3e1a58243b31097b571e5a06e028455719f30e66260","arctic","arctic","null","","<div style=""font-size:60px;"">+</div>","","null","","","","","","","","","","","","","","","","","","","",""
"audio-button-response","16","141742","0.0-3.0-1.0-1.3","f8bebe8409f40781fe40a3e1a58243b31097b571e5a06e028455719f30e66260","arctic","arctic","4585","","audio/t3_1.mp3","2","","2","1","headphone-test","","","","","","","","","","","","","","","","",""
"html-keyboard-response","17","142256","0.0-3.0-1.0-2.3","f8bebe8409f40781fe40a3e1a58243b31097b571e5a06e028455719f30e66260","arctic","arctic","null","","<p>Correct</p>","","null","","","","","","","","","","","","","","","","","","","",""
"html-keyboard-response","18","142775","0.0-3.0-1.0-0.4","f8bebe8409f40781fe40a3e1a58243b31097b571e5a06e028455719f30e66260","arctic","arctic","null","","<div style=""font-size:60px;"">+</div>","","null","","","","","","","","","","","","","","","","","","","",""
"audio-button-response","19","147693","0.0-3.0-1.0-1.4","f8bebe8409f40781fe40a3e1a58243b31097b571e5a06e028455719f30e66260","arctic","arctic","4915","","audio/t3_2.mp3","2","","2","1","headphone-test","","","","","","","","","","","","","","","","",""
"html-keyboard-response","20","148196","0.0-3.0-1.0-2.4","f8bebe8409f40781fe40a3e1a58243b31097b571e5a06e028455719f30e66260","arctic","arctic","null","","<p>Correct</p>","","null","","","","","","","","","","","","","","","","","","","",""
"html-keyboard-response","21","148716","0.0-3.0-1.0-0.5","f8bebe8409f40781fe40a3e1a58243b31097b571e5a06e028455719f30e66260","arctic","arctic","null","","<div style=""font-size:60px;"">+</div>","","null","","","","","","","","","","","","","","","","","","","",""
"audio-button-response","22","153117","0.0-3.0-1.0-1.5","f8bebe8409f40781fe40a3e1a58243b31097b571e5a06e028455719f30e66260","arctic","arctic","4397","","audio/t1_2.mp3","0","","0","1","headphone-test","","","","","","","","","","","","","","","","",""
"html-keyboard-response","23","153635","0.0-3.0-1.0-2.5","f8bebe8409f40781fe40a3e1a58243b31097b571e5a06e028455719f30e66260","arctic","arctic","null","","<p>Correct</p>","","null","","","","","","","","","","","","","","","","","","","",""
"fullscreen","24","160555","0.0-4.0","f8bebe8409f40781fe40a3e1a58243b31097b571e5a06e028455719f30e66260","arctic","arctic","","","","","","","","","true","","","","","","","","","","","","","","","",""
"html-button-response","25","172631","0.0-5.0-0.0","f8bebe8409f40781fe40a3e1a58243b31097b571e5a06e028455719f30e66260","arctic","arctic","12071","","<p>There are two blocks to this experiment.</p><p>In each block, you will hear a ~13.5 minute story. One of the stories will be scrambled. Please listen carefully to both stories and understand them as best you can.</p><p>After each story, you will be asked some questions to assess your comprehension.</p>","0","","","","","","","","","","","","","","","","","","","","",""
"html-button-response","26","193615","0.0-5.0-1.0","f8bebe8409f40781fe40a3e1a58243b31097b571e5a06e028455719f30e66260","arctic","arctic","20981","","<p>During each story, there will be an additional task.</p><p>A letter will occasionally appear on the screen.</br>Your job is to - as quickly as you can - decide whether the letter is lowercase or uppercase and press one of two keys on the keyboard:</p><p>If the letter is <b>lowercase</b>, press key &lt;<b>x</b>&gt;.</p><p>If the letter is <b>uppercase</b>, press key &lt;<b>m</b>&gt;.</p>","0","","","","","","","","","","","","","","","","","","","","",""
"html-keyboard-response","27","202160","0.0-5.0-2.0","f8bebe8409f40781fe40a3e1a58243b31097b571e5a06e028455719f30e66260","arctic","arctic","8544","","<p>Because we want your responses to be as quick as possible, please keep your index fingers over the keys while listening.</p><p>Each block lasts about 20 minutes.</p><p><b>Press &lt;x&gt; or &lt;m&gt; to start the first block!</b></p>","","88","","","","","","","","","","","","","","","","","","","",""
"html-keyboard-response","28","202663","0.0-6.0-0.0-0.0","f8bebe8409f40781fe40a3e1a58243b31097b571e5a06e028455719f30e66260","arctic","arctic","null","","<div style=""font-size:60px;"" tabindex=""0"">+</div>","","null","","","","","","","","","","","","","","","","","","","",""
"dual-task","null","null","null","","arctic","arctic","1413.699999988079","","h","null","88","88","1","arctic-dual-task","","h","lowercase","14000","0","3","f8bebe8409f40781fe40a3e1a58243b31097b571e5a06e028455719f30e66260","14003.800000011921","1413.699999988079","88","1","arctic","","","","",""
"dual-task","null","null","null","","arctic","arctic","648.8999999761581","","e","null","77","88","0","arctic-dual-task","","e","lowercase","28000","0","3","f8bebe8409f40781fe40a3e1a58243b31097b571e5a06e028455719f30e66260","28008.900000035763","648.8999999761581","77","0","arctic","","","","",""
"dual-task","null","null","null","","arctic","arctic","741.0999999642372","","H","null","77","77","1","arctic-dual-task","","H","uppercase","38000","0","3","f8bebe8409f40781fe40a3e1a58243b31097b571e5a06e028455719f30e66260","37999","741.0999999642372","77","1","arctic","","","","",""
"dual-task","null","null","null","","arctic","arctic","614.5","","g","null","88","88","1","arctic-dual-task","","g","lowercase","50000","0","3","f8bebe8409f40781fe40a3e1a58243b31097b571e5a06e028455719f30e66260","50009.30000001192","614.5","88","1","arctic","","","","",""
"dual-task","null","null","null","","arctic","arctic","992.6999999880791","","q","null","88","88","1","arctic-dual-task","","q","lowercase","58000","0","3","f8bebe8409f40781fe40a3e1a58243b31097b571e5a06e028455719f30e66260","58009.90000003576","992.6999999880791","88","1","arctic","","","","",""
"dual-task","null","null","null","","arctic","arctic","602.6000000238419","","e","null","88","88","1","arctic-dual-task","","e","lowercase","70000","0","3","f8bebe8409f40781fe40a3e1a58243b31097b571e5a06e028455719f30e66260","69999.5","602.6000000238419","88","1","arctic","","","","",""
"dual-task","null","null","null","","arctic","arctic","715.0999999642372","","B","null","77","77","1","arctic-dual-task","","B","uppercase","84000","0","3","f8bebe8409f40781fe40a3e1a58243b31097b571e5a06e028455719f30e66260","84019.80000001192","715.0999999642372","77","1","arctic","","","","",""
"dual-task","null","null","null","","arctic","arctic","841.5","","r","null","88","88","1","arctic-dual-task","","r","lowercase","98000","0","3","f8bebe8409f40781fe40a3e1a58243b31097b571e5a06e028455719f30e66260","98000.20000004768","841.5","88","1","arctic","","","","",""
"dual-task","null","null","null","","arctic","arctic","643.8999999761581","","g","null","88","88","1","arctic-dual-task","","g","lowercase","112000","0","3","f8bebe8409f40781fe40a3e1a58243b31097b571e5a06e028455719f30e66260","112009","643.8999999761581","88","1","arctic","","","","",""
"dual-task","null","null","null","","arctic","arctic","630.1999999880791","","R","null","77","77","1","arctic-dual-task","","R","uppercase","120000","0","3","f8bebe8409f40781fe40a3e1a58243b31097b571e5a06e028455719f30e66260","120008.5","630.1999999880791","77","1","arctic","","","","",""
"dual-task","null","null","null","","arctic","arctic","703.6000000238419","","R","null","77","77","1","arctic-dual-task","","R","uppercase","132000","0","3","f8bebe8409f40781fe40a3e1a58243b31097b571e5a06e028455719f30e66260","132003.70000004768","703.6000000238419","77","1","arctic","","","","",""
"dual-task","null","null","null","","arctic","arctic","710.8000000119209","","h","null","88","88","1","arctic-dual-task","","h","lowercase","146000","0","3","f8bebe8409f40781fe40a3e1a58243b31097b571e5a06e028455719f30e66260","146009.20000004768","710.8000000119209","88","1","arctic","","","","",""
"dual-task","null","null","null","","arctic","arctic","694.4000000357628","","d","null","88","88","1","arctic-dual-task","","d","lowercase","154000","0","3","f8bebe8409f40781fe40a3e1a58243b31097b571e5a06e028455719f30e66260","154010.10000002384","694.4000000357628","88","1","arctic","","","","",""
"dual-task","null","null","null","","arctic","arctic","577.1000000238419","","R","null","77","77","1","arctic-dual-task","","R","uppercase","164000","0","3","f8bebe8409f40781fe40a3e1a58243b31097b571e5a06e028455719f30e66260","164009.70000004768","577.1000000238419","77","1","arctic","","","","",""
"dual-task","null","null","null","","arctic","arctic","1178.6000000238419","","D","null","77","77","1","arctic-dual-task","","D","uppercase","178000","0","3","f8bebe8409f40781fe40a3e1a58243b31097b571e5a06e028455719f30e66260","178009.5","1178.6000000238419","77","1","arctic","","","","",""
"dual-task","null","null","null","","arctic","arctic","692.2999999523163","","T","null","77","77","1","arctic-dual-task","","T","uppercase","186000","0","3","f8bebe8409f40781fe40a3e1a58243b31097b571e5a06e028455719f30e66260","186010.40000003576","692.2999999523163","77","1","arctic","","","","",""
"dual-task","null","null","null","","arctic","arctic","700.1999999880791","","d","null","88","88","1","arctic-dual-task","","d","lowercase","200000","0","3","f8bebe8409f40781fe40a3e1a58243b31097b571e5a06e028455719f30e66260","199999.90000003576","700.1999999880791","88","1","arctic","","","","",""
"dual-task","null","null","null","","arctic","arctic","931.9000000357628","","T","null","77","77","1","arctic-dual-task","","T","uppercase","212000","0","3","f8bebe8409f40781fe40a3e1a58243b31097b571e5a06e028455719f30e66260","212010.30000001192","931.9000000357628","77","1","arctic","","","","",""
"dual-task","null","null","null","","arctic","arctic","670.0999999642372","","D","null","77","77","1","arctic-dual-task","","D","uppercase","220000","0","3","f8bebe8409f40781fe40a3e1a58243b31097b571e5a06e028455719f30e66260","220009.80000001192","670.0999999642372","77","1","arctic","","","","",""
"dual-task","null","null","null","","arctic","arctic","768.6999999880791","","f","null","88","88","1","arctic-dual-task","","f","lowercase","234000","0","3","f8bebe8409f40781fe40a3e1a58243b31097b571e5a06e028455719f30e66260","234009.70000004768","768.6999999880791","88","1","arctic","","","","",""
"dual-task","null","null","null","","arctic","arctic","948.4000000357628","","N","null","77","77","1","arctic-dual-task","","N","uppercase","246000","0","3","f8bebe8409f40781fe40a3e1a58243b31097b571e5a06e028455719f30e66260","246009.10000002384","948.4000000357628","77","1","arctic","","","","",""
"dual-task","null","null","null","","arctic","arctic","879","","a","null","88","88","1","arctic-dual-task","","a","lowercase","256000","0","3","f8bebe8409f40781fe40a3e1a58243b31097b571e5a06e028455719f30e66260","256013.5","879","88","1","arctic","","","","",""
"dual-task","null","null","null","","arctic","arctic","965.6999999880791","","f","null","88","88","1","arctic-dual-task","","f","lowercase","264000","0","3","f8bebe8409f40781fe40a3e1a58243b31097b571e5a06e028455719f30e66260","264008.5","965.6999999880791","88","1","arctic","","","","",""
"dual-task","null","null","null","","arctic","arctic","668","","H","null","77","77","1","arctic-dual-task","","H","uppercase","274000","0","3","f8bebe8409f40781fe40a3e1a58243b31097b571e5a06e028455719f30e66260","274009.5","668","77","1","arctic","","","","",""
"dual-task","null","null","null","","arctic","arctic","1007","","N","null","77","77","1","arctic-dual-task","","N","uppercase","286000","0","3","f8bebe8409f40781fe40a3e1a58243b31097b571e5a06e028455719f30e66260","286010.10000002384","1007","77","1","arctic","","","","",""
"dual-task","null","null","null","","arctic","arctic","530","","F","null","77","77","1","arctic-dual-task","","F","uppercase","296000","0","3","f8bebe8409f40781fe40a3e1a58243b31097b571e5a06e028455719f30e66260","296009.7000000477","530","77","1","arctic","","","","",""
"dual-task","null","null","null","","arctic","arctic","736.3999999761581","","t","null","88","88","1","arctic-dual-task","","t","lowercase","306000","0","3","f8bebe8409f40781fe40a3e1a58243b31097b571e5a06e028455719f30e66260","306009.7000000477","736.3999999761581","88","1","arctic","","","","",""
"dual-task","null","null","null","","arctic","arctic","1152.1000000238419","","b","null","88","88","1","arctic-dual-task","","b","lowercase","314000","0","3","f8bebe8409f40781fe40a3e1a58243b31097b571e5a06e028455719f30e66260","314019.40000003576","1152.1000000238419","88","1","arctic","","","","",""
"dual-task","null","null","null","","arctic","arctic","725","","g","null","88","88","1","arctic-dual-task","","g","lowercase","326000","0","3","f8bebe8409f40781fe40a3e1a58243b31097b571e5a06e028455719f30e66260","326009.7000000477","725","88","1","arctic","","","","",""
"dual-task","null","null","null","","arctic","arctic","702","","e","null","88","88","1","arctic-dual-task","","e","lowercase","334000","0","3","f8bebe8409f40781fe40a3e1a58243b31097b571e5a06e028455719f30e66260","334019.10000002384","702","88","1","arctic","","","","",""
"dual-task","null","null","null","","arctic","arctic","726.6999999880791","","n","null","88","88","1","arctic-dual-task","","n","lowercase","346000","0","3","f8bebe8409f40781fe40a3e1a58243b31097b571e5a06e028455719f30e66260","346019.2000000477","726.6999999880791","88","1","arctic","","","","",""
"dual-task","null","null","null","","arctic","arctic","562.1999999880791","","r","null","88","88","1","arctic-dual-task","","r","lowercase","356000","0","3","f8bebe8409f40781fe40a3e1a58243b31097b571e5a06e028455719f30e66260","356009.2000000477","562.1999999880791","88","1","arctic","","","","",""
"dual-task","null","null","null","","arctic","arctic","1019","","G","null","77","77","1","arctic-dual-task","","G","uppercase","366000","0","3","f8bebe8409f40781fe40a3e1a58243b31097b571e5a06e028455719f30e66260","366008.7000000477","1019","77","1","arctic","","","","",""
"dual-task","null","null","null","","arctic","arctic","616.3000000119209","","E","null","77","77","1","arctic-dual-task","","E","uppercase","376000","0","3","f8bebe8409f40781fe40a3e1a58243b31097b571e5a06e028455719f30e66260","376019.2000000477","616.3000000119209","77","1","arctic","","","","",""
"dual-task","null","null","null","","arctic","arctic","790.7999999523163","","Q","null","77","77","1","arctic-dual-task","","Q","uppercase","386000","0","3","f8bebe8409f40781fe40a3e1a58243b31097b571e5a06e028455719f30e66260","386019.60000002384","790.7999999523163","77","1","arctic","","","","",""
"dual-task","null","null","null","","arctic","arctic","615.1999999880791","","Q","null","77","77","1","arctic-dual-task","","Q","uppercase","398000","0","3","f8bebe8409f40781fe40a3e1a58243b31097b571e5a06e028455719f30e66260","398009.10000002384","615.1999999880791","77","1","arctic","","","","",""
"dual-task","null","null","null","","arctic","arctic","716.3999999761581","","q","null","88","88","1","arctic-dual-task","","q","lowercase","404000","0","3","f8bebe8409f40781fe40a3e1a58243b31097b571e5a06e028455719f30e66260","404019","716.3999999761581","88","1","arctic","","","","",""
"dual-task","null","null","null","","arctic","arctic","746.2999999523163","","d","null","88","88","1","arctic-dual-task","","d","lowercase","418000","0","3","f8bebe8409f40781fe40a3e1a58243b31097b571e5a06e028455719f30e66260","418009.60000002384","746.2999999523163","88","1","arctic","","","","",""
"dual-task","null","null","null","","arctic","arctic","544.1000000238419","","B","null","77","77","1","arctic-dual-task","","B","uppercase","424000","0","3","f8bebe8409f40781fe40a3e1a58243b31097b571e5a06e028455719f30e66260","424009.3000000119","544.1000000238419","77","1","arctic","","","","",""
"dual-task","null","null","null","","arctic","arctic","1110.5","","D","null","77","77","1","arctic-dual-task","","D","uppercase","436000","0","3","f8bebe8409f40781fe40a3e1a58243b31097b571e5a06e028455719f30e66260","436007.2000000477","1110.5","77","1","arctic","","","","",""
"dual-task","null","null","null","","arctic","arctic","588.1999999880791","","q","null","77","88","0","arctic-dual-task","","q","lowercase","446000","0","3","f8bebe8409f40781fe40a3e1a58243b31097b571e5a06e028455719f30e66260","446019.8000000119","588.1999999880791","77","0","arctic","","","","",""
"dual-task","null","null","null","","arctic","arctic","602.6999999880791","","f","null","88","88","1","arctic-dual-task","","f","lowercase","452000","0","3","f8bebe8409f40781fe40a3e1a58243b31097b571e5a06e028455719f30e66260","452009.5","602.6999999880791","88","1","arctic","","","","",""
"dual-task","null","null","null","","arctic","arctic","848.1999999880791","","t","null","88","88","1","arctic-dual-task","","t","lowercase","460000","0","3","f8bebe8409f40781fe40a3e1a58243b31097b571e5a06e028455719f30e66260","460008.90000003576","848.1999999880791","88","1","arctic","","","","",""
"dual-task","null","null","null","","arctic","arctic","656.3000000119209","","r","null","88","88","1","arctic-dual-task","","r","lowercase","468000","0","3","f8bebe8409f40781fe40a3e1a58243b31097b571e5a06e028455719f30e66260","468008.7000000477","656.3000000119209","88","1","arctic","","","","",""
"dual-task","null","null","null","","arctic","arctic","NA","","e","null","NA","88","0","arctic-dual-task","","e","lowercase","474000","1","3","f8bebe8409f40781fe40a3e1a58243b31097b571e5a06e028455719f30e66260","474009.7000000477","NA","NA","0","arctic","","","","",""
"dual-task","null","null","null","","arctic","arctic","785.5","","F","null","77","77","1","arctic-dual-task","","F","uppercase","484000","0","3","f8bebe8409f40781fe40a3e1a58243b31097b571e5a06e028455719f30e66260","484009.40000003576","785.5","77","1","arctic","","","","",""
"dual-task","null","null","null","","arctic","arctic","785.1000000238419","","n","null","88","88","1","arctic-dual-task","","n","lowercase","498000","0","3","f8bebe8409f40781fe40a3e1a58243b31097b571e5a06e028455719f30e66260","498009.40000003576","785.1000000238419","88","1","arctic","","","","",""
"dual-task","null","null","null","","arctic","arctic","610.5","","Q","null","77","77","1","arctic-dual-task","","Q","uppercase","504000","0","3","f8bebe8409f40781fe40a3e1a58243b31097b571e5a06e028455719f30e66260","504019.2000000477","610.5","77","1","arctic","","","","",""
"dual-task","null","null","null","","arctic","arctic","609.7000000476837","","D","null","77","77","1","arctic-dual-task","","D","uppercase","512000","0","3","f8bebe8409f40781fe40a3e1a58243b31097b571e5a06e028455719f30e66260","512009.3000000119","609.7000000476837","77","1","arctic","","","","",""
"dual-task","null","null","null","","arctic","arctic","794.1999999880791","","F","null","77","77","1","arctic-dual-task","","F","uppercase","518000","0","3","f8bebe8409f40781fe40a3e1a58243b31097b571e5a06e028455719f30e66260","518019.5","794.1999999880791","77","1","arctic","","","","",""
"dual-task","null","null","null","","arctic","arctic","637.2999999523163","","E","null","77","77","1","arctic-dual-task","","E","uppercase","528000","0","3","f8bebe8409f40781fe40a3e1a58243b31097b571e5a06e028455719f30e66260","528009.6000000238","637.2999999523163","77","1","arctic","","","","",""
"dual-task","null","null","null","","arctic","arctic","990.1999999880791","","q","null","88","88","1","arctic-dual-task","","q","lowercase","536000","0","3","f8bebe8409f40781fe40a3e1a58243b31097b571e5a06e028455719f30e66260","536019.1000000238","990.1999999880791","88","1","arctic","","","","",""
"dual-task","null","null","null","","arctic","arctic","880.5","","f","null","88","88","1","arctic-dual-task","","f","lowercase","548000","0","3","f8bebe8409f40781fe40a3e1a58243b31097b571e5a06e028455719f30e66260","548009.2000000477","880.5","88","1","arctic","","","","",""
"dual-task","null","null","null","","arctic","arctic","827.1999999880791","","h","null","88","88","1","arctic-dual-task","","h","lowercase","556000","0","3","f8bebe8409f40781fe40a3e1a58243b31097b571e5a06e028455719f30e66260","556008.7000000477","827.1999999880791","88","1","arctic","","","","",""
"dual-task","null","null","null","","arctic","arctic","596.5999999642372","","Q","null","77","77","1","arctic-dual-task","","Q","uppercase","568000","0","3","f8bebe8409f40781fe40a3e1a58243b31097b571e5a06e028455719f30e66260","568018.4000000358","596.5999999642372","77","1","arctic","","","","",""
"dual-task","null","null","null","","arctic","arctic","715.4000000357628","","E","null","77","77","1","arctic-dual-task","","E","uppercase","576000","0","3","f8bebe8409f40781fe40a3e1a58243b31097b571e5a06e028455719f30e66260","576019.4000000358","715.4000000357628","77","1","arctic","","","","",""
"dual-task","null","null","null","","arctic","arctic","NA","","H","null","NA","77","0","arctic-dual-task","","H","uppercase","584000","1","3","f8bebe8409f40781fe40a3e1a58243b31097b571e5a06e028455719f30e66260","584009.3000000119","NA","NA","0","arctic","","","","",""
"dual-task","null","null","null","","arctic","arctic","764.6999999880791","","a","null","88","88","1","arctic-dual-task","","a","lowercase","592000","0","3","f8bebe8409f40781fe40a3e1a58243b31097b571e5a06e028455719f30e66260","592019","764.6999999880791","88","1","arctic","","","","",""
"dual-task","null","null","null","","arctic","arctic","1202.5999999642372","","g","null","88","88","1","arctic-dual-task","","g","lowercase","600000","0","3","f8bebe8409f40781fe40a3e1a58243b31097b571e5a06e028455719f30e66260","600019.1000000238","1202.5999999642372","88","1","arctic","","","","",""
"dual-task","null","null","null","","arctic","arctic","680.3999999761581","","B","null","77","77","1","arctic-dual-task","","B","uppercase","614000","0","3","f8bebe8409f40781fe40a3e1a58243b31097b571e5a06e028455719f30e66260","614019.5","680.3999999761581","77","1","arctic","","","","",""
"dual-task","null","null","null","","arctic","arctic","1000.6000000238419","","G","null","77","77","1","arctic-dual-task","","G","uppercase","622000","0","3","f8bebe8409f40781fe40a3e1a58243b31097b571e5a06e028455719f30e66260","622019.7000000477","1000.6000000238419","77","1","arctic","","","","",""
"dual-task","null","null","null","","arctic","arctic","1072.699999988079","","n","null","88","88","1","arctic-dual-task","","n","lowercase","628000","0","3","f8bebe8409f40781fe40a3e1a58243b31097b571e5a06e028455719f30e66260","628009.3000000119","1072.699999988079","88","1","arctic","","","","",""
"dual-task","null","null","null","","arctic","arctic","NA","","E","null","NA","77","0","arctic-dual-task","","E","uppercase","636000","1","3","f8bebe8409f40781fe40a3e1a58243b31097b571e5a06e028455719f30e66260","636009.4000000358","NA","NA","0","arctic","","","","",""
"dual-task","null","null","null","","arctic","arctic","NA","","b","null","NA","88","0","arctic-dual-task","","b","lowercase","642000","1","3","f8bebe8409f40781fe40a3e1a58243b31097b571e5a06e028455719f30e66260","642018.9000000358","NA","NA","0","arctic","","","","",""
"dual-task","null","null","null","","arctic","arctic","949.9000000357628","","a","null","88","88","1","arctic-dual-task","","a","lowercase","650000","0","3","f8bebe8409f40781fe40a3e1a58243b31097b571e5a06e028455719f30e66260","650009.1000000238","949.9000000357628","88","1","arctic","","","","",""
"dual-task","null","null","null","","arctic","arctic","1277.0999999642372","","n","null","88","88","1","arctic-dual-task","","n","lowercase","662000","0","3","f8bebe8409f40781fe40a3e1a58243b31097b571e5a06e028455719f30e66260","662019","1277.0999999642372","88","1","arctic","","","","",""
"dual-task","null","null","null","","arctic","arctic","748.3000000119209","","d","null","88","88","1","arctic-dual-task","","d","lowercase","668000","0","3","f8bebe8409f40781fe40a3e1a58243b31097b571e5a06e028455719f30e66260","668008.6000000238","748.3000000119209","88","1","arctic","","","","",""
"dual-task","null","null","null","","arctic","arctic","670.2000000476837","","G","null","88","77","0","arctic-dual-task","","G","uppercase","674000","0","3","f8bebe8409f40781fe40a3e1a58243b31097b571e5a06e028455719f30e66260","674009.6000000238","670.2000000476837","88","0","arctic","","","","",""
"dual-task","null","null","null","","arctic","arctic","NA","","A","null","NA","77","0","arctic-dual-task","","A","uppercase","682000","1","3","f8bebe8409f40781fe40a3e1a58243b31097b571e5a06e028455719f30e66260","682018.8000000119","NA","NA","0","arctic","","","","",""
"dual-task","null","null","null","","arctic","arctic","NA","","h","null","NA","88","0","arctic-dual-task","","h","lowercase","696000","1","3","f8bebe8409f40781fe40a3e1a58243b31097b571e5a06e028455719f30e66260","696019.6000000238","NA","NA","0","arctic","","","","",""
"dual-task","null","null","null","","arctic","arctic","1146.2999999523163","","T","null","77","77","1","arctic-dual-task","","T","uppercase","704000","0","3","f8bebe8409f40781fe40a3e1a58243b31097b571e5a06e028455719f30e66260","704017.8000000119","1146.2999999523163","77","1","arctic","","","","",""
"dual-task","null","null","null","","arctic","arctic","673.5","","t","null","88","88","1","arctic-dual-task","","t","lowercase","710000","0","3","f8bebe8409f40781fe40a3e1a58243b31097b571e5a06e028455719f30e66260","710007.9000000358","673.5","88","1","arctic","","","","",""
"dual-task","null","null","null","","arctic","arctic","766.0999999642372","","G","null","88","77","0","arctic-dual-task","","G","uppercase","722000","0","3","f8bebe8409f40781fe40a3e1a58243b31097b571e5a06e028455719f30e66260","722009.1000000238","766.0999999642372","88","0","arctic","","","","",""
"dual-task","null","null","null","","arctic","arctic","NA","","B","null","NA","77","0","arctic-dual-task","","B","uppercase","730000","1","3","f8bebe8409f40781fe40a3e1a58243b31097b571e5a06e028455719f30e66260","730018.9000000358","NA","NA","0","arctic","","","","",""
"dual-task","null","null","null","","arctic","arctic","997.0999999642372","","t","null","88","88","1","arctic-dual-task","","t","lowercase","740000","0","3","f8bebe8409f40781fe40a3e1a58243b31097b571e5a06e028455719f30e66260","740009.3000000119","997.0999999642372","88","1","arctic","","","","",""
"dual-task","null","null","null","","arctic","arctic","1901.5","","A","null","77","77","1","arctic-dual-task","","A","uppercase","750000","0","3","f8bebe8409f40781fe40a3e1a58243b31097b571e5a06e028455719f30e66260","750009.4000000358","1901.5","77","1","arctic","","","","",""
"dual-task","null","null","null","","arctic","arctic","830.8000000119209","","R","null","77","77","1","arctic-dual-task","","R","uppercase","758000","0","3","f8bebe8409f40781fe40a3e1a58243b31097b571e5a06e028455719f30e66260","758018.9000000358","830.8000000119209","77","1","arctic","","","","",""
"dual-task","null","null","null","","arctic","arctic","NA","","r","null","NA","88","0","arctic-dual-task","","r","lowercase","772000","1","3","f8bebe8409f40781fe40a3e1a58243b31097b571e5a06e028455719f30e66260","772009.3000000119","NA","NA","0","arctic","","","","",""
"dual-task","null","null","null","","arctic","arctic","1180.9000000357628","","F","null","77","77","1","arctic-dual-task","","F","uppercase","782000","0","3","f8bebe8409f40781fe40a3e1a58243b31097b571e5a06e028455719f30e66260","782009.3000000119","1180.9000000357628","77","1","arctic","","","","",""
"audio-keyboard-response","29","1000869","0.0-6.0-0.0-1.0","f8bebe8409f40781fe40a3e1a58243b31097b571e5a06e028455719f30e66260","arctic","arctic","null","","audio/story_arctic_scrambled.mp3","","null","","","","","","","","","","","","","","","","","","","",""
"html-button-response","30","1011311","0.0-6.0-0.0-2.0","f8bebe8409f40781fe40a3e1a58243b31097b571e5a06e028455719f30e66260","arctic","arctic","10439","","<p>This concludes the story. Thank you for listening.</p><p>You will now answer some questions about the content of the story.</p>","0","","","","","","","","","","","","","","","","","","","","",""
"survey-multi-choice","31","1017773","0.0-6.0-0.0-3.0-0.0","f8bebe8409f40781fe40a3e1a58243b31097b571e5a06e028455719f30e66260","arctic","arctic","6456","","<b>What is the name of the narrator&#39;s neighbour?</b>","","","","1","arctic-comprehension","","","","","","","","","","","","","{""Q0"":""Dave""}","","","",""
"survey-multi-choice","32","1024978","0.0-6.0-0.0-3.0-0.1","f8bebe8409f40781fe40a3e1a58243b31097b571e5a06e028455719f30e66260","arctic","arctic","6947","","<b>How many sponsorships did the narrator receive to support her expedition?</b>","","","","1","arctic-comprehension","","","","","","","","","","","","","{""Q0"":""None""}","","","",""
"survey-multi-choice","33","1029949","0.0-6.0-0.0-3.0-0.2","f8bebe8409f40781fe40a3e1a58243b31097b571e5a06e028455719f30e66260","arctic","arctic","4703","","<b>What was the objective of the narrator&#39;s expedition?</b>","","","","1","arctic-comprehension","","","","","","","","","","","","","{""Q0"":""Dogsled across Arctic America""}","","","",""
"survey-multi-choice","34","1036276","0.0-6.0-0.0-3.0-0.3","f8bebe8409f40781fe40a3e1a58243b31097b571e5a06e028455719f30e66260","arctic","arctic","6060","","<b>Which dog on the narrator&#39;s dog team never followed instructions?</b>","","","","1","arctic-comprehension","","","","","","","","","","","","","{""Q0"":""Robert""}","","","",""
"survey-multi-choice","35","1043173","0.0-6.0-0.0-3.0-0.4","f8bebe8409f40781fe40a3e1a58243b31097b571e5a06e028455719f30e66260","arctic","arctic","6633","","<b>How did the narrator&#39;s neighbour respond when she told him about her expedition?</b>","","","","0","arctic-comprehension","","","","","","","","","","","","","{""Q0"":""He said he was worried about her.""}","","","",""
"survey-multi-choice","36","1050538","0.0-6.0-0.0-3.0-0.5","f8bebe8409f40781fe40a3e1a58243b31097b571e5a06e028455719f30e66260","arctic","arctic","7100","","<b>How did the narrator&#39;s encounter with the polar bears end?</b>","","","","1","arctic-comprehension","","","","","","","","","","","","","{""Q0"":""The bears walked back to their den.""}","","","",""
"survey-multi-choice","37","1058322","0.0-6.0-0.0-3.0-0.6","f8bebe8409f40781fe40a3e1a58243b31097b571e5a06e028455719f30e66260","arctic","arctic","7527","","<b>How did the narrator prepare for her expedition?</b>","","","","1","arctic-comprehension","","","","","","","","","","","","","{""Q0"":""Trained in Alaska learning how to dogsled""}","","","",""
"survey-multi-choice","38","1062981","0.0-6.0-0.0-3.0-0.7","f8bebe8409f40781fe40a3e1a58243b31097b571e5a06e028455719f30e66260","arctic","arctic","4393","","<b>How did the dogs respond when they saw the bears?</b>","","","","0","arctic-comprehension","","","","","","","","","","","","","{""Q0"":""Barked aggressively""}","","","",""
"survey-multi-choice","39","1067427","0.0-6.0-0.0-3.0-0.8","f8bebe8409f40781fe40a3e1a58243b31097b571e5a06e028455719f30e66260","arctic","arctic","4187","","<b>What did the narrator do for leisure while in her tent?</b>","","","","1","arctic-comprehension","","","","","","","","","","","","","{""Q0"":""Read""}","","","",""
"survey-multi-choice","40","1077527","0.0-6.0-0.0-3.0-0.9","f8bebe8409f40781fe40a3e1a58243b31097b571e5a06e028455719f30e66260","arctic","arctic","9840","","<b>What were the weather conditions in the Arctic like the winter of the narrator&#39;s expedition?</b>","","","","1","arctic-comprehension","","","","","","","","","","","","","{""Q0"":""There were more storms than any other winter in recorded history.""}","","","",""
"html-button-response","41","1080642","0.0-6.0-0.0-4.0","f8bebe8409f40781fe40a3e1a58243b31097b571e5a06e028455719f30e66260","arctic","arctic","2861","","<p>Thank you for your responses.</p><p>You will now answer some questions about your impressions of the story.</p>","0","","","","","","","","","","","","","","","","","","","","",""
"html-button-response","42","1088427","0.0-6.0-0.0-5.0-0.0","f8bebe8409f40781fe40a3e1a58243b31097b571e5a06e028455719f30e66260","arctic","arctic","7783","","MS2","6","","","","arctic-engagement","","","","","","","","","","","","","","7","mental-sim","",""
"html-button-response","43","1091868","0.0-6.0-0.0-5.0-0.1","f8bebe8409f40781fe40a3e1a58243b31097b571e5a06e028455719f30e66260","arctic","arctic","3184","","EE5","5","","","","arctic-engagement","","","","","","","","","","","","","","6","emo-engage","",""
"html-button-response","44","1093604","0.0-6.0-0.0-5.0-0.2","f8bebe8409f40781fe40a3e1a58243b31097b571e5a06e028455719f30e66260","arctic","arctic","1481","","A3","6","","","","arctic-engagement","","","","","","","","","","","","","","7","absorption","",""
"html-button-response","45","1096191","0.0-6.0-0.0-5.0-0.3","f8bebe8409f40781fe40a3e1a58243b31097b571e5a06e028455719f30e66260","arctic","arctic","2331","","EE2","4","","","","arctic-engagement","","","","","","","","","","","","","","5","emo-engage","",""
"html-button-response","46","1097780","0.0-6.0-0.0-5.0-0.4","f8bebe8409f40781fe40a3e1a58243b31097b571e5a06e028455719f30e66260","arctic","arctic","1335","","E7","5","","","","arctic-engagement","","","","","","","","","","","","","","6","enjoyment","",""
"html-button-response","47","1101871","0.0-6.0-0.0-5.0-0.5","f8bebe8409f40781fe40a3e1a58243b31097b571e5a06e028455719f30e66260","arctic","arctic","3786","","MS1","6","","","","arctic-engagement","","","","","","","","","","","","","","7","mental-sim","",""
"html-button-response","48","1103940","0.0-6.0-0.0-5.0-0.6","f8bebe8409f40781fe40a3e1a58243b31097b571e5a06e028455719f30e66260","arctic","arctic","1814","","E6","4","","","","arctic-engagement","","","","","","","","","","","","","","5","enjoyment","",""
"html-button-response","49","1107081","0.0-6.0-0.0-5.0-0.7","f8bebe8409f40781fe40a3e1a58243b31097b571e5a06e028455719f30e66260","arctic","arctic","2887","","MS3","5","","","","arctic-engagement","","","","","","","","","","","","","","6","mental-sim","",""
"html-button-response","50","1112738","0.0-6.0-0.0-5.0-0.8","f8bebe8409f40781fe40a3e1a58243b31097b571e5a06e028455719f30e66260","arctic","arctic","5393","","A4","6","","","","arctic-engagement","","","","","","","","","","","","","","7","absorption","",""
"html-button-response","51","1114650","0.0-6.0-0.0-5.0-0.9","f8bebe8409f40781fe40a3e1a58243b31097b571e5a06e028455719f30e66260","arctic","arctic","1658","","EE4","5","","","","arctic-engagement","","","","","","","","","","","","","","6","emo-engage","",""
"html-button-response","52","1116601","0.0-6.0-0.0-5.0-0.10","f8bebe8409f40781fe40a3e1a58243b31097b571e5a06e028455719f30e66260","arctic","arctic","1696","","EE3","6","","","","arctic-engagement","","","","","","","","","","","","","","7","emo-engage","",""
"html-button-response","53","1118246","0.0-6.0-0.0-5.0-0.11","f8bebe8409f40781fe40a3e1a58243b31097b571e5a06e028455719f30e66260","arctic","arctic","1390","","E1","4","","","","arctic-engagement","","","","","","","","","","","","","","5","enjoyment","",""
"html-button-response","54","1121084","0.0-6.0-0.0-5.0-0.12","f8bebe8409f40781fe40a3e1a58243b31097b571e5a06e028455719f30e66260","arctic","arctic","2585","","A5","5","","","","arctic-engagement","","","","","","","","","","","","","","6","absorption","",""
"html-button-response","55","1123797","0.0-6.0-0.0-5.0-0.13","f8bebe8409f40781fe40a3e1a58243b31097b571e5a06e028455719f30e66260","arctic","arctic","2459","","A2","6","","","","arctic-engagement","","","","","","","","","","","","","","7","absorption","",""
"html-button-response","56","1127677","0.0-6.0-0.0-5.0-0.14","f8bebe8409f40781fe40a3e1a58243b31097b571e5a06e028455719f30e66260","arctic","arctic","3626","","A1","5","","","","arctic-engagement","","","","","","","","","","","","","","6","absorption","",""
"html-button-response","57","1130155","0.0-6.0-0.0-5.0-0.15","f8bebe8409f40781fe40a3e1a58243b31097b571e5a06e028455719f30e66260","arctic","arctic","2224","","E8","4","","","","arctic-engagement","","","","","","","","","","","","","","5","enjoyment","",""
"html-button-response","58","1135160","0.0-6.0-0.0-5.0-0.16","f8bebe8409f40781fe40a3e1a58243b31097b571e5a06e028455719f30e66260","arctic","arctic","4752","","EE1","6","","","","arctic-engagement","","","","","","","","","","","","","","7","emo-engage","",""
"html-button-response","59","1136996","0.0-6.0-0.0-5.0-0.17","f8bebe8409f40781fe40a3e1a58243b31097b571e5a06e028455719f30e66260","arctic","arctic","1580","","E10","6","","","","arctic-engagement","","","","","","","","","","","","","","7","enjoyment","",""
"html-keyboard-response","60","1409093","0.0-6.0-1.0","f8bebe8409f40781fe40a3e1a58243b31097b571e5a06e028455719f30e66260","arctic","arctic","271844","","<p>Thank you for your responses. You will now listen to the second story.</p><p>Remember, as you listen to the story you will see letters appear on the screen.</br>As quickly as possible, press <b>&lt;x&gt;</b> if the letter is lowercase and <b>&lt;m&gt;</b> if the letter is uppercase.</p><p>Press <b>&lt;x&gt;</b> or <b>&lt;m&gt;</b> to begin listening!</p>","","88","","","","","","","","","","","","","","","","","","","",""
"html-keyboard-response","61","1409595","0.0-6.0-2.0-0.0","f8bebe8409f40781fe40a3e1a58243b31097b571e5a06e028455719f30e66260","arctic","arctic","null","","<div style=""font-size:60px;"" tabindex=""0"">+</div>","","null","","","","","","","","","","","","","","","","","","","",""
"dual-task","null","null","null","","arctic","arctic","1361.7999999523163","","f","null","88","88","1","swim-dual-task","","f","lowercase","14000","0","3","f8bebe8409f40781fe40a3e1a58243b31097b571e5a06e028455719f30e66260","14001.599999904633","1361.7999999523163","88","1","swim","","","","",""
"dual-task","null","null","null","","arctic","arctic","1297.8000000715256","","f","null","88","88","1","swim-dual-task","","f","lowercase","20000","0","3","f8bebe8409f40781fe40a3e1a58243b31097b571e5a06e028455719f30e66260","20011.199999928474","1297.8000000715256","88","1","swim","","","","",""
"dual-task","null","null","null","","arctic","arctic","732.8000000715256","","a","null","88","88","1","swim-dual-task","","a","lowercase","32000","0","3","f8bebe8409f40781fe40a3e1a58243b31097b571e5a06e028455719f30e66260","32006.599999904633","732.8000000715256","88","1","swim","","","","",""
"dual-task","null","null","null","","arctic","arctic","868.1000000238419","","A","null","77","77","1","swim-dual-task","","A","uppercase","44000","0","3","f8bebe8409f40781fe40a3e1a58243b31097b571e5a06e028455719f30e66260","44002","868.1000000238419","77","1","swim","","","","",""
"dual-task","null","null","null","","arctic","arctic","682","","r","null","88","88","1","swim-dual-task","","r","lowercase","56000","0","3","f8bebe8409f40781fe40a3e1a58243b31097b571e5a06e028455719f30e66260","56002.09999990463","682","88","1","swim","","","","",""
"dual-task","null","null","null","","arctic","arctic","769.7999999523163","","d","null","88","88","1","swim-dual-task","","d","lowercase","66000","0","3","f8bebe8409f40781fe40a3e1a58243b31097b571e5a06e028455719f30e66260","66001.59999990463","769.7999999523163","88","1","swim","","","","",""
"dual-task","null","null","null","","arctic","arctic","746.6000000238419","","Q","null","77","77","1","swim-dual-task","","Q","uppercase","80000","0","3","f8bebe8409f40781fe40a3e1a58243b31097b571e5a06e028455719f30e66260","80012.19999992847","746.6000000238419","77","1","swim","","","","",""
"dual-task","null","null","null","","arctic","arctic","589.8000000715256","","t","null","88","88","1","swim-dual-task","","t","lowercase","88000","0","3","f8bebe8409f40781fe40a3e1a58243b31097b571e5a06e028455719f30e66260","88012","589.8000000715256","88","1","swim","","","","",""
"dual-task","null","null","null","","arctic","arctic","556","","a","null","88","88","1","swim-dual-task","","a","lowercase","96000","0","3","f8bebe8409f40781fe40a3e1a58243b31097b571e5a06e028455719f30e66260","96011.89999997616","556","88","1","swim","","","","",""
"dual-task","null","null","null","","arctic","arctic","677.8999999761581","","G","null","77","77","1","swim-dual-task","","G","uppercase","106000","0","3","f8bebe8409f40781fe40a3e1a58243b31097b571e5a06e028455719f30e66260","106012.39999997616","677.8999999761581","77","1","swim","","","","",""
"dual-task","null","null","null","","arctic","arctic","415.8000000715256","","D","null","88","77","0","swim-dual-task","","D","uppercase","112000","0","3","f8bebe8409f40781fe40a3e1a58243b31097b571e5a06e028455719f30e66260","112011.19999992847","415.8000000715256","88","0","swim","","","","",""
"dual-task","null","null","null","","arctic","arctic","794.1000000238419","","h","null","88","88","1","swim-dual-task","","h","lowercase","120000","0","3","f8bebe8409f40781fe40a3e1a58243b31097b571e5a06e028455719f30e66260","120012.09999990463","794.1000000238419","88","1","swim","","","","",""
"dual-task","null","null","null","","arctic","arctic","597.2999999523163","","E","null","77","77","1","swim-dual-task","","E","uppercase","134000","0","3","f8bebe8409f40781fe40a3e1a58243b31097b571e5a06e028455719f30e66260","134000.89999997616","597.2999999523163","77","1","swim","","","","",""
"dual-task","null","null","null","","arctic","arctic","652.6000000238419","","A","null","77","77","1","swim-dual-task","","A","uppercase","144000","0","3","f8bebe8409f40781fe40a3e1a58243b31097b571e5a06e028455719f30e66260","144000.79999995232","652.6000000238419","77","1","swim","","","","",""
"dual-task","null","null","null","","arctic","arctic","612.8000000715256","","F","null","77","77","1","swim-dual-task","","F","uppercase","152000","0","3","f8bebe8409f40781fe40a3e1a58243b31097b571e5a06e028455719f30e66260","152010.79999995232","612.8000000715256","77","1","swim","","","","",""
"dual-task","null","null","null","","arctic","arctic","880.5","","g","null","88","88","1","swim-dual-task","","g","lowercase","164000","0","3","f8bebe8409f40781fe40a3e1a58243b31097b571e5a06e028455719f30e66260","164011.19999992847","880.5","88","1","swim","","","","",""
"dual-task","null","null","null","","arctic","arctic","907.1000000238419","","q","null","88","88","1","swim-dual-task","","q","lowercase","176000","0","3","f8bebe8409f40781fe40a3e1a58243b31097b571e5a06e028455719f30e66260","176011.69999992847","907.1000000238419","88","1","swim","","","","",""
"dual-task","null","null","null","","arctic","arctic","570.1000000238419","","b","null","88","88","1","swim-dual-task","","b","lowercase","188000","0","3","f8bebe8409f40781fe40a3e1a58243b31097b571e5a06e028455719f30e66260","188012.09999990463","570.1000000238419","88","1","swim","","","","",""
"dual-task","null","null","null","","arctic","arctic","560","","A","null","77","77","1","swim-dual-task","","A","uppercase","198000","0","3","f8bebe8409f40781fe40a3e1a58243b31097b571e5a06e028455719f30e66260","198002.19999992847","560","77","1","swim","","","","",""
"dual-task","null","null","null","","arctic","arctic","623.6000000238419","","R","null","77","77","1","swim-dual-task","","R","uppercase","208000","0","3","f8bebe8409f40781fe40a3e1a58243b31097b571e5a06e028455719f30e66260","208012.09999990463","623.6000000238419","77","1","swim","","","","",""
"dual-task","null","null","null","","arctic","arctic","660.6000000238419","","B","null","77","77","1","swim-dual-task","","B","uppercase","218000","0","3","f8bebe8409f40781fe40a3e1a58243b31097b571e5a06e028455719f30e66260","218001.69999992847","660.6000000238419","77","1","swim","","","","",""
"dual-task","null","null","null","","arctic","arctic","617.9000000953674","","F","null","77","77","1","swim-dual-task","","F","uppercase","228000","0","3","f8bebe8409f40781fe40a3e1a58243b31097b571e5a06e028455719f30e66260","228012","617.9000000953674","77","1","swim","","","","",""
"dual-task","null","null","null","","arctic","arctic","600.8000000715256","","N","null","77","77","1","swim-dual-task","","N","uppercase","240000","0","3","f8bebe8409f40781fe40a3e1a58243b31097b571e5a06e028455719f30e66260","240011.19999992847","600.8000000715256","77","1","swim","","","","",""
"dual-task","null","null","null","","arctic","arctic","725.3999999761581","","N","null","77","77","1","swim-dual-task","","N","uppercase","252000","0","3","f8bebe8409f40781fe40a3e1a58243b31097b571e5a06e028455719f30e66260","252001.79999995232","725.3999999761581","77","1","swim","","","","",""
"dual-task","null","null","null","","arctic","arctic","547.3000000715256","","a","null","88","88","1","swim-dual-task","","a","lowercase","260000","0","3","f8bebe8409f40781fe40a3e1a58243b31097b571e5a06e028455719f30e66260","260011.59999990463","547.3000000715256","88","1","swim","","","","",""
"dual-task","null","null","null","","arctic","arctic","649.5","","t","null","88","88","1","swim-dual-task","","t","lowercase","274000","0","3","f8bebe8409f40781fe40a3e1a58243b31097b571e5a06e028455719f30e66260","274001.39999997616","649.5","88","1","swim","","","","",""
"dual-task","null","null","null","","arctic","arctic","793","","d","null","88","88","1","swim-dual-task","","d","lowercase","284000","0","3","f8bebe8409f40781fe40a3e1a58243b31097b571e5a06e028455719f30e66260","284002.1999999285","793","88","1","swim","","","","",""
"dual-task","null","null","null","","arctic","arctic","611.1000000238419","","r","null","88","88","1","swim-dual-task","","r","lowercase","296000","0","3","f8bebe8409f40781fe40a3e1a58243b31097b571e5a06e028455719f30e66260","296002","611.1000000238419","88","1","swim","","","","",""
"dual-task","null","null","null","","arctic","arctic","743.1000000238419","","G","null","77","77","1","swim-dual-task","","G","uppercase","310000","0","3","f8bebe8409f40781fe40a3e1a58243b31097b571e5a06e028455719f30e66260","310012.5","743.1000000238419","77","1","swim","","","","",""
"dual-task","null","null","null","","arctic","arctic","581.3000000715256","","H","null","77","77","1","swim-dual-task","","H","uppercase","318000","0","3","f8bebe8409f40781fe40a3e1a58243b31097b571e5a06e028455719f30e66260","318012","581.3000000715256","77","1","swim","","","","",""
"dual-task","null","null","null","","arctic","arctic","678","","h","null","88","88","1","swim-dual-task","","h","lowercase","328000","0","3","f8bebe8409f40781fe40a3e1a58243b31097b571e5a06e028455719f30e66260","328011.2999999523","678","88","1","swim","","","","",""
"dual-task","null","null","null","","arctic","arctic","806.2000000476837","","G","null","77","77","1","swim-dual-task","","G","uppercase","334000","0","3","f8bebe8409f40781fe40a3e1a58243b31097b571e5a06e028455719f30e66260","334000.89999997616","806.2000000476837","77","1","swim","","","","",""
"dual-task","null","null","null","","arctic","arctic","642.7000000476837","","T","null","77","77","1","swim-dual-task","","T","uppercase","344000","0","3","f8bebe8409f40781fe40a3e1a58243b31097b571e5a06e028455719f30e66260","344007.89999997616","642.7000000476837","77","1","swim","","","","",""
"dual-task","null","null","null","","arctic","arctic","745.7999999523163","","E","null","77","77","1","swim-dual-task","","E","uppercase","352000","0","3","f8bebe8409f40781fe40a3e1a58243b31097b571e5a06e028455719f30e66260","352001.5","745.7999999523163","77","1","swim","","","","",""
"dual-task","null","null","null","","arctic","arctic","596","","f","null","88","88","1","swim-dual-task","","f","lowercase","366000","0","3","f8bebe8409f40781fe40a3e1a58243b31097b571e5a06e028455719f30e66260","366001.5","596","88","1","swim","","","","",""
"dual-task","null","null","null","","arctic","arctic","747.6999999284744","","B","null","77","77","1","swim-dual-task","","B","uppercase","374000","0","3","f8bebe8409f40781fe40a3e1a58243b31097b571e5a06e028455719f30e66260","374001.59999990463","747.6999999284744","77","1","swim","","","","",""
"dual-task","null","null","null","","arctic","arctic","591.2000000476837","","n","null","77","88","0","swim-dual-task","","n","lowercase","382000","0","3","f8bebe8409f40781fe40a3e1a58243b31097b571e5a06e028455719f30e66260","382011.89999997616","591.2000000476837","77","0","swim","","","","",""
"dual-task","null","null","null","","arctic","arctic","564","","D","null","77","77","1","swim-dual-task","","D","uppercase","392000","0","3","f8bebe8409f40781fe40a3e1a58243b31097b571e5a06e028455719f30e66260","392001.6999999285","564","77","1","swim","","","","",""
"dual-task","null","null","null","","arctic","arctic","673.0999999046326","","d","null","88","88","1","swim-dual-task","","d","lowercase","400000","0","3","f8bebe8409f40781fe40a3e1a58243b31097b571e5a06e028455719f30e66260","400002.39999997616","673.0999999046326","88","1","swim","","","","",""
"dual-task","null","null","null","","arctic","arctic","541.2000000476837","","f","null","88","88","1","swim-dual-task","","f","lowercase","414000","0","3","f8bebe8409f40781fe40a3e1a58243b31097b571e5a06e028455719f30e66260","414012.1999999285","541.2000000476837","88","1","swim","","","","",""
"dual-task","null","null","null","","arctic","arctic","443","","a","null","88","88","1","swim-dual-task","","a","lowercase","424000","0","3","f8bebe8409f40781fe40a3e1a58243b31097b571e5a06e028455719f30e66260","424012","443","88","1","swim","","","","",""
"dual-task","null","null","null","","arctic","arctic","520.2999999523163","","t","null","88","88","1","swim-dual-task","","t","lowercase","434000","0","3","f8bebe8409f40781fe40a3e1a58243b31097b571e5a06e028455719f30e66260","434002","520.2999999523163","88","1","swim","","","","",""
"dual-task","null","null","null","","arctic","arctic","556.1999999284744","","e","null","88","88","1","swim-dual-task","","e","lowercase","446000","0","3","f8bebe8409f40781fe40a3e1a58243b31097b571e5a06e028455719f30e66260","446011.5","556.1999999284744","88","1","swim","","","","",""
"dual-task","null","null","null","","arctic","arctic","453.89999997615814","","e","null","88","88","1","swim-dual-task","","e","lowercase","456000","0","3","f8bebe8409f40781fe40a3e1a58243b31097b571e5a06e028455719f30e66260","456011.7999999523","453.89999997615814","88","1","swim","","","","",""
"dual-task","null","null","null","","arctic","arctic","678.3999999761581","","H","null","77","77","1","swim-dual-task","","H","uppercase","466000","0","3","f8bebe8409f40781fe40a3e1a58243b31097b571e5a06e028455719f30e66260","466000.89999997616","678.3999999761581","77","1","swim","","","","",""
"dual-task","null","null","null","","arctic","arctic","510.10000002384186","","h","null","88","88","1","swim-dual-task","","h","lowercase","478000","0","3","f8bebe8409f40781fe40a3e1a58243b31097b571e5a06e028455719f30e66260","478012.2999999523","510.10000002384186","88","1","swim","","","","",""
"dual-task","null","null","null","","arctic","arctic","658","","q","null","88","88","1","swim-dual-task","","q","lowercase","488000","0","3","f8bebe8409f40781fe40a3e1a58243b31097b571e5a06e028455719f30e66260","488001.2999999523","658","88","1","swim","","","","",""
"dual-task","null","null","null","","arctic","arctic","582.8999999761581","","D","null","77","77","1","swim-dual-task","","D","uppercase","498000","0","3","f8bebe8409f40781fe40a3e1a58243b31097b571e5a06e028455719f30e66260","498012.09999990463","582.8999999761581","77","1","swim","","","","",""
"dual-task","null","null","null","","arctic","arctic","757.7000000476837","","g","null","88","88","1","swim-dual-task","","g","lowercase","512000","0","3","f8bebe8409f40781fe40a3e1a58243b31097b571e5a06e028455719f30e66260","512012.2999999523","757.7000000476837","88","1","swim","","","","",""
"dual-task","null","null","null","","arctic","arctic","608.1999999284744","","F","null","77","77","1","swim-dual-task","","F","uppercase","518000","0","3","f8bebe8409f40781fe40a3e1a58243b31097b571e5a06e028455719f30e66260","518012","608.1999999284744","77","1","swim","","","","",""
"dual-task","null","null","null","","arctic","arctic","576.3999999761581","","Q","null","77","77","1","swim-dual-task","","Q","uppercase","524000","0","3","f8bebe8409f40781fe40a3e1a58243b31097b571e5a06e028455719f30e66260","524001.2999999523","576.3999999761581","77","1","swim","","","","",""
"dual-task","null","null","null","","arctic","arctic","570.3999999761581","","R","null","77","77","1","swim-dual-task","","R","uppercase","536000","0","3","f8bebe8409f40781fe40a3e1a58243b31097b571e5a06e028455719f30e66260","536011.5","570.3999999761581","77","1","swim","","","","",""
"dual-task","null","null","null","","arctic","arctic","636.1000000238419","","E","null","77","77","1","swim-dual-task","","E","uppercase","550000","0","3","f8bebe8409f40781fe40a3e1a58243b31097b571e5a06e028455719f30e66260","550011.2999999523","636.1000000238419","77","1","swim","","","","",""
"dual-task","null","null","null","","arctic","arctic","686.2999999523163","","n","null","88","88","1","swim-dual-task","","n","lowercase","556000","0","3","f8bebe8409f40781fe40a3e1a58243b31097b571e5a06e028455719f30e66260","556012","686.2999999523163","88","1","swim","","","","",""
"dual-task","null","null","null","","arctic","arctic","712.5","","g","null","88","88","1","swim-dual-task","","g","lowercase","562000","0","3","f8bebe8409f40781fe40a3e1a58243b31097b571e5a06e028455719f30e66260","562001.7999999523","712.5","88","1","swim","","","","",""
"dual-task","null","null","null","","arctic","arctic","608.7000000476837","","r","null","88","88","1","swim-dual-task","","r","lowercase","568000","0","3","f8bebe8409f40781fe40a3e1a58243b31097b571e5a06e028455719f30e66260","568011.6999999285","608.7000000476837","88","1","swim","","","","",""
"dual-task","null","null","null","","arctic","arctic","515.7999999523163","","B","null","77","77","1","swim-dual-task","","B","uppercase","580000","0","3","f8bebe8409f40781fe40a3e1a58243b31097b571e5a06e028455719f30e66260","580001.1999999285","515.7999999523163","77","1","swim","","","","",""
"dual-task","null","null","null","","arctic","arctic","578.3000000715256","","q","null","77","88","0","swim-dual-task","","q","lowercase","590000","0","3","f8bebe8409f40781fe40a3e1a58243b31097b571e5a06e028455719f30e66260","590011.5","578.3000000715256","77","0","swim","","","","",""
"dual-task","null","null","null","","arctic","arctic","742.6999999284744","","B","null","77","77","1","swim-dual-task","","B","uppercase","604000","0","3","f8bebe8409f40781fe40a3e1a58243b31097b571e5a06e028455719f30e66260","604001.0999999046","742.6999999284744","77","1","swim","","","","",""
"dual-task","null","null","null","","arctic","arctic","540.6000000238419","","Q","null","77","77","1","swim-dual-task","","Q","uppercase","614000","0","3","f8bebe8409f40781fe40a3e1a58243b31097b571e5a06e028455719f30e66260","614011.5","540.6000000238419","77","1","swim","","","","",""
"dual-task","null","null","null","","arctic","arctic","843.5999999046326","","q","null","88","88","1","swim-dual-task","","q","lowercase","624000","0","3","f8bebe8409f40781fe40a3e1a58243b31097b571e5a06e028455719f30e66260","624001.5","843.5999999046326","88","1","swim","","","","",""
"dual-task","null","null","null","","arctic","arctic","708","","G","null","77","77","1","swim-dual-task","","G","uppercase","632000","0","3","f8bebe8409f40781fe40a3e1a58243b31097b571e5a06e028455719f30e66260","632011.6999999285","708","77","1","swim","","","","",""
"dual-task","null","null","null","","arctic","arctic","473.89999997615814","","R","null","77","77","1","swim-dual-task","","R","uppercase","642000","0","3","f8bebe8409f40781fe40a3e1a58243b31097b571e5a06e028455719f30e66260","642011.8999999762","473.89999997615814","77","1","swim","","","","",""
"dual-task","null","null","null","","arctic","arctic","499.2999999523163","","h","null","88","88","1","swim-dual-task","","h","lowercase","648000","0","3","f8bebe8409f40781fe40a3e1a58243b31097b571e5a06e028455719f30e66260","648001.5","499.2999999523163","88","1","swim","","","","",""
"dual-task","null","null","null","","arctic","arctic","622.8999999761581","","T","null","77","77","1","swim-dual-task","","T","uppercase","660000","0","3","f8bebe8409f40781fe40a3e1a58243b31097b571e5a06e028455719f30e66260","660011.8999999762","622.8999999761581","77","1","swim","","","","",""
"dual-task","null","null","null","","arctic","arctic","571.1000000238419","","D","null","77","77","1","swim-dual-task","","D","uppercase","670000","0","3","f8bebe8409f40781fe40a3e1a58243b31097b571e5a06e028455719f30e66260","670012","571.1000000238419","77","1","swim","","","","",""
"dual-task","null","null","null","","arctic","arctic","629.0999999046326","","n","null","77","88","0","swim-dual-task","","n","lowercase","680000","0","3","f8bebe8409f40781fe40a3e1a58243b31097b571e5a06e028455719f30e66260","680001.8999999762","629.0999999046326","77","0","swim","","","","",""
"dual-task","null","null","null","","arctic","arctic","704.8999999761581","","b","null","88","88","1","swim-dual-task","","b","lowercase","692000","0","3","f8bebe8409f40781fe40a3e1a58243b31097b571e5a06e028455719f30e66260","692011.1999999285","704.8999999761581","88","1","swim","","","","",""
"dual-task","null","null","null","","arctic","arctic","708.6999999284744","","N","null","77","77","1","swim-dual-task","","N","uppercase","702000","0","3","f8bebe8409f40781fe40a3e1a58243b31097b571e5a06e028455719f30e66260","702001.6999999285","708.6999999284744","77","1","swim","","","","",""
"dual-task","null","null","null","","arctic","arctic","708.1000000238419","","e","null","88","88","1","swim-dual-task","","e","lowercase","710000","0","3","f8bebe8409f40781fe40a3e1a58243b31097b571e5a06e028455719f30e66260","710002.1999999285","708.1000000238419","88","1","swim","","","","",""
"dual-task","null","null","null","","arctic","arctic","576.4000000953674","","n","null","88","88","1","swim-dual-task","","n","lowercase","718000","0","3","f8bebe8409f40781fe40a3e1a58243b31097b571e5a06e028455719f30e66260","718011.5","576.4000000953674","88","1","swim","","","","",""
"dual-task","null","null","null","","arctic","arctic","551.9000000953674","","H","null","77","77","1","swim-dual-task","","H","uppercase","730000","0","3","f8bebe8409f40781fe40a3e1a58243b31097b571e5a06e028455719f30e66260","730001.5","551.9000000953674","77","1","swim","","","","",""
"dual-task","null","null","null","","arctic","arctic","594.1999999284744","","N","null","77","77","1","swim-dual-task","","N","uppercase","742000","0","3","f8bebe8409f40781fe40a3e1a58243b31097b571e5a06e028455719f30e66260","742000.7999999523","594.1999999284744","77","1","swim","","","","",""
"dual-task","null","null","null","","arctic","arctic","649.1999999284744","","d","null","88","88","1","swim-dual-task","","d","lowercase","748000","0","3","f8bebe8409f40781fe40a3e1a58243b31097b571e5a06e028455719f30e66260","748020.8999999762","649.1999999284744","88","1","swim","","","","",""
"dual-task","null","null","null","","arctic","arctic","573.5","","T","null","77","77","1","swim-dual-task","","T","uppercase","762000","0","3","f8bebe8409f40781fe40a3e1a58243b31097b571e5a06e028455719f30e66260","762011.5","573.5","77","1","swim","","","","",""
"dual-task","null","null","null","","arctic","arctic","545.2999999523163","","b","null","88","88","1","swim-dual-task","","b","lowercase","772000","0","3","f8bebe8409f40781fe40a3e1a58243b31097b571e5a06e028455719f30e66260","772011.6999999285","545.2999999523163","88","1","swim","","","","",""
"dual-task","null","null","null","","arctic","arctic","616.1000000238419","","H","null","77","77","1","swim-dual-task","","H","uppercase","784000","0","3","f8bebe8409f40781fe40a3e1a58243b31097b571e5a06e028455719f30e66260","784021.3999999762","616.1000000238419","77","1","swim","","","","",""
"dual-task","null","null","null","","arctic","arctic","731.7000000476837","","Q","null","77","77","1","swim-dual-task","","Q","uppercase","792000","0","3","f8bebe8409f40781fe40a3e1a58243b31097b571e5a06e028455719f30e66260","792001.7999999523","731.7000000476837","77","1","swim","","","","",""
"audio-keyboard-response","62","2220412","0.0-6.0-2.0-1.0","f8bebe8409f40781fe40a3e1a58243b31097b571e5a06e028455719f30e66260","arctic","arctic","null","","audio/story_swim.mp3","","null","","","","","","","","","","","","","","","","","","","",""
"html-button-response","63","2225756","0.0-6.0-2.0-2.0","f8bebe8409f40781fe40a3e1a58243b31097b571e5a06e028455719f30e66260","arctic","arctic","5341","","<p>This concludes the story. Thank you for listening.</p><p>You will now answer some questions about the content of the story.</p>","0","","","","","","","","","","","","","","","","","","","","",""
"survey-multi-choice","64","2231986","0.0-6.0-2.0-3.0-0.0","f8bebe8409f40781fe40a3e1a58243b31097b571e5a06e028455719f30e66260","arctic","arctic","6224","","<b>How many astronaut candidates passed the first swim test?</b>","","","","1","swim-comprehension","","","","","","","","","","","","","{""Q0"":""All of them""}","","","",""
"survey-multi-choice","65","2241654","0.0-6.0-2.0-3.0-0.1","f8bebe8409f40781fe40a3e1a58243b31097b571e5a06e028455719f30e66260","arctic","arctic","9411","","<b>What was the final step of the first swim test in the pool?</b>","","","","1","swim-comprehension","","","","","","","","","","","","","{""Q0"":""Tread water with hands above the water""}","","","",""
"survey-multi-choice","66","2248735","0.0-6.0-2.0-3.0-0.2","f8bebe8409f40781fe40a3e1a58243b31097b571e5a06e028455719f30e66260","arctic","arctic","6814","","<b>How did the narrator train for his swim test?</b>","","","","1","swim-comprehension","","","","","","","","","","","","","{""Q0"":""Took his kids to the pool every day""}","","","",""
"survey-multi-choice","67","2259659","0.0-6.0-2.0-3.0-0.3","f8bebe8409f40781fe40a3e1a58243b31097b571e5a06e028455719f30e66260","arctic","arctic","10658","","<b>How many times did the astronaut candidates have to complete the final exercise to pass?</b>","","","","1","swim-comprehension","","","","","","","","","","","","","{""Q0"":""Two""}","","","",""
"survey-multi-choice","68","2273700","0.0-6.0-2.0-3.0-0.4","f8bebe8409f40781fe40a3e1a58243b31097b571e5a06e028455719f30e66260","arctic","arctic","13782","","<b>What gave the narrator his greatest feeling of accomplishment?</b>","","","","1","swim-comprehension","","","","","","","","","","","","","{""Q0"":""Passing the water survival course""}","","","",""
"survey-multi-choice","69","2277933","0.0-6.0-2.0-3.0-0.5","f8bebe8409f40781fe40a3e1a58243b31097b571e5a06e028455719f30e66260","arctic","arctic","3971","","<b>What is the narrator afraid of, aside from the water?</b>","","","","1","swim-comprehension","","","","","","","","","","","","","{""Q0"":""Heights""}","","","",""
"survey-multi-choice","70","2283451","0.0-6.0-2.0-3.0-0.6","f8bebe8409f40781fe40a3e1a58243b31097b571e5a06e028455719f30e66260","arctic","arctic","5259","","<b>How often does the narrator swim, now that he is a good swimmer?</b>","","","","1","swim-comprehension","","","","","","","","","","","","","{""Q0"":""Never swam again in his life""}","","","",""
"survey-multi-choice","71","2287467","0.0-6.0-2.0-3.0-0.7","f8bebe8409f40781fe40a3e1a58243b31097b571e5a06e028455719f30e66260","arctic","arctic","3756","","<b>Where is the home of naval aviation?</b>","","","","1","swim-comprehension","","","","","","","","","","","","","{""Q0"":""Pensacola""}","","","",""
"survey-multi-choice","72","2298366","0.0-6.0-2.0-3.0-0.8","f8bebe8409f40781fe40a3e1a58243b31097b571e5a06e028455719f30e66260","arctic","arctic","10639","","<b>What were the astronaut candidates trained to do at the naval air station?</b>","","","","1","swim-comprehension","","","","","","","","","","","","","{""Q0"":""Eject out of aircraft and survive in water long enough to be rescued""}","","","",""
"survey-multi-choice","73","2309817","0.0-6.0-2.0-3.0-0.9","f8bebe8409f40781fe40a3e1a58243b31097b571e5a06e028455719f30e66260","arctic","arctic","11186","","<b>How many astronaut candidates reported for duty at the Johnson Space Center?</b>","","","","1","swim-comprehension","","","","","","","","","","","","","{""Q0"":""Forty-four""}","","","",""
"html-button-response","74","2312208","0.0-6.0-2.0-4.0","f8bebe8409f40781fe40a3e1a58243b31097b571e5a06e028455719f30e66260","arctic","arctic","2138","","<p>Thank you for your responses.</p><p>You will now answer some questions about your impressions of the story.</p>","0","","","","","","","","","","","","","","","","","","","","",""
"html-button-response","75","2315457","0.0-6.0-2.0-5.0-0.0","f8bebe8409f40781fe40a3e1a58243b31097b571e5a06e028455719f30e66260","arctic","arctic","3247","","MS3","6","","","","swim-engagement","","","","","","","","","","","","","","7","mental-sim","",""
"html-button-response","76","2317169","0.0-6.0-2.0-5.0-0.1","f8bebe8409f40781fe40a3e1a58243b31097b571e5a06e028455719f30e66260","arctic","arctic","1457","","E8","6","","","","swim-engagement","","","","","","","","","","","","","","7","enjoyment","",""
"html-button-response","77","2318931","0.0-6.0-2.0-5.0-0.2","f8bebe8409f40781fe40a3e1a58243b31097b571e5a06e028455719f30e66260","arctic","arctic","1505","","E6","6","","","","swim-engagement","","","","","","","","","","","","","","7","enjoyment","",""
"html-button-response","78","2322344","0.0-6.0-2.0-5.0-0.3","f8bebe8409f40781fe40a3e1a58243b31097b571e5a06e028455719f30e66260","arctic","arctic","3159","","EE2","6","","","","swim-engagement","","","","","","","","","","","","","","7","emo-engage","",""
"html-button-response","79","2323838","0.0-6.0-2.0-5.0-0.4","f8bebe8409f40781fe40a3e1a58243b31097b571e5a06e028455719f30e66260","arctic","arctic","1238","","E7","6","","","","swim-engagement","","","","","","","","","","","","","","7","enjoyment","",""
"html-button-response","80","2328079","0.0-6.0-2.0-5.0-0.5","f8bebe8409f40781fe40a3e1a58243b31097b571e5a06e028455719f30e66260","arctic","arctic","3985","","EE1","5","","","","swim-engagement","","","","","","","","","","","","","","6","emo-engage","",""
"html-button-response","81","2329772","0.0-6.0-2.0-5.0-0.6","f8bebe8409f40781fe40a3e1a58243b31097b571e5a06e028455719f30e66260","arctic","arctic","1438","","A3","6","","","","swim-engagement","","","","","","","","","","","","","","7","absorption","",""
"html-button-response","82","2332093","0.0-6.0-2.0-5.0-0.7","f8bebe8409f40781fe40a3e1a58243b31097b571e5a06e028455719f30e66260","arctic","arctic","2065","","EE3","6","","","","swim-engagement","","","","","","","","","","","","","","7","emo-engage","",""
"html-button-response","83","2335982","0.0-6.0-2.0-5.0-0.8","f8bebe8409f40781fe40a3e1a58243b31097b571e5a06e028455719f30e66260","arctic","arctic","3634","","A1","6","","","","swim-engagement","","","","","","","","","","","","","","7","absorption","",""
"html-button-response","84","2339742","0.0-6.0-2.0-5.0-0.9","f8bebe8409f40781fe40a3e1a58243b31097b571e5a06e028455719f30e66260","arctic","arctic","3504","","EE5","4","","","","swim-engagement","","","","","","","","","","","","","","5","emo-engage","",""
"html-button-response","85","2341470","0.0-6.0-2.0-5.0-0.10","f8bebe8409f40781fe40a3e1a58243b31097b571e5a06e028455719f30e66260","arctic","arctic","1473","","E10","6","","","","swim-engagement","","","","","","","","","","","","","","7","enjoyment","",""
"html-button-response","86","2344533","0.0-6.0-2.0-5.0-0.11","f8bebe8409f40781fe40a3e1a58243b31097b571e5a06e028455719f30e66260","arctic","arctic","2807","","A5","6","","","","swim-engagement","","","","","","","","","","","","","","7","absorption","",""
"html-button-response","87","2348335","0.0-6.0-2.0-5.0-0.12","f8bebe8409f40781fe40a3e1a58243b31097b571e5a06e028455719f30e66260","arctic","arctic","3546","","MS2","6","","","","swim-engagement","","","","","","","","","","","","","","7","mental-sim","",""
"html-button-response","88","2349987","0.0-6.0-2.0-5.0-0.13","f8bebe8409f40781fe40a3e1a58243b31097b571e5a06e028455719f30e66260","arctic","arctic","1398","","E1","6","","","","swim-engagement","","","","","","","","","","","","","","7","enjoyment","",""
"html-button-response","89","2351951","0.0-6.0-2.0-5.0-0.14","f8bebe8409f40781fe40a3e1a58243b31097b571e5a06e028455719f30e66260","arctic","arctic","1709","","EE4","5","","","","swim-engagement","","","","","","","","","","","","","","6","emo-engage","",""
"html-button-response","90","2353821","0.0-6.0-2.0-5.0-0.15","f8bebe8409f40781fe40a3e1a58243b31097b571e5a06e028455719f30e66260","arctic","arctic","1616","","A2","6","","","","swim-engagement","","","","","","","","","","","","","","7","absorption","",""
"html-button-response","91","2359619","0.0-6.0-2.0-5.0-0.16","f8bebe8409f40781fe40a3e1a58243b31097b571e5a06e028455719f30e66260","arctic","arctic","5542","","A4","6","","","","swim-engagement","","","","","","","","","","","","","","7","absorption","",""
"html-button-response","92","2362578","0.0-6.0-2.0-5.0-0.17","f8bebe8409f40781fe40a3e1a58243b31097b571e5a06e028455719f30e66260","arctic","arctic","2703","","MS1","6","","","","swim-engagement","","","","","","","","","","","","","","7","mental-sim","",""
"html-button-response","93","2364323","0.0-8.0","f8bebe8409f40781fe40a3e1a58243b31097b571e5a06e028455719f30e66260","arctic","arctic","1491","","<p>Thank you for your responses.</p><p>You will now answer some demographic, hearing, and general health questions.</p>","0","","","","","","","","","","","","","","","","","","","","",""
"survey-multi-choice","94","2368582","0.0-9.0-0.0","f8bebe8409f40781fe40a3e1a58243b31097b571e5a06e028455719f30e66260","arctic","arctic","4241","","","","","","","survey","","","","","","","","","","","","","{""Q0"":""Chrome""}","","","browser",""
"survey-text","95","2371406","0.0-9.0-1.0","f8bebe8409f40781fe40a3e1a58243b31097b571e5a06e028455719f30e66260","arctic","arctic","2565.100000023842","","","","","","","survey","","","","","","","","","","","","","{""AGE"":""40""}","","","age","40"
"survey-multi-choice","96","2374123","0.0-9.0-2.0","f8bebe8409f40781fe40a3e1a58243b31097b571e5a06e028455719f30e66260","arctic","arctic","2457","","","","","","","survey","","","","","","","","","","","","","{""Q0"":""Female""}","","","gender","Female"
"survey-multi-choice","97","2376489","0.0-9.0-4.0","f8bebe8409f40781fe40a3e1a58243b31097b571e5a06e028455719f30e66260","arctic","arctic","2107","","","","","","","survey","","","","","","","","","","","","","{""Q0"":""Left""}","","","handedness","Left"
"survey-multi-choice","98","2378959","0.0-9.0-5.0","f8bebe8409f40781fe40a3e1a58243b31097b571e5a06e028455719f30e66260","arctic","arctic","2207","","","","","","","survey","","","","","","","","","","","","","{""Q0"":""Bachelor's Degree""}","","","education","Bachelor's Degree"
"survey-text","99","2383857","0.0-10.0-0.0","f8bebe8409f40781fe40a3e1a58243b31097b571e5a06e028455719f30e66260","arctic","arctic","4641.800000071526","","","","","","","survey","","","","","","","","","","","","","{""L1"":""English""}","","","first-language","English"
"survey-text","100","2407195","0.0-10.0-1.0","f8bebe8409f40781fe40a3e1a58243b31097b571e5a06e028455719f30e66260","arctic","arctic","23070.399999976158","","","","","","","survey","","","","","","","","","","","","","{""L2name"":""Spanish"",""L2fluency"":""2"",""L3name"":"""",""L3fluency"":"""",""L4name"":"""",""L4fluency"":""""}","","","additional-languages","{""L2name"":""Spanish"",""L2fluency"":""2"",""L3name"":"""",""L3fluency"":"""",""L4name"":"""",""L4fluency"":""""}"
"survey-multi-choice","101","2409926","0.0-10.0-2.0","f8bebe8409f40781fe40a3e1a58243b31097b571e5a06e028455719f30e66260","arctic","arctic","2470","","","","","","","survey","","","","","","","","","","","","","{""Q0"":""No""}","","","hearing-aid","No"
"survey-multi-choice","102","2413062","0.0-10.0-3.0","f8bebe8409f40781fe40a3e1a58243b31097b571e5a06e028455719f30e66260","arctic","arctic","2878","","","","","","","survey","","","","","","","","","","","","","{""Q0"":""Never""}","","","ringing-ears","Never"
"survey-multi-choice","103","2415784","0.0-10.0-5.0","f8bebe8409f40781fe40a3e1a58243b31097b571e5a06e028455719f30e66260","arctic","arctic","2464","","","","","","","survey","","","","","","","","","","","","","{""Q0"":""No""}","","","neuro-disease","No"
"survey-multi-choice","104","2419140","0.0-10.0-7.0","f8bebe8409f40781fe40a3e1a58243b31097b571e5a06e028455719f30e66260","arctic","arctic","3096","","","","","","","survey","","","","","","","","","","","","","{""Q0"":""No""}","","","take-meds","No"
"survey-text","105","2423723","0.0-10.0-9.0","f8bebe8409f40781fe40a3e1a58243b31097b571e5a06e028455719f30e66260","arctic","arctic","4318.800000071526","","","","","","","survey","","","","","","","","","","","","","{""HC"":""""}","","","health-concerns",""
"html-button-response","106","2428588","0.0-11.0-0.0","f8bebe8409f40781fe40a3e1a58243b31097b571e5a06e028455719f30e66260","arctic","arctic","4611","","<p>How would you describe your musical skills/experiences?</p>","2","","","","survey","","","","","","","","","","","","","","","","music-skill","3"
"survey-multi-choice","107","2433522","0.0-11.0-1.0","f8bebe8409f40781fe40a3e1a58243b31097b571e5a06e028455719f30e66260","arctic","arctic","4677","","","","","","","survey","","","","","","","","","","","","","{""Q0"":""No""}","","","music-instrument","No"
"html-button-response","108","2436172","0.0-12.0-0.0","f8bebe8409f40781fe40a3e1a58243b31097b571e5a06e028455719f30e66260","arctic","arctic","2394","","<p>How would you describe your general hearing abilities?</p>","5","","","","survey","","","","","","","","","","","","","","","","ssq-01","6"
"html-button-response","109","2442502","0.0-12.0-1.0","f8bebe8409f40781fe40a3e1a58243b31097b571e5a06e028455719f30e66260","arctic","arctic","6075","","<p>When you talk with someone at a place that strongly reverberates/echoes (e.g., in a church or train station),</br>can you understand what the person says?</p>","10","","","","survey","","","","","","","","","","","","","","","","ssq-02","10"
"html-button-response","110","2445576","0.0-12.0-2.0","f8bebe8409f40781fe40a3e1a58243b31097b571e5a06e028455719f30e66260","arctic","arctic","2820","","<p>When you are with a group (~5 people) in a lively restaurant, can you follow the group's conversation?</p>","9","","","","survey","","","","","","","","","","","","","","","","ssq-03","9"
"html-button-response","111","2450262","0.0-12.0-3.0","f8bebe8409f40781fe40a3e1a58243b31097b571e5a06e028455719f30e66260","arctic","arctic","4429","","<p>Based on the sound of a bus or truck, can you tell whether it is moving towards or away from you?</p>","10","","","","survey","","","","","","","","","","","","","","","","ssq-04","10"
"html-button-response","112","2454262","0.0-12.0-4.0","f8bebe8409f40781fe40a3e1a58243b31097b571e5a06e028455719f30e66260","arctic","arctic","3744","","<p>When you are in an unknown environment, can you tell from which direction a brief sound originates?</p>","8","","","","survey","","","","","","","","","","","","","","","","ssq-05","8"
"html-button-response","113","2457728","0.0-12.0-5.0","f8bebe8409f40781fe40a3e1a58243b31097b571e5a06e028455719f30e66260","arctic","arctic","3210","","<p>Are you able to ignore distracting sounds when you concentrate on a specific aspect of your acoustic surrounding?</p>","6","","","","survey","","","","","","","","","","","","","","","","ssq-06","6"
"fullscreen","114","2458979","0.0-13.0","f8bebe8409f40781fe40a3e1a58243b31097b571e5a06e028455719f30e66260","arctic","arctic","","","","","","","","","true","","","","","","","","","","","","","","","",""
