"trial_type","trial_index","time_elapsed","internal_node_id","ParticipantID","firstStory","scramStory","rt","url","stimulus","button_pressed","key_press","correctRESP","correct","designation","success","letterStim","letterType","ONSET","TIMEOUT","CONDITION","Participant","ONSET_ACTUAL","RT","RESP","ACC","STORY","responses","response","type","surveyQuestion","QRESP"
"pavlovia","0","4","0.0-0.0","835cc517d89ccca6e45d771729fae477d2e7b81e3bfc6296159865c804a6985c","swim","arctic","","","","","","","","","","","","","","","","","","","","","","","","",""
"external-html","1","3246","0.0-1.0","835cc517d89ccca6e45d771729fae477d2e7b81e3bfc6296159865c804a6985c","swim","arctic","2971","consent/consent_updated.html","","","","","","","","","","","","","","","","","","","","","","",""
"html-button-response","2","62251","0.0-2.0-0.0","835cc517d89ccca6e45d771729fae477d2e7b81e3bfc6296159865c804a6985c","swim","arctic","59003","","<p>Before we begin the main task, you will complete a short volume calibration and headphone check.</p><p>Please make sure you are in a quiet listening environment, that you are wearing headphones, and that your computer's volume is turned on.<p></p>","0","","","","","","","","","","","","","","","","","","","","",""
"html-button-response","3","67648","0.0-2.0-1.0","835cc517d89ccca6e45d771729fae477d2e7b81e3bfc6296159865c804a6985c","swim","arctic","5138","","<p>The volume calibration will be first.</p><p>You will hear a thirty-second noise. Please adjust your computer's volume so that this noise is being presented at a comfortable level.<p></p>","0","","","","","","","","","","","","","","","","","","","","",""
"audio-button-response","4","86131","0.0-2.0-2.0","835cc517d89ccca6e45d771729fae477d2e7b81e3bfc6296159865c804a6985c","swim","arctic","18228","","audio/volumetest.mp3","0","","","","","","","","","","","","","","","","","","","","",""
"html-keyboard-response","5","96565","0.0-3.0-0.0","835cc517d89ccca6e45d771729fae477d2e7b81e3bfc6296159865c804a6985c","swim","arctic","10432","","<p>You will now complete a short headphone check.</p><p>On each trial, you will hear three tones. One of these tones will be quieter than the others. Your task is to identify whether the quiet tone occurred first, second, or third.</p><p>There are six trials in total.<p></p><p></p>(Press SPACEBAR to begin)","","32","","","","","","","","","","","","","","","","","","","",""
"html-keyboard-response","6","97332","0.0-3.0-1.0-0.0","835cc517d89ccca6e45d771729fae477d2e7b81e3bfc6296159865c804a6985c","swim","arctic","null","","<div style=""font-size:60px;"">+</div>","","null","","","","","","","","","","","","","","","","","","","",""
"audio-button-response","7","103180","0.0-3.0-1.0-1.0","835cc517d89ccca6e45d771729fae477d2e7b81e3bfc6296159865c804a6985c","swim","arctic","5845","","audio/t1_2.mp3","0","","0","1","headphone-test","","","","","","","","","","","","","","","","",""
"html-keyboard-response","8","103693","0.0-3.0-1.0-2.0","835cc517d89ccca6e45d771729fae477d2e7b81e3bfc6296159865c804a6985c","swim","arctic","null","","<p>Correct</p>","","null","","","","","","","","","","","","","","","","","","","",""
"html-keyboard-response","9","104200","0.0-3.0-1.0-0.1","835cc517d89ccca6e45d771729fae477d2e7b81e3bfc6296159865c804a6985c","swim","arctic","null","","<div style=""font-size:60px;"">+</div>","","null","","","","","","","","","","","","","","","","","","","",""
"audio-button-response","10","108928","0.0-3.0-1.0-1.1","835cc517d89ccca6e45d771729fae477d2e7b81e3bfc6296159865c804a6985c","swim","arctic","4725","","audio/t3_2.mp3","2","","2","1","headphone-test","","","","","","","","","","","","","","","","",""
"html-keyboard-response","11","109430","0.0-3.0-1.0-2.1","835cc517d89ccca6e45d771729fae477d2e7b81e3bfc6296159865c804a6985c","swim","arctic","null","","<p>Correct</p>","","null","","","","","","","","","","","","","","","","","","","",""
"html-keyboard-response","12","109933","0.0-3.0-1.0-0.2","835cc517d89ccca6e45d771729fae477d2e7b81e3bfc6296159865c804a6985c","swim","arctic","null","","<div style=""font-size:60px;"">+</div>","","null","","","","","","","","","","","","","","","","","","","",""
"audio-button-response","13","114778","0.0-3.0-1.0-1.2","835cc517d89ccca6e45d771729fae477d2e7b81e3bfc6296159865c804a6985c","swim","arctic","4843","","audio/t3_1.mp3","2","","2","1","headphone-test","","","","","","","","","","","","","","","","",""
"html-keyboard-response","14","115281","0.0-3.0-1.0-2.2","835cc517d89ccca6e45d771729fae477d2e7b81e3bfc6296159865c804a6985c","swim","arctic","null","","<p>Correct</p>","","null","","","","","","","","","","","","","","","","","","","",""
"html-keyboard-response","15","115783","0.0-3.0-1.0-0.3","835cc517d89ccca6e45d771729fae477d2e7b81e3bfc6296159865c804a6985c","swim","arctic","null","","<div style=""font-size:60px;"">+</div>","","null","","","","","","","","","","","","","","","","","","","",""
"audio-button-response","16","120064","0.0-3.0-1.0-1.3","835cc517d89ccca6e45d771729fae477d2e7b81e3bfc6296159865c804a6985c","swim","arctic","4279","","audio/t1_1.mp3","0","","0","1","headphone-test","","","","","","","","","","","","","","","","",""
"html-keyboard-response","17","120570","0.0-3.0-1.0-2.3","835cc517d89ccca6e45d771729fae477d2e7b81e3bfc6296159865c804a6985c","swim","arctic","null","","<p>Correct</p>","","null","","","","","","","","","","","","","","","","","","","",""
"html-keyboard-response","18","121073","0.0-3.0-1.0-0.4","835cc517d89ccca6e45d771729fae477d2e7b81e3bfc6296159865c804a6985c","swim","arctic","null","","<div style=""font-size:60px;"">+</div>","","null","","","","","","","","","","","","","","","","","","","",""
"audio-button-response","19","125789","0.0-3.0-1.0-1.4","835cc517d89ccca6e45d771729fae477d2e7b81e3bfc6296159865c804a6985c","swim","arctic","4713","","audio/t2_2.mp3","1","","1","1","headphone-test","","","","","","","","","","","","","","","","",""
"html-keyboard-response","20","126292","0.0-3.0-1.0-2.4","835cc517d89ccca6e45d771729fae477d2e7b81e3bfc6296159865c804a6985c","swim","arctic","null","","<p>Correct</p>","","null","","","","","","","","","","","","","","","","","","","",""
"html-keyboard-response","21","126812","0.0-3.0-1.0-0.5","835cc517d89ccca6e45d771729fae477d2e7b81e3bfc6296159865c804a6985c","swim","arctic","null","","<div style=""font-size:60px;"">+</div>","","null","","","","","","","","","","","","","","","","","","","",""
"audio-button-response","22","131379","0.0-3.0-1.0-1.5","835cc517d89ccca6e45d771729fae477d2e7b81e3bfc6296159865c804a6985c","swim","arctic","4564","","audio/t2_1.mp3","1","","1","1","headphone-test","","","","","","","","","","","","","","","","",""
"html-keyboard-response","23","131883","0.0-3.0-1.0-2.5","835cc517d89ccca6e45d771729fae477d2e7b81e3bfc6296159865c804a6985c","swim","arctic","null","","<p>Correct</p>","","null","","","","","","","","","","","","","","","","","","","",""
"fullscreen","24","134792","0.0-4.0","835cc517d89ccca6e45d771729fae477d2e7b81e3bfc6296159865c804a6985c","swim","arctic","","","","","","","","","true","","","","","","","","","","","","","","","",""
"html-button-response","25","146117","0.0-5.0-0.0","835cc517d89ccca6e45d771729fae477d2e7b81e3bfc6296159865c804a6985c","swim","arctic","11324","","<p>There are two blocks to this experiment.</p><p>In each block, you will hear a ~13.5 minute story. One of the stories will be scrambled. Please listen carefully to both stories and understand them as best you can.</p><p>After each story, you will be asked some questions to assess your comprehension.</p>","0","","","","","","","","","","","","","","","","","","","","",""
"html-button-response","26","161602","0.0-5.0-1.0","835cc517d89ccca6e45d771729fae477d2e7b81e3bfc6296159865c804a6985c","swim","arctic","15484","","<p>During each story, there will be an additional task.</p><p>A letter will occasionally appear on the screen.</br>Your job is to - as quickly as you can - decide whether the letter is lowercase or uppercase and press one of two keys on the keyboard:</p><p>If the letter is <b>lowercase</b>, press key &lt;<b>x</b>&gt;.</p><p>If the letter is <b>uppercase</b>, press key &lt;<b>m</b>&gt;.</p>","0","","","","","","","","","","","","","","","","","","","","",""
"html-keyboard-response","27","179888","0.0-5.0-2.0","835cc517d89ccca6e45d771729fae477d2e7b81e3bfc6296159865c804a6985c","swim","arctic","18285","","<p>Because we want your responses to be as quick as possible, please keep your index fingers over the keys while listening.</p><p>Each block lasts about 20 minutes.</p><p><b>Press &lt;x&gt; or &lt;m&gt; to start the first block!</b></p>","","88","","","","","","","","","","","","","","","","","","","",""
"html-keyboard-response","28","180395","0.0-7.0-0.0-0.0","835cc517d89ccca6e45d771729fae477d2e7b81e3bfc6296159865c804a6985c","swim","arctic","null","","<div style=""font-size:60px;"" tabindex=""0"">+</div>","","null","","","","","","","","","","","","","","","","","","","",""
"dual-task","null","null","null","","swim","arctic","1011.3999999761581","","b","null","88","88","1","swim-dual-task","","b","lowercase","10000","0","1","835cc517d89ccca6e45d771729fae477d2e7b81e3bfc6296159865c804a6985c","10015.300000071526","1011.3999999761581","88","1","swim","","","","",""
"dual-task","null","null","null","","swim","arctic","567.7000000476837","","r","null","77","88","0","swim-dual-task","","r","lowercase","18000","0","1","835cc517d89ccca6e45d771729fae477d2e7b81e3bfc6296159865c804a6985c","18017","567.7000000476837","77","0","swim","","","","",""
"dual-task","null","null","null","","swim","arctic","520.3999999761581","","d","null","88","88","1","swim-dual-task","","d","lowercase","28000","0","1","835cc517d89ccca6e45d771729fae477d2e7b81e3bfc6296159865c804a6985c","28003.700000047684","520.3999999761581","88","1","swim","","","","",""
"dual-task","null","null","null","","swim","arctic","568","","A","null","77","77","1","swim-dual-task","","A","uppercase","40000","0","1","835cc517d89ccca6e45d771729fae477d2e7b81e3bfc6296159865c804a6985c","40015.5","568","77","1","swim","","","","",""
"dual-task","null","null","null","","swim","arctic","523.3999999761581","","b","null","88","88","1","swim-dual-task","","b","lowercase","54000","0","1","835cc517d89ccca6e45d771729fae477d2e7b81e3bfc6296159865c804a6985c","54005.60000002384","523.3999999761581","88","1","swim","","","","",""
"dual-task","null","null","null","","swim","arctic","518.1000000238419","","q","null","88","88","1","swim-dual-task","","q","lowercase","62000","0","1","835cc517d89ccca6e45d771729fae477d2e7b81e3bfc6296159865c804a6985c","62016.39999997616","518.1000000238419","88","1","swim","","","","",""
"dual-task","null","null","null","","swim","arctic","550","","D","null","77","77","1","swim-dual-task","","D","uppercase","72000","0","1","835cc517d89ccca6e45d771729fae477d2e7b81e3bfc6296159865c804a6985c","72006","550","77","1","swim","","","","",""
"dual-task","null","null","null","","swim","arctic","548.5","","F","null","77","77","1","swim-dual-task","","F","uppercase","82000","0","1","835cc517d89ccca6e45d771729fae477d2e7b81e3bfc6296159865c804a6985c","82007","548.5","77","1","swim","","","","",""
"dual-task","null","null","null","","swim","arctic","500.7999999523163","","d","null","88","88","1","swim-dual-task","","d","lowercase","94000","0","1","835cc517d89ccca6e45d771729fae477d2e7b81e3bfc6296159865c804a6985c","94016.20000004768","500.7999999523163","88","1","swim","","","","",""
"dual-task","null","null","null","","swim","arctic","481.5","","n","null","88","88","1","swim-dual-task","","n","lowercase","108000","0","1","835cc517d89ccca6e45d771729fae477d2e7b81e3bfc6296159865c804a6985c","108006","481.5","88","1","swim","","","","",""
"dual-task","null","null","null","","swim","arctic","551.6999999284744","","F","null","77","77","1","swim-dual-task","","F","uppercase","116000","0","1","835cc517d89ccca6e45d771729fae477d2e7b81e3bfc6296159865c804a6985c","116015.80000007153","551.6999999284744","77","1","swim","","","","",""
"dual-task","null","null","null","","swim","arctic","626.0999999046326","","N","null","77","77","1","swim-dual-task","","N","uppercase","124000","0","1","835cc517d89ccca6e45d771729fae477d2e7b81e3bfc6296159865c804a6985c","124004","626.0999999046326","77","1","swim","","","","",""
"dual-task","null","null","null","","swim","arctic","505.1999999284744","","d","null","88","88","1","swim-dual-task","","d","lowercase","136000","0","1","835cc517d89ccca6e45d771729fae477d2e7b81e3bfc6296159865c804a6985c","136015.60000002384","505.1999999284744","88","1","swim","","","","",""
"dual-task","null","null","null","","swim","arctic","422.2999999523163","","a","null","88","88","1","swim-dual-task","","a","lowercase","150000","0","1","835cc517d89ccca6e45d771729fae477d2e7b81e3bfc6296159865c804a6985c","150007","422.2999999523163","88","1","swim","","","","",""
"dual-task","null","null","null","","swim","arctic","494.3000000715256","","E","null","77","77","1","swim-dual-task","","E","uppercase","162000","0","1","835cc517d89ccca6e45d771729fae477d2e7b81e3bfc6296159865c804a6985c","162005.60000002384","494.3000000715256","77","1","swim","","","","",""
"dual-task","null","null","null","","swim","arctic","509.8000000715256","","a","null","88","88","1","swim-dual-task","","a","lowercase","174000","0","1","835cc517d89ccca6e45d771729fae477d2e7b81e3bfc6296159865c804a6985c","174013.30000007153","509.8000000715256","88","1","swim","","","","",""
"dual-task","null","null","null","","swim","arctic","537","","H","null","77","77","1","swim-dual-task","","H","uppercase","184000","0","1","835cc517d89ccca6e45d771729fae477d2e7b81e3bfc6296159865c804a6985c","184006.10000002384","537","77","1","swim","","","","",""
"dual-task","null","null","null","","swim","arctic","592.5","","H","null","77","77","1","swim-dual-task","","H","uppercase","196000","0","1","835cc517d89ccca6e45d771729fae477d2e7b81e3bfc6296159865c804a6985c","196006.20000004768","592.5","77","1","swim","","","","",""
"dual-task","null","null","null","","swim","arctic","489.8000000715256","","a","null","88","88","1","swim-dual-task","","a","lowercase","210000","0","1","835cc517d89ccca6e45d771729fae477d2e7b81e3bfc6296159865c804a6985c","210006.89999997616","489.8000000715256","88","1","swim","","","","",""
"dual-task","null","null","null","","swim","arctic","573.5","","Q","null","77","77","1","swim-dual-task","","Q","uppercase","220000","0","1","835cc517d89ccca6e45d771729fae477d2e7b81e3bfc6296159865c804a6985c","220016.80000007153","573.5","77","1","swim","","","","",""
"dual-task","null","null","null","","swim","arctic","571.5","","N","null","77","77","1","swim-dual-task","","N","uppercase","230000","0","1","835cc517d89ccca6e45d771729fae477d2e7b81e3bfc6296159865c804a6985c","230006.10000002384","571.5","77","1","swim","","","","",""
"dual-task","null","null","null","","swim","arctic","580.7999999523163","","g","null","88","88","1","swim-dual-task","","g","lowercase","238000","0","1","835cc517d89ccca6e45d771729fae477d2e7b81e3bfc6296159865c804a6985c","238006.20000004768","580.7999999523163","88","1","swim","","","","",""
"dual-task","null","null","null","","swim","arctic","490","","G","null","77","77","1","swim-dual-task","","G","uppercase","246000","0","1","835cc517d89ccca6e45d771729fae477d2e7b81e3bfc6296159865c804a6985c","246015.10000002384","490","77","1","swim","","","","",""
"dual-task","null","null","null","","swim","arctic","526.8999999761581","","e","null","88","88","1","swim-dual-task","","e","lowercase","258000","0","1","835cc517d89ccca6e45d771729fae477d2e7b81e3bfc6296159865c804a6985c","258006.30000007153","526.8999999761581","88","1","swim","","","","",""
"dual-task","null","null","null","","swim","arctic","513.6999999284744","","E","null","77","77","1","swim-dual-task","","E","uppercase","268000","0","1","835cc517d89ccca6e45d771729fae477d2e7b81e3bfc6296159865c804a6985c","268007.10000002384","513.6999999284744","77","1","swim","","","","",""
"dual-task","null","null","null","","swim","arctic","554.8999999761581","","H","null","77","77","1","swim-dual-task","","H","uppercase","282000","0","1","835cc517d89ccca6e45d771729fae477d2e7b81e3bfc6296159865c804a6985c","282017","554.8999999761581","77","1","swim","","","","",""
"dual-task","null","null","null","","swim","arctic","551.6999999284744","","t","null","88","88","1","swim-dual-task","","t","lowercase","288000","0","1","835cc517d89ccca6e45d771729fae477d2e7b81e3bfc6296159865c804a6985c","288013.3000000715","551.6999999284744","88","1","swim","","","","",""
"dual-task","null","null","null","","swim","arctic","553.7000000476837","","e","null","88","88","1","swim-dual-task","","e","lowercase","302000","0","1","835cc517d89ccca6e45d771729fae477d2e7b81e3bfc6296159865c804a6985c","302016.2000000477","553.7000000476837","88","1","swim","","","","",""
"dual-task","null","null","null","","swim","arctic","547.6000000238419","","Q","null","77","77","1","swim-dual-task","","Q","uppercase","312000","0","1","835cc517d89ccca6e45d771729fae477d2e7b81e3bfc6296159865c804a6985c","312015.7000000477","547.6000000238419","77","1","swim","","","","",""
"dual-task","null","null","null","","swim","arctic","430.60000002384186","","h","null","88","88","1","swim-dual-task","","h","lowercase","322000","0","1","835cc517d89ccca6e45d771729fae477d2e7b81e3bfc6296159865c804a6985c","322006.2000000477","430.60000002384186","88","1","swim","","","","",""
"dual-task","null","null","null","","swim","arctic","528.8000000715256","","g","null","88","88","1","swim-dual-task","","g","lowercase","330000","0","1","835cc517d89ccca6e45d771729fae477d2e7b81e3bfc6296159865c804a6985c","330007.10000002384","528.8000000715256","88","1","swim","","","","",""
"dual-task","null","null","null","","swim","arctic","494.2999999523163","","t","null","88","88","1","swim-dual-task","","t","lowercase","340000","0","1","835cc517d89ccca6e45d771729fae477d2e7b81e3bfc6296159865c804a6985c","340006.89999997616","494.2999999523163","88","1","swim","","","","",""
"dual-task","null","null","null","","swim","arctic","434.39999997615814","","g","null","88","88","1","swim-dual-task","","g","lowercase","350000","0","1","835cc517d89ccca6e45d771729fae477d2e7b81e3bfc6296159865c804a6985c","350006.10000002384","434.39999997615814","88","1","swim","","","","",""
"dual-task","null","null","null","","swim","arctic","448.7999999523163","","A","null","88","77","0","swim-dual-task","","A","uppercase","362000","0","1","835cc517d89ccca6e45d771729fae477d2e7b81e3bfc6296159865c804a6985c","362016.89999997616","448.7999999523163","88","0","swim","","","","",""
"dual-task","null","null","null","","swim","arctic","564","","R","null","77","77","1","swim-dual-task","","R","uppercase","372000","0","1","835cc517d89ccca6e45d771729fae477d2e7b81e3bfc6296159865c804a6985c","372003.60000002384","564","77","1","swim","","","","",""
"dual-task","null","null","null","","swim","arctic","560.2000000476837","","T","null","77","77","1","swim-dual-task","","T","uppercase","380000","0","1","835cc517d89ccca6e45d771729fae477d2e7b81e3bfc6296159865c804a6985c","380005.5","560.2000000476837","77","1","swim","","","","",""
"dual-task","null","null","null","","swim","arctic","507","","q","null","88","88","1","swim-dual-task","","q","lowercase","390000","0","1","835cc517d89ccca6e45d771729fae477d2e7b81e3bfc6296159865c804a6985c","390003.5","507","88","1","swim","","","","",""
"dual-task","null","null","null","","swim","arctic","564","","T","null","77","77","1","swim-dual-task","","T","uppercase","396000","0","1","835cc517d89ccca6e45d771729fae477d2e7b81e3bfc6296159865c804a6985c","396006.7000000477","564","77","1","swim","","","","",""
"dual-task","null","null","null","","swim","arctic","546.7999999523163","","G","null","77","77","1","swim-dual-task","","G","uppercase","406000","0","1","835cc517d89ccca6e45d771729fae477d2e7b81e3bfc6296159865c804a6985c","406016.10000002384","546.7999999523163","77","1","swim","","","","",""
"dual-task","null","null","null","","swim","arctic","521.8999999761581","","h","null","88","88","1","swim-dual-task","","h","lowercase","416000","0","1","835cc517d89ccca6e45d771729fae477d2e7b81e3bfc6296159865c804a6985c","416006.5","521.8999999761581","88","1","swim","","","","",""
"dual-task","null","null","null","","swim","arctic","511.7000000476837","","a","null","88","88","1","swim-dual-task","","a","lowercase","422000","0","1","835cc517d89ccca6e45d771729fae477d2e7b81e3bfc6296159865c804a6985c","422015.5","511.7000000476837","88","1","swim","","","","",""
"dual-task","null","null","null","","swim","arctic","555.3000000715256","","T","null","77","77","1","swim-dual-task","","T","uppercase","428000","0","1","835cc517d89ccca6e45d771729fae477d2e7b81e3bfc6296159865c804a6985c","428006.7000000477","555.3000000715256","77","1","swim","","","","",""
"dual-task","null","null","null","","swim","arctic","552.2000000476837","","R","null","77","77","1","swim-dual-task","","R","uppercase","438000","0","1","835cc517d89ccca6e45d771729fae477d2e7b81e3bfc6296159865c804a6985c","438005.39999997616","552.2000000476837","77","1","swim","","","","",""
"dual-task","null","null","null","","swim","arctic","486.7000000476837","","r","null","88","88","1","swim-dual-task","","r","lowercase","444000","0","1","835cc517d89ccca6e45d771729fae477d2e7b81e3bfc6296159865c804a6985c","444016.60000002384","486.7000000476837","88","1","swim","","","","",""
"dual-task","null","null","null","","swim","arctic","580.2999999523163","","f","null","88","88","1","swim-dual-task","","f","lowercase","452000","0","1","835cc517d89ccca6e45d771729fae477d2e7b81e3bfc6296159865c804a6985c","452007","580.2999999523163","88","1","swim","","","","",""
"dual-task","null","null","null","","swim","arctic","583.6000000238419","","e","null","88","88","1","swim-dual-task","","e","lowercase","460000","0","1","835cc517d89ccca6e45d771729fae477d2e7b81e3bfc6296159865c804a6985c","460005.60000002384","583.6000000238419","88","1","swim","","","","",""
"dual-task","null","null","null","","swim","arctic","445.5","","b","null","88","88","1","swim-dual-task","","b","lowercase","474000","0","1","835cc517d89ccca6e45d771729fae477d2e7b81e3bfc6296159865c804a6985c","474016.39999997616","445.5","88","1","swim","","","","",""
"dual-task","null","null","null","","swim","arctic","572","","h","null","88","88","1","swim-dual-task","","h","lowercase","486000","0","1","835cc517d89ccca6e45d771729fae477d2e7b81e3bfc6296159865c804a6985c","486016.3000000715","572","88","1","swim","","","","",""
"dual-task","null","null","null","","swim","arctic","599.7000000476837","","A","null","77","77","1","swim-dual-task","","A","uppercase","494000","0","1","835cc517d89ccca6e45d771729fae477d2e7b81e3bfc6296159865c804a6985c","494015.3000000715","599.7000000476837","77","1","swim","","","","",""
"dual-task","null","null","null","","swim","arctic","462.6999999284744","","n","null","88","88","1","swim-dual-task","","n","lowercase","508000","0","1","835cc517d89ccca6e45d771729fae477d2e7b81e3bfc6296159865c804a6985c","508005.7000000477","462.6999999284744","88","1","swim","","","","",""
"dual-task","null","null","null","","swim","arctic","499.7000000476837","","N","null","77","77","1","swim-dual-task","","N","uppercase","522000","0","1","835cc517d89ccca6e45d771729fae477d2e7b81e3bfc6296159865c804a6985c","522005.8000000715","499.7000000476837","77","1","swim","","","","",""
"dual-task","null","null","null","","swim","arctic","562.8000000715256","","D","null","77","77","1","swim-dual-task","","D","uppercase","532000","0","1","835cc517d89ccca6e45d771729fae477d2e7b81e3bfc6296159865c804a6985c","532013.2000000477","562.8000000715256","77","1","swim","","","","",""
"dual-task","null","null","null","","swim","arctic","574.8000000715256","","r","null","88","88","1","swim-dual-task","","r","lowercase","544000","0","1","835cc517d89ccca6e45d771729fae477d2e7b81e3bfc6296159865c804a6985c","544007.1000000238","574.8000000715256","88","1","swim","","","","",""
"dual-task","null","null","null","","swim","arctic","515.3999999761581","","t","null","88","88","1","swim-dual-task","","t","lowercase","558000","0","1","835cc517d89ccca6e45d771729fae477d2e7b81e3bfc6296159865c804a6985c","558016.3000000715","515.3999999761581","88","1","swim","","","","",""
"dual-task","null","null","null","","swim","arctic","530.9000000953674","","f","null","88","88","1","swim-dual-task","","f","lowercase","564000","0","1","835cc517d89ccca6e45d771729fae477d2e7b81e3bfc6296159865c804a6985c","564007","530.9000000953674","88","1","swim","","","","",""
"dual-task","null","null","null","","swim","arctic","505.2000000476837","","D","null","77","77","1","swim-dual-task","","D","uppercase","574000","0","1","835cc517d89ccca6e45d771729fae477d2e7b81e3bfc6296159865c804a6985c","574016.2000000477","505.2000000476837","77","1","swim","","","","",""
"dual-task","null","null","null","","swim","arctic","528.2000000476837","","h","null","88","88","1","swim-dual-task","","h","lowercase","582000","0","1","835cc517d89ccca6e45d771729fae477d2e7b81e3bfc6296159865c804a6985c","582005.6000000238","528.2000000476837","88","1","swim","","","","",""
"dual-task","null","null","null","","swim","arctic","424.39999997615814","","g","null","88","88","1","swim-dual-task","","g","lowercase","592000","0","1","835cc517d89ccca6e45d771729fae477d2e7b81e3bfc6296159865c804a6985c","592016.8999999762","424.39999997615814","88","1","swim","","","","",""
"dual-task","null","null","null","","swim","arctic","501.89999997615814","","r","null","88","88","1","swim-dual-task","","r","lowercase","606000","0","1","835cc517d89ccca6e45d771729fae477d2e7b81e3bfc6296159865c804a6985c","606006.8999999762","501.89999997615814","88","1","swim","","","","",""
"dual-task","null","null","null","","swim","arctic","475.10000002384186","","e","null","88","88","1","swim-dual-task","","e","lowercase","612000","0","1","835cc517d89ccca6e45d771729fae477d2e7b81e3bfc6296159865c804a6985c","612005.3000000715","475.10000002384186","88","1","swim","","","","",""
"dual-task","null","null","null","","swim","arctic","470.7999999523163","","f","null","88","88","1","swim-dual-task","","f","lowercase","620000","0","1","835cc517d89ccca6e45d771729fae477d2e7b81e3bfc6296159865c804a6985c","620005.3000000715","470.7999999523163","88","1","swim","","","","",""
"dual-task","null","null","null","","swim","arctic","566.2999999523163","","B","null","77","77","1","swim-dual-task","","B","uppercase","628000","0","1","835cc517d89ccca6e45d771729fae477d2e7b81e3bfc6296159865c804a6985c","628005.7000000477","566.2999999523163","77","1","swim","","","","",""
"dual-task","null","null","null","","swim","arctic","649.6000000238419","","Q","null","77","77","1","swim-dual-task","","Q","uppercase","636000","0","1","835cc517d89ccca6e45d771729fae477d2e7b81e3bfc6296159865c804a6985c","636007.1000000238","649.6000000238419","77","1","swim","","","","",""
"dual-task","null","null","null","","swim","arctic","605.7999999523163","","F","null","77","77","1","swim-dual-task","","F","uppercase","646000","0","1","835cc517d89ccca6e45d771729fae477d2e7b81e3bfc6296159865c804a6985c","646004.3999999762","605.7999999523163","77","1","swim","","","","",""
"dual-task","null","null","null","","swim","arctic","573","","D","null","77","77","1","swim-dual-task","","D","uppercase","656000","0","1","835cc517d89ccca6e45d771729fae477d2e7b81e3bfc6296159865c804a6985c","656016.2000000477","573","77","1","swim","","","","",""
"dual-task","null","null","null","","swim","arctic","581.1000000238419","","G","null","77","77","1","swim-dual-task","","G","uppercase","664000","0","1","835cc517d89ccca6e45d771729fae477d2e7b81e3bfc6296159865c804a6985c","664006.6000000238","581.1000000238419","77","1","swim","","","","",""
"dual-task","null","null","null","","swim","arctic","524.6999999284744","","q","null","88","88","1","swim-dual-task","","q","lowercase","676000","0","1","835cc517d89ccca6e45d771729fae477d2e7b81e3bfc6296159865c804a6985c","676016.3000000715","524.6999999284744","88","1","swim","","","","",""
"dual-task","null","null","null","","swim","arctic","517.8999999761581","","d","null","88","88","1","swim-dual-task","","d","lowercase","688000","0","1","835cc517d89ccca6e45d771729fae477d2e7b81e3bfc6296159865c804a6985c","688009.1000000238","517.8999999761581","88","1","swim","","","","",""
"dual-task","null","null","null","","swim","arctic","751.1000000238419","","f","null","88","88","1","swim-dual-task","","f","lowercase","694000","0","1","835cc517d89ccca6e45d771729fae477d2e7b81e3bfc6296159865c804a6985c","694015.3000000715","751.1000000238419","88","1","swim","","","","",""
"dual-task","null","null","null","","swim","arctic","492.39999997615814","","B","null","77","77","1","swim-dual-task","","B","uppercase","704000","0","1","835cc517d89ccca6e45d771729fae477d2e7b81e3bfc6296159865c804a6985c","704015.3999999762","492.39999997615814","77","1","swim","","","","",""
"dual-task","null","null","null","","swim","arctic","408.7000000476837","","b","null","88","88","1","swim-dual-task","","b","lowercase","712000","0","1","835cc517d89ccca6e45d771729fae477d2e7b81e3bfc6296159865c804a6985c","712008.8999999762","408.7000000476837","88","1","swim","","","","",""
"dual-task","null","null","null","","swim","arctic","604","","G","null","77","77","1","swim-dual-task","","G","uppercase","722000","0","1","835cc517d89ccca6e45d771729fae477d2e7b81e3bfc6296159865c804a6985c","722003.6000000238","604","77","1","swim","","","","",""
"dual-task","null","null","null","","swim","arctic","617.5","","E","null","77","77","1","swim-dual-task","","E","uppercase","734000","0","1","835cc517d89ccca6e45d771729fae477d2e7b81e3bfc6296159865c804a6985c","734017.1000000238","617.5","77","1","swim","","","","",""
"dual-task","null","null","null","","swim","arctic","543.8999999761581","","E","null","77","77","1","swim-dual-task","","E","uppercase","746000","0","1","835cc517d89ccca6e45d771729fae477d2e7b81e3bfc6296159865c804a6985c","746005.8999999762","543.8999999761581","77","1","swim","","","","",""
"dual-task","null","null","null","","swim","arctic","497.3000000715256","","n","null","88","88","1","swim-dual-task","","n","lowercase","760000","0","1","835cc517d89ccca6e45d771729fae477d2e7b81e3bfc6296159865c804a6985c","760004.2000000477","497.3000000715256","88","1","swim","","","","",""
"dual-task","null","null","null","","swim","arctic","532.1000000238419","","B","null","77","77","1","swim-dual-task","","B","uppercase","766000","0","1","835cc517d89ccca6e45d771729fae477d2e7b81e3bfc6296159865c804a6985c","766006.2000000477","532.1000000238419","77","1","swim","","","","",""
"dual-task","null","null","null","","swim","arctic","567.2000000476837","","H","null","77","77","1","swim-dual-task","","H","uppercase","778000","0","1","835cc517d89ccca6e45d771729fae477d2e7b81e3bfc6296159865c804a6985c","778003.6000000238","567.2000000476837","77","1","swim","","","","",""
"dual-task","null","null","null","","swim","arctic","575.5","","A","null","77","77","1","swim-dual-task","","A","uppercase","788000","0","1","835cc517d89ccca6e45d771729fae477d2e7b81e3bfc6296159865c804a6985c","788006.2000000477","575.5","77","1","swim","","","","",""
"dual-task","null","null","null","","swim","arctic","474.39999997615814","","t","null","88","88","1","swim-dual-task","","t","lowercase","794000","0","1","835cc517d89ccca6e45d771729fae477d2e7b81e3bfc6296159865c804a6985c","794005.6000000238","474.39999997615814","88","1","swim","","","","",""
"audio-keyboard-response","29","990439","0.0-7.0-0.0-1.0","835cc517d89ccca6e45d771729fae477d2e7b81e3bfc6296159865c804a6985c","swim","arctic","null","","audio/story_swim.mp3","","null","","","","","","","","","","","","","","","","","","","",""
"html-button-response","30","994096","0.0-7.0-0.0-2.0","835cc517d89ccca6e45d771729fae477d2e7b81e3bfc6296159865c804a6985c","swim","arctic","3656","","<p>This concludes the story. Thank you for listening.</p><p>You will now answer some questions about the content of the story.</p>","0","","","","","","","","","","","","","","","","","","","","",""
"survey-multi-choice","31","999287","0.0-7.0-0.0-3.0-0.0","835cc517d89ccca6e45d771729fae477d2e7b81e3bfc6296159865c804a6985c","swim","arctic","5188","","<b>What gave the narrator his greatest feeling of accomplishment?</b>","","","","1","swim-comprehension","","","","","","","","","","","","","{""Q0"":""Passing the water survival course""}","","","",""
"survey-multi-choice","32","1004514","0.0-7.0-0.0-3.0-0.1","835cc517d89ccca6e45d771729fae477d2e7b81e3bfc6296159865c804a6985c","swim","arctic","4965","","<b>How did the narrator train for his swim test?</b>","","","","1","swim-comprehension","","","","","","","","","","","","","{""Q0"":""Took his kids to the pool every day""}","","","",""
"survey-multi-choice","33","1010158","0.0-7.0-0.0-3.0-0.2","835cc517d89ccca6e45d771729fae477d2e7b81e3bfc6296159865c804a6985c","swim","arctic","5383","","<b>How many times did the astronaut candidates have to complete the final exercise to pass?</b>","","","","1","swim-comprehension","","","","","","","","","","","","","{""Q0"":""Two""}","","","",""
"survey-multi-choice","34","1014156","0.0-7.0-0.0-3.0-0.3","835cc517d89ccca6e45d771729fae477d2e7b81e3bfc6296159865c804a6985c","swim","arctic","3743","","<b>How many astronaut candidates reported for duty at the Johnson Space Center?</b>","","","","1","swim-comprehension","","","","","","","","","","","","","{""Q0"":""Forty-four""}","","","",""
"survey-multi-choice","35","1019176","0.0-7.0-0.0-3.0-0.4","835cc517d89ccca6e45d771729fae477d2e7b81e3bfc6296159865c804a6985c","swim","arctic","4761","","<b>How many astronaut candidates passed the first swim test?</b>","","","","1","swim-comprehension","","","","","","","","","","","","","{""Q0"":""All of them""}","","","",""
"survey-multi-choice","36","1023283","0.0-7.0-0.0-3.0-0.5","835cc517d89ccca6e45d771729fae477d2e7b81e3bfc6296159865c804a6985c","swim","arctic","3841","","<b>How often does the narrator swim, now that he is a good swimmer?</b>","","","","1","swim-comprehension","","","","","","","","","","","","","{""Q0"":""Never swam again in his life""}","","","",""
"survey-multi-choice","37","1026902","0.0-7.0-0.0-3.0-0.6","835cc517d89ccca6e45d771729fae477d2e7b81e3bfc6296159865c804a6985c","swim","arctic","3361","","<b>Where is the home of naval aviation?</b>","","","","1","swim-comprehension","","","","","","","","","","","","","{""Q0"":""Pensacola""}","","","",""
"survey-multi-choice","38","1029828","0.0-7.0-0.0-3.0-0.7","835cc517d89ccca6e45d771729fae477d2e7b81e3bfc6296159865c804a6985c","swim","arctic","2670","","<b>What is the narrator afraid of, aside from the water?</b>","","","","1","swim-comprehension","","","","","","","","","","","","","{""Q0"":""Heights""}","","","",""
"survey-multi-choice","39","1042768","0.0-7.0-0.0-3.0-0.8","835cc517d89ccca6e45d771729fae477d2e7b81e3bfc6296159865c804a6985c","swim","arctic","12678","","<b>What was the final step of the first swim test in the pool?</b>","","","","1","swim-comprehension","","","","","","","","","","","","","{""Q0"":""Tread water with hands above the water""}","","","",""
"survey-multi-choice","40","1051633","0.0-7.0-0.0-3.0-0.9","835cc517d89ccca6e45d771729fae477d2e7b81e3bfc6296159865c804a6985c","swim","arctic","8604","","<b>What were the astronaut candidates trained to do at the naval air station?</b>","","","","1","swim-comprehension","","","","","","","","","","","","","{""Q0"":""Eject out of aircraft and survive in water long enough to be rescued""}","","","",""
"html-button-response","41","1053917","0.0-7.0-0.0-4.0","835cc517d89ccca6e45d771729fae477d2e7b81e3bfc6296159865c804a6985c","swim","arctic","2030","","<p>Thank you for your responses.</p><p>You will now answer some questions about your impressions of the story.</p>","0","","","","","","","","","","","","","","","","","","","","",""
"html-button-response","42","1056739","0.0-7.0-0.0-5.0-0.0","835cc517d89ccca6e45d771729fae477d2e7b81e3bfc6296159865c804a6985c","swim","arctic","2820","","MS1","6","","","","swim-engagement","","","","","","","","","","","","","","7","mental-sim","",""
"html-button-response","43","1060319","0.0-7.0-0.0-5.0-0.1","835cc517d89ccca6e45d771729fae477d2e7b81e3bfc6296159865c804a6985c","swim","arctic","3322","","EE3","5","","","","swim-engagement","","","","","","","","","","","","","","6","emo-engage","",""
"html-button-response","44","1062306","0.0-7.0-0.0-5.0-0.2","835cc517d89ccca6e45d771729fae477d2e7b81e3bfc6296159865c804a6985c","swim","arctic","1728","","E6","6","","","","swim-engagement","","","","","","","","","","","","","","7","enjoyment","",""
"html-button-response","45","1064837","0.0-7.0-0.0-5.0-0.3","835cc517d89ccca6e45d771729fae477d2e7b81e3bfc6296159865c804a6985c","swim","arctic","2274","","EE2","6","","","","swim-engagement","","","","","","","","","","","","","","7","emo-engage","",""
"html-button-response","46","1070047","0.0-7.0-0.0-5.0-0.4","835cc517d89ccca6e45d771729fae477d2e7b81e3bfc6296159865c804a6985c","swim","arctic","4951","","A4","4","","","","swim-engagement","","","","","","","","","","","","","","5","absorption","",""
"html-button-response","47","1073768","0.0-7.0-0.0-5.0-0.5","835cc517d89ccca6e45d771729fae477d2e7b81e3bfc6296159865c804a6985c","swim","arctic","3465","","A1","6","","","","swim-engagement","","","","","","","","","","","","","","7","absorption","",""
"html-button-response","48","1075444","0.0-7.0-0.0-5.0-0.6","835cc517d89ccca6e45d771729fae477d2e7b81e3bfc6296159865c804a6985c","swim","arctic","1416","","E8","6","","","","swim-engagement","","","","","","","","","","","","","","7","enjoyment","",""
"html-button-response","49","1077929","0.0-7.0-0.0-5.0-0.7","835cc517d89ccca6e45d771729fae477d2e7b81e3bfc6296159865c804a6985c","swim","arctic","2222","","EE4","6","","","","swim-engagement","","","","","","","","","","","","","","7","emo-engage","",""
"html-button-response","50","1079381","0.0-7.0-0.0-5.0-0.8","835cc517d89ccca6e45d771729fae477d2e7b81e3bfc6296159865c804a6985c","swim","arctic","1195","","A3","6","","","","swim-engagement","","","","","","","","","","","","","","7","absorption","",""
"html-button-response","51","1081204","0.0-7.0-0.0-5.0-0.9","835cc517d89ccca6e45d771729fae477d2e7b81e3bfc6296159865c804a6985c","swim","arctic","1567","","EE5","6","","","","swim-engagement","","","","","","","","","","","","","","7","emo-engage","",""
"html-button-response","52","1085856","0.0-7.0-0.0-5.0-0.10","835cc517d89ccca6e45d771729fae477d2e7b81e3bfc6296159865c804a6985c","swim","arctic","4399","","A5","6","","","","swim-engagement","","","","","","","","","","","","","","7","absorption","",""
"html-button-response","53","1088669","0.0-7.0-0.0-5.0-0.11","835cc517d89ccca6e45d771729fae477d2e7b81e3bfc6296159865c804a6985c","swim","arctic","2552","","MS3","6","","","","swim-engagement","","","","","","","","","","","","","","7","mental-sim","",""
"html-button-response","54","1090098","0.0-7.0-0.0-5.0-0.12","835cc517d89ccca6e45d771729fae477d2e7b81e3bfc6296159865c804a6985c","swim","arctic","1172","","E10","6","","","","swim-engagement","","","","","","","","","","","","","","7","enjoyment","",""
"html-button-response","55","1093112","0.0-7.0-0.0-5.0-0.13","835cc517d89ccca6e45d771729fae477d2e7b81e3bfc6296159865c804a6985c","swim","arctic","2755","","MS2","6","","","","swim-engagement","","","","","","","","","","","","","","7","mental-sim","",""
"html-button-response","56","1096061","0.0-7.0-0.0-5.0-0.14","835cc517d89ccca6e45d771729fae477d2e7b81e3bfc6296159865c804a6985c","swim","arctic","2695","","EE1","6","","","","swim-engagement","","","","","","","","","","","","","","7","emo-engage","",""
"html-button-response","57","1098153","0.0-7.0-0.0-5.0-0.15","835cc517d89ccca6e45d771729fae477d2e7b81e3bfc6296159865c804a6985c","swim","arctic","1834","","E7","6","","","","swim-engagement","","","","","","","","","","","","","","7","enjoyment","",""
"html-button-response","58","1102172","0.0-7.0-0.0-5.0-0.16","835cc517d89ccca6e45d771729fae477d2e7b81e3bfc6296159865c804a6985c","swim","arctic","3767","","A2","6","","","","swim-engagement","","","","","","","","","","","","","","7","absorption","",""
"html-button-response","59","1103443","0.0-7.0-0.0-5.0-0.17","835cc517d89ccca6e45d771729fae477d2e7b81e3bfc6296159865c804a6985c","swim","arctic","1004","","E1","6","","","","swim-engagement","","","","","","","","","","","","","","7","enjoyment","",""
"html-keyboard-response","60","1112574","0.0-7.0-1.0","835cc517d89ccca6e45d771729fae477d2e7b81e3bfc6296159865c804a6985c","swim","arctic","8873","","<p>Thank you for your responses. You will now listen to the second story.</p><p>Remember, as you listen to the story you will see letters appear on the screen.</br>As quickly as possible, press <b>&lt;x&gt;</b> if the letter is lowercase and <b>&lt;m&gt;</b> if the letter is uppercase.</p><p>Press <b>&lt;x&gt;</b> or <b>&lt;m&gt;</b> to begin listening!</p>","","77","","","","","","","","","","","","","","","","","","","",""
"html-keyboard-response","61","1113080","0.0-7.0-2.0-0.0","835cc517d89ccca6e45d771729fae477d2e7b81e3bfc6296159865c804a6985c","swim","arctic","null","","<div style=""font-size:60px;"" tabindex=""0"">+</div>","","null","","","","","","","","","","","","","","","","","","","",""
"dual-task","null","null","null","","swim","arctic","627.8000000715256","","e","null","88","88","1","arctic-dual-task","","e","lowercase","10000","0","1","835cc517d89ccca6e45d771729fae477d2e7b81e3bfc6296159865c804a6985c","10001.399999976158","627.8000000715256","88","1","arctic","","","","",""
"dual-task","null","null","null","","swim","arctic","515.2000000476837","","g","null","88","88","1","arctic-dual-task","","g","lowercase","24000","0","1","835cc517d89ccca6e45d771729fae477d2e7b81e3bfc6296159865c804a6985c","24006.899999976158","515.2000000476837","88","1","arctic","","","","",""
"dual-task","null","null","null","","swim","arctic","562.5","","A","null","77","77","1","arctic-dual-task","","A","uppercase","34000","0","1","835cc517d89ccca6e45d771729fae477d2e7b81e3bfc6296159865c804a6985c","34008.39999997616","562.5","77","1","arctic","","","","",""
"dual-task","null","null","null","","swim","arctic","592.7999999523163","","H","null","77","77","1","arctic-dual-task","","H","uppercase","44000","0","1","835cc517d89ccca6e45d771729fae477d2e7b81e3bfc6296159865c804a6985c","44008.89999997616","592.7999999523163","77","1","arctic","","","","",""
"dual-task","null","null","null","","swim","arctic","558.1000000238419","","q","null","88","88","1","arctic-dual-task","","q","lowercase","56000","0","1","835cc517d89ccca6e45d771729fae477d2e7b81e3bfc6296159865c804a6985c","56001.299999952316","558.1000000238419","88","1","arctic","","","","",""
"dual-task","null","null","null","","swim","arctic","557.1000000238419","","a","null","88","88","1","arctic-dual-task","","a","lowercase","64000","0","1","835cc517d89ccca6e45d771729fae477d2e7b81e3bfc6296159865c804a6985c","64017","557.1000000238419","88","1","arctic","","","","",""
"dual-task","null","null","null","","swim","arctic","511.8000000715256","","T","null","77","77","1","arctic-dual-task","","T","uppercase","76000","0","1","835cc517d89ccca6e45d771729fae477d2e7b81e3bfc6296159865c804a6985c","76009.59999990463","511.8000000715256","77","1","arctic","","","","",""
"dual-task","null","null","null","","swim","arctic","465.60000002384186","","h","null","88","88","1","arctic-dual-task","","h","lowercase","86000","0","1","835cc517d89ccca6e45d771729fae477d2e7b81e3bfc6296159865c804a6985c","86006.19999992847","465.60000002384186","88","1","arctic","","","","",""
"dual-task","null","null","null","","swim","arctic","505.59999990463257","","T","null","77","77","1","arctic-dual-task","","T","uppercase","100000","0","1","835cc517d89ccca6e45d771729fae477d2e7b81e3bfc6296159865c804a6985c","100016.29999995232","505.59999990463257","77","1","arctic","","","","",""
"dual-task","null","null","null","","swim","arctic","665.7999999523163","","n","null","88","88","1","arctic-dual-task","","n","lowercase","110000","0","1","835cc517d89ccca6e45d771729fae477d2e7b81e3bfc6296159865c804a6985c","110003","665.7999999523163","88","1","arctic","","","","",""
"dual-task","null","null","null","","swim","arctic","500.5","","E","null","77","77","1","arctic-dual-task","","E","uppercase","122000","0","1","835cc517d89ccca6e45d771729fae477d2e7b81e3bfc6296159865c804a6985c","121999.5","500.5","77","1","arctic","","","","",""
"dual-task","null","null","null","","swim","arctic","561.3999999761581","","G","null","77","77","1","arctic-dual-task","","G","uppercase","128000","0","1","835cc517d89ccca6e45d771729fae477d2e7b81e3bfc6296159865c804a6985c","128016.19999992847","561.3999999761581","77","1","arctic","","","","",""
"dual-task","null","null","null","","swim","arctic","476.60000002384186","","R","null","77","77","1","arctic-dual-task","","R","uppercase","140000","0","1","835cc517d89ccca6e45d771729fae477d2e7b81e3bfc6296159865c804a6985c","140000","476.60000002384186","77","1","arctic","","","","",""
"dual-task","null","null","null","","swim","arctic","515.5","","E","null","77","77","1","arctic-dual-task","","E","uppercase","152000","0","1","835cc517d89ccca6e45d771729fae477d2e7b81e3bfc6296159865c804a6985c","152010.19999992847","515.5","77","1","arctic","","","","",""
"dual-task","null","null","null","","swim","arctic","527","","t","null","88","88","1","arctic-dual-task","","t","lowercase","160000","0","1","835cc517d89ccca6e45d771729fae477d2e7b81e3bfc6296159865c804a6985c","160003.09999990463","527","88","1","arctic","","","","",""
"dual-task","null","null","null","","swim","arctic","545.5","","H","null","77","77","1","arctic-dual-task","","H","uppercase","172000","0","1","835cc517d89ccca6e45d771729fae477d2e7b81e3bfc6296159865c804a6985c","172016.69999992847","545.5","77","1","arctic","","","","",""
"dual-task","null","null","null","","swim","arctic","488.7000000476837","","f","null","88","88","1","arctic-dual-task","","f","lowercase","180000","0","1","835cc517d89ccca6e45d771729fae477d2e7b81e3bfc6296159865c804a6985c","180001.29999995232","488.7000000476837","88","1","arctic","","","","",""
"dual-task","null","null","null","","swim","arctic","486.7999999523163","","D","null","77","77","1","arctic-dual-task","","D","uppercase","188000","0","1","835cc517d89ccca6e45d771729fae477d2e7b81e3bfc6296159865c804a6985c","188016.39999997616","486.7999999523163","77","1","arctic","","","","",""
"dual-task","null","null","null","","swim","arctic","774.1000000238419","","F","null","77","77","1","arctic-dual-task","","F","uppercase","196000","0","1","835cc517d89ccca6e45d771729fae477d2e7b81e3bfc6296159865c804a6985c","196006.19999992847","774.1000000238419","77","1","arctic","","","","",""
"dual-task","null","null","null","","swim","arctic","499.2999999523163","","N","null","77","77","1","arctic-dual-task","","N","uppercase","208000","0","1","835cc517d89ccca6e45d771729fae477d2e7b81e3bfc6296159865c804a6985c","208014.19999992847","499.2999999523163","77","1","arctic","","","","",""
"dual-task","null","null","null","","swim","arctic","493","","a","null","88","88","1","arctic-dual-task","","a","lowercase","218000","0","1","835cc517d89ccca6e45d771729fae477d2e7b81e3bfc6296159865c804a6985c","218006.29999995232","493","88","1","arctic","","","","",""
"dual-task","null","null","null","","swim","arctic","540.5","","n","null","88","88","1","arctic-dual-task","","n","lowercase","228000","0","1","835cc517d89ccca6e45d771729fae477d2e7b81e3bfc6296159865c804a6985c","228007","540.5","88","1","arctic","","","","",""
"dual-task","null","null","null","","swim","arctic","523.7999999523163","","t","null","88","88","1","arctic-dual-task","","t","lowercase","242000","0","1","835cc517d89ccca6e45d771729fae477d2e7b81e3bfc6296159865c804a6985c","242006.59999990463","523.7999999523163","88","1","arctic","","","","",""
"dual-task","null","null","null","","swim","arctic","486.89999997615814","","h","null","88","88","1","arctic-dual-task","","h","lowercase","254000","0","1","835cc517d89ccca6e45d771729fae477d2e7b81e3bfc6296159865c804a6985c","254008.19999992847","486.89999997615814","88","1","arctic","","","","",""
"dual-task","null","null","null","","swim","arctic","423","","d","null","88","88","1","arctic-dual-task","","d","lowercase","260000","0","1","835cc517d89ccca6e45d771729fae477d2e7b81e3bfc6296159865c804a6985c","260003.89999997616","423","88","1","arctic","","","","",""
"dual-task","null","null","null","","swim","arctic","532.6999999284744","","F","null","77","77","1","arctic-dual-task","","F","uppercase","270000","0","1","835cc517d89ccca6e45d771729fae477d2e7b81e3bfc6296159865c804a6985c","270012","532.6999999284744","77","1","arctic","","","","",""
"dual-task","null","null","null","","swim","arctic","467.7000000476837","","f","null","88","88","1","arctic-dual-task","","f","lowercase","282000","0","1","835cc517d89ccca6e45d771729fae477d2e7b81e3bfc6296159865c804a6985c","282008.2999999523","467.7000000476837","88","1","arctic","","","","",""
"dual-task","null","null","null","","swim","arctic","451.10000002384186","","a","null","88","88","1","arctic-dual-task","","a","lowercase","290000","0","1","835cc517d89ccca6e45d771729fae477d2e7b81e3bfc6296159865c804a6985c","290014.2999999523","451.10000002384186","88","1","arctic","","","","",""
"dual-task","null","null","null","","swim","arctic","523.6000000238419","","r","null","88","88","1","arctic-dual-task","","r","lowercase","300000","0","1","835cc517d89ccca6e45d771729fae477d2e7b81e3bfc6296159865c804a6985c","300016.5","523.6000000238419","88","1","arctic","","","","",""
"dual-task","null","null","null","","swim","arctic","462.2999999523163","","r","null","88","88","1","arctic-dual-task","","r","lowercase","312000","0","1","835cc517d89ccca6e45d771729fae477d2e7b81e3bfc6296159865c804a6985c","312011.7999999523","462.2999999523163","88","1","arctic","","","","",""
"dual-task","null","null","null","","swim","arctic","495.2999999523163","","N","null","77","77","1","arctic-dual-task","","N","uppercase","320000","0","1","835cc517d89ccca6e45d771729fae477d2e7b81e3bfc6296159865c804a6985c","320008.09999990463","495.2999999523163","77","1","arctic","","","","",""
"dual-task","null","null","null","","swim","arctic","539.1999999284744","","Q","null","77","77","1","arctic-dual-task","","Q","uppercase","332000","0","1","835cc517d89ccca6e45d771729fae477d2e7b81e3bfc6296159865c804a6985c","332006","539.1999999284744","77","1","arctic","","","","",""
"dual-task","null","null","null","","swim","arctic","492.1999999284744","","g","null","88","88","1","arctic-dual-task","","g","lowercase","340000","0","1","835cc517d89ccca6e45d771729fae477d2e7b81e3bfc6296159865c804a6985c","340013.59999990463","492.1999999284744","88","1","arctic","","","","",""
"dual-task","null","null","null","","swim","arctic","432.60000002384186","","F","null","88","77","0","arctic-dual-task","","F","uppercase","352000","0","1","835cc517d89ccca6e45d771729fae477d2e7b81e3bfc6296159865c804a6985c","352014.89999997616","432.60000002384186","88","0","arctic","","","","",""
"dual-task","null","null","null","","swim","arctic","499.7000000476837","","a","null","88","88","1","arctic-dual-task","","a","lowercase","360000","0","1","835cc517d89ccca6e45d771729fae477d2e7b81e3bfc6296159865c804a6985c","360011.1999999285","499.7000000476837","88","1","arctic","","","","",""
"dual-task","null","null","null","","swim","arctic","546.6999999284744","","R","null","77","77","1","arctic-dual-task","","R","uppercase","368000","0","1","835cc517d89ccca6e45d771729fae477d2e7b81e3bfc6296159865c804a6985c","368012.7999999523","546.6999999284744","77","1","arctic","","","","",""
"dual-task","null","null","null","","swim","arctic","525.1000000238419","","D","null","77","77","1","arctic-dual-task","","D","uppercase","382000","0","1","835cc517d89ccca6e45d771729fae477d2e7b81e3bfc6296159865c804a6985c","382012.7999999523","525.1000000238419","77","1","arctic","","","","",""
"dual-task","null","null","null","","swim","arctic","569.7000000476837","","d","null","88","88","1","arctic-dual-task","","d","lowercase","396000","0","1","835cc517d89ccca6e45d771729fae477d2e7b81e3bfc6296159865c804a6985c","396017","569.7000000476837","88","1","arctic","","","","",""
"dual-task","null","null","null","","swim","arctic","544.3000000715256","","r","null","88","88","1","arctic-dual-task","","r","lowercase","406000","0","1","835cc517d89ccca6e45d771729fae477d2e7b81e3bfc6296159865c804a6985c","406015.5","544.3000000715256","88","1","arctic","","","","",""
"dual-task","null","null","null","","swim","arctic","574.6999999284744","","G","null","77","77","1","arctic-dual-task","","G","uppercase","414000","0","1","835cc517d89ccca6e45d771729fae477d2e7b81e3bfc6296159865c804a6985c","414009.1999999285","574.6999999284744","77","1","arctic","","","","",""
"dual-task","null","null","null","","swim","arctic","567.2999999523163","","B","null","77","77","1","arctic-dual-task","","B","uppercase","422000","0","1","835cc517d89ccca6e45d771729fae477d2e7b81e3bfc6296159865c804a6985c","422000.6999999285","567.2999999523163","77","1","arctic","","","","",""
"dual-task","null","null","null","","swim","arctic","545.0999999046326","","Q","null","77","77","1","arctic-dual-task","","Q","uppercase","432000","0","1","835cc517d89ccca6e45d771729fae477d2e7b81e3bfc6296159865c804a6985c","432010.59999990463","545.0999999046326","77","1","arctic","","","","",""
"dual-task","null","null","null","","swim","arctic","563.3000000715256","","b","null","88","88","1","arctic-dual-task","","b","lowercase","440000","0","1","835cc517d89ccca6e45d771729fae477d2e7b81e3bfc6296159865c804a6985c","440006.89999997616","563.3000000715256","88","1","arctic","","","","",""
"dual-task","null","null","null","","swim","arctic","519.7000000476837","","n","null","88","88","1","arctic-dual-task","","n","lowercase","454000","0","1","835cc517d89ccca6e45d771729fae477d2e7b81e3bfc6296159865c804a6985c","454014.6999999285","519.7000000476837","88","1","arctic","","","","",""
"dual-task","null","null","null","","swim","arctic","595.2999999523163","","R","null","77","77","1","arctic-dual-task","","R","uppercase","462000","0","1","835cc517d89ccca6e45d771729fae477d2e7b81e3bfc6296159865c804a6985c","462016.39999997616","595.2999999523163","77","1","arctic","","","","",""
"dual-task","null","null","null","","swim","arctic","556.8000000715256","","G","null","77","77","1","arctic-dual-task","","G","uppercase","472000","0","1","835cc517d89ccca6e45d771729fae477d2e7b81e3bfc6296159865c804a6985c","472003.6999999285","556.8000000715256","77","1","arctic","","","","",""
"dual-task","null","null","null","","swim","arctic","506.1999999284744","","b","null","88","88","1","arctic-dual-task","","b","lowercase","480000","0","1","835cc517d89ccca6e45d771729fae477d2e7b81e3bfc6296159865c804a6985c","480009.5","506.1999999284744","88","1","arctic","","","","",""
"dual-task","null","null","null","","swim","arctic","664.6000000238419","","E","null","77","77","1","arctic-dual-task","","E","uppercase","486000","0","1","835cc517d89ccca6e45d771729fae477d2e7b81e3bfc6296159865c804a6985c","486011.59999990463","664.6000000238419","77","1","arctic","","","","",""
"dual-task","null","null","null","","swim","arctic","502.2999999523163","","T","null","77","77","1","arctic-dual-task","","T","uppercase","496000","0","1","835cc517d89ccca6e45d771729fae477d2e7b81e3bfc6296159865c804a6985c","496008.39999997616","502.2999999523163","77","1","arctic","","","","",""
"dual-task","null","null","null","","swim","arctic","648.8999999761581","","f","null","88","88","1","arctic-dual-task","","f","lowercase","508000","0","1","835cc517d89ccca6e45d771729fae477d2e7b81e3bfc6296159865c804a6985c","508016.5","648.8999999761581","88","1","arctic","","","","",""
"dual-task","null","null","null","","swim","arctic","521.0999999046326","","A","null","77","77","1","arctic-dual-task","","A","uppercase","514000","0","1","835cc517d89ccca6e45d771729fae477d2e7b81e3bfc6296159865c804a6985c","514014.5","521.0999999046326","77","1","arctic","","","","",""
"dual-task","null","null","null","","swim","arctic","528.3999999761581","","e","null","88","88","1","arctic-dual-task","","e","lowercase","520000","0","1","835cc517d89ccca6e45d771729fae477d2e7b81e3bfc6296159865c804a6985c","520017","528.3999999761581","88","1","arctic","","","","",""
"dual-task","null","null","null","","swim","arctic","427.5","","D","null","77","77","1","arctic-dual-task","","D","uppercase","530000","0","1","835cc517d89ccca6e45d771729fae477d2e7b81e3bfc6296159865c804a6985c","530006.3999999762","427.5","77","1","arctic","","","","",""
"dual-task","null","null","null","","swim","arctic","520.3999999761581","","g","null","88","88","1","arctic-dual-task","","g","lowercase","542000","0","1","835cc517d89ccca6e45d771729fae477d2e7b81e3bfc6296159865c804a6985c","542009.5999999046","520.3999999761581","88","1","arctic","","","","",""
"dual-task","null","null","null","","swim","arctic","487.10000002384186","","E","null","77","77","1","arctic-dual-task","","E","uppercase","554000","0","1","835cc517d89ccca6e45d771729fae477d2e7b81e3bfc6296159865c804a6985c","554007.8999999762","487.10000002384186","77","1","arctic","","","","",""
"dual-task","null","null","null","","swim","arctic","527.6000000238419","","q","null","88","88","1","arctic-dual-task","","q","lowercase","562000","0","1","835cc517d89ccca6e45d771729fae477d2e7b81e3bfc6296159865c804a6985c","562005.2999999523","527.6000000238419","88","1","arctic","","","","",""
"dual-task","null","null","null","","swim","arctic","510.60000002384186","","H","null","77","77","1","arctic-dual-task","","H","uppercase","570000","0","1","835cc517d89ccca6e45d771729fae477d2e7b81e3bfc6296159865c804a6985c","570011.3999999762","510.60000002384186","77","1","arctic","","","","",""
"dual-task","null","null","null","","swim","arctic","600.6999999284744","","d","null","88","88","1","arctic-dual-task","","d","lowercase","578000","0","1","835cc517d89ccca6e45d771729fae477d2e7b81e3bfc6296159865c804a6985c","578013.6999999285","600.6999999284744","88","1","arctic","","","","",""
"dual-task","null","null","null","","swim","arctic","479.10000002384186","","e","null","88","88","1","arctic-dual-task","","e","lowercase","586000","0","1","835cc517d89ccca6e45d771729fae477d2e7b81e3bfc6296159865c804a6985c","586008.0999999046","479.10000002384186","88","1","arctic","","","","",""
"dual-task","null","null","null","","swim","arctic","486.5","","B","null","77","77","1","arctic-dual-task","","B","uppercase","594000","0","1","835cc517d89ccca6e45d771729fae477d2e7b81e3bfc6296159865c804a6985c","594012.3999999762","486.5","77","1","arctic","","","","",""
"dual-task","null","null","null","","swim","arctic","506.10000002384186","","N","null","77","77","1","arctic-dual-task","","N","uppercase","608000","0","1","835cc517d89ccca6e45d771729fae477d2e7b81e3bfc6296159865c804a6985c","608015.2999999523","506.10000002384186","77","1","arctic","","","","",""
"dual-task","null","null","null","","swim","arctic","502.60000002384186","","A","null","77","77","1","arctic-dual-task","","A","uppercase","618000","0","1","835cc517d89ccca6e45d771729fae477d2e7b81e3bfc6296159865c804a6985c","618011.3999999762","502.60000002384186","77","1","arctic","","","","",""
"dual-task","null","null","null","","swim","arctic","454.89999997615814","","b","null","88","88","1","arctic-dual-task","","b","lowercase","626000","0","1","835cc517d89ccca6e45d771729fae477d2e7b81e3bfc6296159865c804a6985c","626016.3999999762","454.89999997615814","88","1","arctic","","","","",""
"dual-task","null","null","null","","swim","arctic","599.0999999046326","","T","null","77","77","1","arctic-dual-task","","T","uppercase","638000","0","1","835cc517d89ccca6e45d771729fae477d2e7b81e3bfc6296159865c804a6985c","638014.3999999762","599.0999999046326","77","1","arctic","","","","",""
"dual-task","null","null","null","","swim","arctic","535.7999999523163","","A","null","77","77","1","arctic-dual-task","","A","uppercase","646000","0","1","835cc517d89ccca6e45d771729fae477d2e7b81e3bfc6296159865c804a6985c","646015","535.7999999523163","77","1","arctic","","","","",""
"dual-task","null","null","null","","swim","arctic","546.8000000715256","","e","null","88","88","1","arctic-dual-task","","e","lowercase","658000","0","1","835cc517d89ccca6e45d771729fae477d2e7b81e3bfc6296159865c804a6985c","658006.1999999285","546.8000000715256","88","1","arctic","","","","",""
"dual-task","null","null","null","","swim","arctic","440.7000000476837","","G","null","77","77","1","arctic-dual-task","","G","uppercase","670000","0","1","835cc517d89ccca6e45d771729fae477d2e7b81e3bfc6296159865c804a6985c","670010.7999999523","440.7000000476837","77","1","arctic","","","","",""
"dual-task","null","null","null","","swim","arctic","471.2000000476837","","Q","null","77","77","1","arctic-dual-task","","Q","uppercase","680000","0","1","835cc517d89ccca6e45d771729fae477d2e7b81e3bfc6296159865c804a6985c","680006.6999999285","471.2000000476837","77","1","arctic","","","","",""
"dual-task","null","null","null","","swim","arctic","513.7999999523163","","B","null","77","77","1","arctic-dual-task","","B","uppercase","688000","0","1","835cc517d89ccca6e45d771729fae477d2e7b81e3bfc6296159865c804a6985c","688008.3999999762","513.7999999523163","77","1","arctic","","","","",""
"dual-task","null","null","null","","swim","arctic","558.6999999284744","","n","null","88","88","1","arctic-dual-task","","n","lowercase","702000","0","1","835cc517d89ccca6e45d771729fae477d2e7b81e3bfc6296159865c804a6985c","702016.3999999762","558.6999999284744","88","1","arctic","","","","",""
"dual-task","null","null","null","","swim","arctic","555.8000000715256","","q","null","88","88","1","arctic-dual-task","","q","lowercase","716000","0","1","835cc517d89ccca6e45d771729fae477d2e7b81e3bfc6296159865c804a6985c","716016.5","555.8000000715256","88","1","arctic","","","","",""
"dual-task","null","null","null","","swim","arctic","534.2000000476837","","F","null","77","77","1","arctic-dual-task","","F","uppercase","724000","0","1","835cc517d89ccca6e45d771729fae477d2e7b81e3bfc6296159865c804a6985c","724005.6999999285","534.2000000476837","77","1","arctic","","","","",""
"dual-task","null","null","null","","swim","arctic","516.4000000953674","","r","null","88","88","1","arctic-dual-task","","r","lowercase","734000","0","1","835cc517d89ccca6e45d771729fae477d2e7b81e3bfc6296159865c804a6985c","734016.2999999523","516.4000000953674","88","1","arctic","","","","",""
"dual-task","null","null","null","","swim","arctic","597.3000000715256","","R","null","77","77","1","arctic-dual-task","","R","uppercase","744000","0","1","835cc517d89ccca6e45d771729fae477d2e7b81e3bfc6296159865c804a6985c","744014.7999999523","597.3000000715256","77","1","arctic","","","","",""
"dual-task","null","null","null","","swim","arctic","446.1999999284744","","b","null","88","88","1","arctic-dual-task","","b","lowercase","754000","0","1","835cc517d89ccca6e45d771729fae477d2e7b81e3bfc6296159865c804a6985c","754004","446.1999999284744","88","1","arctic","","","","",""
"dual-task","null","null","null","","swim","arctic","539","","f","null","88","88","1","arctic-dual-task","","f","lowercase","766000","0","1","835cc517d89ccca6e45d771729fae477d2e7b81e3bfc6296159865c804a6985c","766008.5999999046","539","88","1","arctic","","","","",""
"dual-task","null","null","null","","swim","arctic","491.10000002384186","","q","null","88","88","1","arctic-dual-task","","q","lowercase","778000","0","1","835cc517d89ccca6e45d771729fae477d2e7b81e3bfc6296159865c804a6985c","778007","491.10000002384186","88","1","arctic","","","","",""
"dual-task","null","null","null","","swim","arctic","448.89999997615814","","d","null","88","88","1","arctic-dual-task","","d","lowercase","788000","0","1","835cc517d89ccca6e45d771729fae477d2e7b81e3bfc6296159865c804a6985c","788017.3999999762","448.89999997615814","88","1","arctic","","","","",""
"audio-keyboard-response","62","1911107","0.0-7.0-2.0-1.0","835cc517d89ccca6e45d771729fae477d2e7b81e3bfc6296159865c804a6985c","swim","arctic","null","","audio/story_arctic_scrambled.mp3","","null","","","","","","","","","","","","","","","","","","","",""
"html-button-response","63","1912680","0.0-7.0-2.0-2.0","835cc517d89ccca6e45d771729fae477d2e7b81e3bfc6296159865c804a6985c","swim","arctic","1571","","<p>This concludes the story. Thank you for listening.</p><p>You will now answer some questions about the content of the story.</p>","0","","","","","","","","","","","","","","","","","","","","",""
"survey-multi-choice","64","1939617","0.0-7.0-2.0-3.0-0.0","835cc517d89ccca6e45d771729fae477d2e7b81e3bfc6296159865c804a6985c","swim","arctic","26931","","<b>How many sponsorships did the narrator receive to support her expedition?</b>","","","","1","arctic-comprehension","","","","","","","","","","","","","{""Q0"":""None""}","","","",""
"survey-multi-choice","65","1943305","0.0-7.0-2.0-3.0-0.1","835cc517d89ccca6e45d771729fae477d2e7b81e3bfc6296159865c804a6985c","swim","arctic","3423","","<b>What is the name of the narrator&#39;s neighbour?</b>","","","","1","arctic-comprehension","","","","","","","","","","","","","{""Q0"":""Dave""}","","","",""
"survey-multi-choice","66","1948911","0.0-7.0-2.0-3.0-0.2","835cc517d89ccca6e45d771729fae477d2e7b81e3bfc6296159865c804a6985c","swim","arctic","5349","","<b>How did the narrator prepare for her expedition?</b>","","","","1","arctic-comprehension","","","","","","","","","","","","","{""Q0"":""Trained in Alaska learning how to dogsled""}","","","",""
"survey-multi-choice","67","1956664","0.0-7.0-2.0-3.0-0.3","835cc517d89ccca6e45d771729fae477d2e7b81e3bfc6296159865c804a6985c","swim","arctic","7492","","<b>How did the dogs respond when they saw the bears?</b>","","","","1","arctic-comprehension","","","","","","","","","","","","","{""Q0"":""Approached them""}","","","",""
"survey-multi-choice","68","1963001","0.0-7.0-2.0-3.0-0.4","835cc517d89ccca6e45d771729fae477d2e7b81e3bfc6296159865c804a6985c","swim","arctic","6070","","<b>How did the narrator&#39;s neighbour respond when she told him about her expedition?</b>","","","","1","arctic-comprehension","","","","","","","","","","","","","{""Q0"":""He said she was going to fail.""}","","","",""
"survey-multi-choice","69","1975331","0.0-7.0-2.0-3.0-0.5","835cc517d89ccca6e45d771729fae477d2e7b81e3bfc6296159865c804a6985c","swim","arctic","12060","","<b>Which dog on the narrator&#39;s dog team never followed instructions?</b>","","","","1","arctic-comprehension","","","","","","","","","","","","","{""Q0"":""Robert""}","","","",""
"survey-multi-choice","70","1980019","0.0-7.0-2.0-3.0-0.6","835cc517d89ccca6e45d771729fae477d2e7b81e3bfc6296159865c804a6985c","swim","arctic","4428","","<b>How did the narrator&#39;s encounter with the polar bears end?</b>","","","","1","arctic-comprehension","","","","","","","","","","","","","{""Q0"":""The bears walked back to their den.""}","","","",""
"survey-multi-choice","71","1989270","0.0-7.0-2.0-3.0-0.7","835cc517d89ccca6e45d771729fae477d2e7b81e3bfc6296159865c804a6985c","swim","arctic","8988","","<b>What did the narrator do for leisure while in her tent?</b>","","","","1","arctic-comprehension","","","","","","","","","","","","","{""Q0"":""Read""}","","","",""
"survey-multi-choice","72","1999936","0.0-7.0-2.0-3.0-0.8","835cc517d89ccca6e45d771729fae477d2e7b81e3bfc6296159865c804a6985c","swim","arctic","10406","","<b>What were the weather conditions in the Arctic like the winter of the narrator&#39;s expedition?</b>","","","","1","arctic-comprehension","","","","","","","","","","","","","{""Q0"":""There were more storms than any other winter in recorded history.""}","","","",""
"survey-multi-choice","73","2004914","0.0-7.0-2.0-3.0-0.9","835cc517d89ccca6e45d771729fae477d2e7b81e3bfc6296159865c804a6985c","swim","arctic","4712","","<b>What was the objective of the narrator&#39;s expedition?</b>","","","","1","arctic-comprehension","","","","","","","","","","","","","{""Q0"":""Dogsled across Arctic America""}","","","",""
"html-button-response","74","2006312","0.0-7.0-2.0-4.0","835cc517d89ccca6e45d771729fae477d2e7b81e3bfc6296159865c804a6985c","swim","arctic","1140","","<p>Thank you for your responses.</p><p>You will now answer some questions about your impressions of the story.</p>","0","","","","","","","","","","","","","","","","","","","","",""
"html-button-response","75","2011828","0.0-7.0-2.0-5.0-0.0","835cc517d89ccca6e45d771729fae477d2e7b81e3bfc6296159865c804a6985c","swim","arctic","5514","","E8","4","","","","arctic-engagement","","","","","","","","","","","","","","5","enjoyment","",""
"html-button-response","76","2014286","0.0-7.0-2.0-5.0-0.1","835cc517d89ccca6e45d771729fae477d2e7b81e3bfc6296159865c804a6985c","swim","arctic","2203","","A4","0","","","","arctic-engagement","","","","","","","","","","","","","","1","absorption","",""
"html-button-response","77","2017008","0.0-7.0-2.0-5.0-0.2","835cc517d89ccca6e45d771729fae477d2e7b81e3bfc6296159865c804a6985c","swim","arctic","2468","","EE5","4","","","","arctic-engagement","","","","","","","","","","","","","","5","emo-engage","",""
"html-button-response","78","2019469","0.0-7.0-2.0-5.0-0.3","835cc517d89ccca6e45d771729fae477d2e7b81e3bfc6296159865c804a6985c","swim","arctic","2207","","MS1","4","","","","arctic-engagement","","","","","","","","","","","","","","5","mental-sim","",""
"html-button-response","79","2022449","0.0-7.0-2.0-5.0-0.4","835cc517d89ccca6e45d771729fae477d2e7b81e3bfc6296159865c804a6985c","swim","arctic","2719","","A2","6","","","","arctic-engagement","","","","","","","","","","","","","","7","absorption","",""
"html-button-response","80","2028997","0.0-7.0-2.0-5.0-0.5","835cc517d89ccca6e45d771729fae477d2e7b81e3bfc6296159865c804a6985c","swim","arctic","6285","","EE1","2","","","","arctic-engagement","","","","","","","","","","","","","","3","emo-engage","",""
"html-button-response","81","2034630","0.0-7.0-2.0-5.0-0.6","835cc517d89ccca6e45d771729fae477d2e7b81e3bfc6296159865c804a6985c","swim","arctic","5378","","EE3","1","","","","arctic-engagement","","","","","","","","","","","","","","2","emo-engage","",""
"html-button-response","82","2041870","0.0-7.0-2.0-5.0-0.7","835cc517d89ccca6e45d771729fae477d2e7b81e3bfc6296159865c804a6985c","swim","arctic","6977","","MS2","2","","","","arctic-engagement","","","","","","","","","","","","","","3","mental-sim","",""
"html-button-response","83","2044031","0.0-7.0-2.0-5.0-0.8","835cc517d89ccca6e45d771729fae477d2e7b81e3bfc6296159865c804a6985c","swim","arctic","1899","","E7","5","","","","arctic-engagement","","","","","","","","","","","","","","6","enjoyment","",""
"html-button-response","84","2045773","0.0-7.0-2.0-5.0-0.9","835cc517d89ccca6e45d771729fae477d2e7b81e3bfc6296159865c804a6985c","swim","arctic","1484","","EE2","4","","","","arctic-engagement","","","","","","","","","","","","","","5","emo-engage","",""
"html-button-response","85","2048366","0.0-7.0-2.0-5.0-0.10","835cc517d89ccca6e45d771729fae477d2e7b81e3bfc6296159865c804a6985c","swim","arctic","2322","","E6","4","","","","arctic-engagement","","","","","","","","","","","","","","5","enjoyment","",""
"html-button-response","86","2050227","0.0-7.0-2.0-5.0-0.11","835cc517d89ccca6e45d771729fae477d2e7b81e3bfc6296159865c804a6985c","swim","arctic","1597","","E10","6","","","","arctic-engagement","","","","","","","","","","","","","","7","enjoyment","",""
"html-button-response","87","2052066","0.0-7.0-2.0-5.0-0.12","835cc517d89ccca6e45d771729fae477d2e7b81e3bfc6296159865c804a6985c","swim","arctic","1584","","A3","2","","","","arctic-engagement","","","","","","","","","","","","","","3","absorption","",""
"html-button-response","88","2053799","0.0-7.0-2.0-5.0-0.13","835cc517d89ccca6e45d771729fae477d2e7b81e3bfc6296159865c804a6985c","swim","arctic","1477","","E1","4","","","","arctic-engagement","","","","","","","","","","","","","","5","enjoyment","",""
"html-button-response","89","2057419","0.0-7.0-2.0-5.0-0.14","835cc517d89ccca6e45d771729fae477d2e7b81e3bfc6296159865c804a6985c","swim","arctic","3366","","EE4","4","","","","arctic-engagement","","","","","","","","","","","","","","5","emo-engage","",""
"html-button-response","90","2061288","0.0-7.0-2.0-5.0-0.15","835cc517d89ccca6e45d771729fae477d2e7b81e3bfc6296159865c804a6985c","swim","arctic","3606","","A5","1","","","","arctic-engagement","","","","","","","","","","","","","","2","absorption","",""
"html-button-response","91","2063900","0.0-7.0-2.0-5.0-0.16","835cc517d89ccca6e45d771729fae477d2e7b81e3bfc6296159865c804a6985c","swim","arctic","2356","","A1","0","","","","arctic-engagement","","","","","","","","","","","","","","1","absorption","",""
"html-button-response","92","2067196","0.0-7.0-2.0-5.0-0.17","835cc517d89ccca6e45d771729fae477d2e7b81e3bfc6296159865c804a6985c","swim","arctic","3034","","MS3","4","","","","arctic-engagement","","","","","","","","","","","","","","5","mental-sim","",""
"html-button-response","93","2068768","0.0-8.0","835cc517d89ccca6e45d771729fae477d2e7b81e3bfc6296159865c804a6985c","swim","arctic","1318","","<p>Thank you for your responses.</p><p>You will now answer some demographic, hearing, and general health questions.</p>","0","","","","","","","","","","","","","","","","","","","","",""
"survey-multi-choice","94","2072332","0.0-9.0-0.0","835cc517d89ccca6e45d771729fae477d2e7b81e3bfc6296159865c804a6985c","swim","arctic","3561","","","","","","","survey","","","","","","","","","","","","","{""Q0"":""Chrome""}","","","browser",""
"survey-text","95","2074488","0.0-9.0-1.0","835cc517d89ccca6e45d771729fae477d2e7b81e3bfc6296159865c804a6985c","swim","arctic","1890.7999999523163","","","","","","","survey","","","","","","","","","","","","","{""AGE"":""33""}","","","age","33"
"survey-multi-choice","96","2075807","0.0-9.0-2.0","835cc517d89ccca6e45d771729fae477d2e7b81e3bfc6296159865c804a6985c","swim","arctic","1063","","","","","","","survey","","","","","","","","","","","","","{""Q0"":""Female""}","","","gender","Female"
"survey-multi-choice","97","2078839","0.0-9.0-4.0","835cc517d89ccca6e45d771729fae477d2e7b81e3bfc6296159865c804a6985c","swim","arctic","2776","","","","","","","survey","","","","","","","","","","","","","{""Q0"":""Right""}","","","handedness","Right"
"survey-multi-choice","98","2080622","0.0-9.0-5.0","835cc517d89ccca6e45d771729fae477d2e7b81e3bfc6296159865c804a6985c","swim","arctic","1515","","","","","","","survey","","","","","","","","","","","","","{""Q0"":""Postgraduate Degree""}","","","education","Postgraduate Degree"
"survey-text","99","2084141","0.0-10.0-0.0","835cc517d89ccca6e45d771729fae477d2e7b81e3bfc6296159865c804a6985c","swim","arctic","3257.7000000476837","","","","","","","survey","","","","","","","","","","","","","{""L1"":""English""}","","","first-language","English"
"survey-text","100","2091567","0.0-10.0-1.0","835cc517d89ccca6e45d771729fae477d2e7b81e3bfc6296159865c804a6985c","swim","arctic","7158.200000047684","","","","","","","survey","","","","","","","","","","","","","{""L2name"":""Japanese"",""L2fluency"":""4"",""L3name"":"""",""L3fluency"":"""",""L4name"":"""",""L4fluency"":""""}","","","additional-languages","{""L2name"":""Japanese"",""L2fluency"":""4"",""L3name"":"""",""L3fluency"":"""",""L4name"":"""",""L4fluency"":""""}"
"survey-multi-choice","101","2094234","0.0-10.0-2.0","835cc517d89ccca6e45d771729fae477d2e7b81e3bfc6296159865c804a6985c","swim","arctic","2402","","","","","","","survey","","","","","","","","","","","","","{""Q0"":""No""}","","","hearing-aid","No"
"survey-multi-choice","102","2096694","0.0-10.0-3.0","835cc517d89ccca6e45d771729fae477d2e7b81e3bfc6296159865c804a6985c","swim","arctic","2203","","","","","","","survey","","","","","","","","","","","","","{""Q0"":""Never""}","","","ringing-ears","Never"
"survey-multi-choice","103","2098774","0.0-10.0-5.0","835cc517d89ccca6e45d771729fae477d2e7b81e3bfc6296159865c804a6985c","swim","arctic","1820","","","","","","","survey","","","","","","","","","","","","","{""Q0"":""No""}","","","neuro-disease","No"
"survey-multi-choice","104","2101963","0.0-10.0-7.0","835cc517d89ccca6e45d771729fae477d2e7b81e3bfc6296159865c804a6985c","swim","arctic","2931","","","","","","","survey","","","","","","","","","","","","","{""Q0"":""No""}","","","take-meds","No"
"survey-text","105","2104354","0.0-10.0-9.0","835cc517d89ccca6e45d771729fae477d2e7b81e3bfc6296159865c804a6985c","swim","arctic","2118.899999976158","","","","","","","survey","","","","","","","","","","","","","{""HC"":""""}","","","health-concerns",""
"html-button-response","106","2107282","0.0-11.0-0.0","835cc517d89ccca6e45d771729fae477d2e7b81e3bfc6296159865c804a6985c","swim","arctic","2669","","<p>How would you describe your musical skills/experiences?</p>","1","","","","survey","","","","","","","","","","","","","","","","music-skill","2"
"survey-multi-choice","107","2109653","0.0-11.0-1.0","835cc517d89ccca6e45d771729fae477d2e7b81e3bfc6296159865c804a6985c","swim","arctic","2116","","","","","","","survey","","","","","","","","","","","","","{""Q0"":""Yes""}","","","music-instrument","Yes"
"survey-text","108","2111833","0.0-11.0-2.0-0.0","835cc517d89ccca6e45d771729fae477d2e7b81e3bfc6296159865c804a6985c","swim","arctic","1907.8999999761581","","","","","","","survey","","","","","","","","","","","","","{""MEXP"":""1""}","","","music-training-yrs","1"
"html-button-response","109","2113965","0.0-12.0-0.0","835cc517d89ccca6e45d771729fae477d2e7b81e3bfc6296159865c804a6985c","swim","arctic","1872","","<p>How would you describe your general hearing abilities?</p>","5","","","","survey","","","","","","","","","","","","","","","","ssq-01","6"
"html-button-response","110","2120737","0.0-12.0-1.0","835cc517d89ccca6e45d771729fae477d2e7b81e3bfc6296159865c804a6985c","swim","arctic","6505","","<p>When you talk with someone at a place that strongly reverberates/echoes (e.g., in a church or train station),</br>can you understand what the person says?</p>","9","","","","survey","","","","","","","","","","","","","","","","ssq-02","9"
"html-button-response","111","2124947","0.0-12.0-2.0","835cc517d89ccca6e45d771729fae477d2e7b81e3bfc6296159865c804a6985c","swim","arctic","3945","","<p>When you are with a group (~5 people) in a lively restaurant, can you follow the group's conversation?</p>","10","","","","survey","","","","","","","","","","","","","","","","ssq-03","10"
"html-button-response","112","2128526","0.0-12.0-3.0","835cc517d89ccca6e45d771729fae477d2e7b81e3bfc6296159865c804a6985c","swim","arctic","3319","","<p>Based on the sound of a bus or truck, can you tell whether it is moving towards or away from you?</p>","9","","","","survey","","","","","","","","","","","","","","","","ssq-04","9"
"html-button-response","113","2132979","0.0-12.0-4.0","835cc517d89ccca6e45d771729fae477d2e7b81e3bfc6296159865c804a6985c","swim","arctic","4194","","<p>When you are in an unknown environment, can you tell from which direction a brief sound originates?</p>","9","","","","survey","","","","","","","","","","","","","","","","ssq-05","9"
"html-button-response","114","2135670","0.0-12.0-5.0","835cc517d89ccca6e45d771729fae477d2e7b81e3bfc6296159865c804a6985c","swim","arctic","2432","","<p>Are you able to ignore distracting sounds when you concentrate on a specific aspect of your acoustic surrounding?</p>","10","","","","survey","","","","","","","","","","","","","","","","ssq-06","10"
"fullscreen","115","2136936","0.0-13.0","835cc517d89ccca6e45d771729fae477d2e7b81e3bfc6296159865c804a6985c","swim","arctic","","","","","","","","","true","","","","","","","","","","","","","","","",""
