"trial_type","trial_index","time_elapsed","internal_node_id","ParticipantID","firstStory","scramStory","rt","url","stimulus","button_pressed","key_press","correctRESP","correct","designation","success","letterStim","letterType","ONSET","TIMEOUT","CONDITION","Participant","ONSET_ACTUAL","RT","RESP","ACC","STORY","responses","response","type","surveyQuestion","QRESP"
"pavlovia","0","94","0.0-0.0","c85c87690290b8e6a451faf397cf56f7e10f0a68b173aa4ba9fb9aa06f75208d","swim","swim","","","","","","","","","","","","","","","","","","","","","","","","",""
"external-html","1","707664","0.0-1.0","c85c87690290b8e6a451faf397cf56f7e10f0a68b173aa4ba9fb9aa06f75208d","swim","swim","706583","consent/consent_updated.html","","","","","","","","","","","","","","","","","","","","","","",""
"html-button-response","2","957327","0.0-2.0-0.0","c85c87690290b8e6a451faf397cf56f7e10f0a68b173aa4ba9fb9aa06f75208d","swim","swim","249659","","<p>Before we begin the main task, you will complete a short volume calibration and headphone check.</p><p>Please make sure you are in a quiet listening environment, that you are wearing headphones, and that your computer's volume is turned on.<p></p>","0","","","","","","","","","","","","","","","","","","","","",""
"html-button-response","3","963550","0.0-2.0-1.0","c85c87690290b8e6a451faf397cf56f7e10f0a68b173aa4ba9fb9aa06f75208d","swim","swim","5969","","<p>The volume calibration will be first.</p><p>You will hear a thirty-second noise. Please adjust your computer's volume so that this noise is being presented at a comfortable level.<p></p>","0","","","","","","","","","","","","","","","","","","","","",""
"audio-button-response","4","968299","0.0-2.0-2.0","c85c87690290b8e6a451faf397cf56f7e10f0a68b173aa4ba9fb9aa06f75208d","swim","swim","4409","","audio/volumetest.mp3","0","","","","","","","","","","","","","","","","","","","","",""
"html-keyboard-response","5","973756","0.0-3.0-0.0","c85c87690290b8e6a451faf397cf56f7e10f0a68b173aa4ba9fb9aa06f75208d","swim","swim","5456","","<p>You will now complete a short headphone check.</p><p>On each trial, you will hear three tones. One of these tones will be quieter than the others. Your task is to identify whether the quiet tone occurred first, second, or third.</p><p>There are six trials in total.<p></p><p></p>(Press SPACEBAR to begin)","","32","","","","","","","","","","","","","","","","","","","",""
"html-keyboard-response","6","974522","0.0-3.0-1.0-0.0","c85c87690290b8e6a451faf397cf56f7e10f0a68b173aa4ba9fb9aa06f75208d","swim","swim","null","","<div style=""font-size:60px;"">+</div>","","null","","","","","","","","","","","","","","","","","","","",""
"audio-button-response","7","979724","0.0-3.0-1.0-1.0","c85c87690290b8e6a451faf397cf56f7e10f0a68b173aa4ba9fb9aa06f75208d","swim","swim","5198","","audio/t2_1.mp3","0","","1","0","headphone-test","","","","","","","","","","","","","","","","",""
"html-keyboard-response","8","980241","0.0-3.0-1.0-2.0","c85c87690290b8e6a451faf397cf56f7e10f0a68b173aa4ba9fb9aa06f75208d","swim","swim","null","","<p>Incorrect</p>","","null","","","","","","","","","","","","","","","","","","","",""
"html-keyboard-response","9","980752","0.0-3.0-1.0-0.1","c85c87690290b8e6a451faf397cf56f7e10f0a68b173aa4ba9fb9aa06f75208d","swim","swim","null","","<div style=""font-size:60px;"">+</div>","","null","","","","","","","","","","","","","","","","","","","",""
"audio-button-response","10","986477","0.0-3.0-1.0-1.1","c85c87690290b8e6a451faf397cf56f7e10f0a68b173aa4ba9fb9aa06f75208d","swim","swim","5724","","audio/t2_2.mp3","1","","1","1","headphone-test","","","","","","","","","","","","","","","","",""
"html-keyboard-response","11","986991","0.0-3.0-1.0-2.1","c85c87690290b8e6a451faf397cf56f7e10f0a68b173aa4ba9fb9aa06f75208d","swim","swim","null","","<p>Correct</p>","","null","","","","","","","","","","","","","","","","","","","",""
"html-keyboard-response","12","987506","0.0-3.0-1.0-0.2","c85c87690290b8e6a451faf397cf56f7e10f0a68b173aa4ba9fb9aa06f75208d","swim","swim","null","","<div style=""font-size:60px;"">+</div>","","null","","","","","","","","","","","","","","","","","","","",""
"audio-button-response","13","992846","0.0-3.0-1.0-1.2","c85c87690290b8e6a451faf397cf56f7e10f0a68b173aa4ba9fb9aa06f75208d","swim","swim","5339","","audio/t3_2.mp3","2","","2","1","headphone-test","","","","","","","","","","","","","","","","",""
"html-keyboard-response","14","993355","0.0-3.0-1.0-2.2","c85c87690290b8e6a451faf397cf56f7e10f0a68b173aa4ba9fb9aa06f75208d","swim","swim","null","","<p>Correct</p>","","null","","","","","","","","","","","","","","","","","","","",""
"html-keyboard-response","15","993866","0.0-3.0-1.0-0.3","c85c87690290b8e6a451faf397cf56f7e10f0a68b173aa4ba9fb9aa06f75208d","swim","swim","null","","<div style=""font-size:60px;"">+</div>","","null","","","","","","","","","","","","","","","","","","","",""
"audio-button-response","16","999548","0.0-3.0-1.0-1.3","c85c87690290b8e6a451faf397cf56f7e10f0a68b173aa4ba9fb9aa06f75208d","swim","swim","5680","","audio/t1_1.mp3","0","","0","1","headphone-test","","","","","","","","","","","","","","","","",""
"html-keyboard-response","17","1000063","0.0-3.0-1.0-2.3","c85c87690290b8e6a451faf397cf56f7e10f0a68b173aa4ba9fb9aa06f75208d","swim","swim","null","","<p>Correct</p>","","null","","","","","","","","","","","","","","","","","","","",""
"html-keyboard-response","18","1000579","0.0-3.0-1.0-0.4","c85c87690290b8e6a451faf397cf56f7e10f0a68b173aa4ba9fb9aa06f75208d","swim","swim","null","","<div style=""font-size:60px;"">+</div>","","null","","","","","","","","","","","","","","","","","","","",""
"audio-button-response","19","1005982","0.0-3.0-1.0-1.4","c85c87690290b8e6a451faf397cf56f7e10f0a68b173aa4ba9fb9aa06f75208d","swim","swim","5401","","audio/t3_1.mp3","2","","2","1","headphone-test","","","","","","","","","","","","","","","","",""
"html-keyboard-response","20","1006497","0.0-3.0-1.0-2.4","c85c87690290b8e6a451faf397cf56f7e10f0a68b173aa4ba9fb9aa06f75208d","swim","swim","null","","<p>Correct</p>","","null","","","","","","","","","","","","","","","","","","","",""
"html-keyboard-response","21","1007007","0.0-3.0-1.0-0.5","c85c87690290b8e6a451faf397cf56f7e10f0a68b173aa4ba9fb9aa06f75208d","swim","swim","null","","<div style=""font-size:60px;"">+</div>","","null","","","","","","","","","","","","","","","","","","","",""
"audio-button-response","22","1012185","0.0-3.0-1.0-1.5","c85c87690290b8e6a451faf397cf56f7e10f0a68b173aa4ba9fb9aa06f75208d","swim","swim","5177","","audio/t1_2.mp3","0","","0","1","headphone-test","","","","","","","","","","","","","","","","",""
"html-keyboard-response","23","1012694","0.0-3.0-1.0-2.5","c85c87690290b8e6a451faf397cf56f7e10f0a68b173aa4ba9fb9aa06f75208d","swim","swim","null","","<p>Correct</p>","","null","","","","","","","","","","","","","","","","","","","",""
"fullscreen","24","1389451","0.0-4.0","c85c87690290b8e6a451faf397cf56f7e10f0a68b173aa4ba9fb9aa06f75208d","swim","swim","","","","","","","","","true","","","","","","","","","","","","","","","",""
"html-button-response","25","1403391","0.0-5.0-0.0","c85c87690290b8e6a451faf397cf56f7e10f0a68b173aa4ba9fb9aa06f75208d","swim","swim","13938","","<p>There are two blocks to this experiment.</p><p>In each block, you will hear a ~13.5 minute story. One of the stories will be scrambled. Please listen carefully to both stories and understand them as best you can.</p><p>After each story, you will be asked some questions to assess your comprehension.</p>","0","","","","","","","","","","","","","","","","","","","","",""
"html-button-response","26","1430565","0.0-5.0-1.0","c85c87690290b8e6a451faf397cf56f7e10f0a68b173aa4ba9fb9aa06f75208d","swim","swim","27173","","<p>During each story, there will be an additional task.</p><p>A letter will occasionally appear on the screen.</br>Your job is to - as quickly as you can - decide whether the letter is lowercase or uppercase and press one of two keys on the keyboard:</p><p>If the letter is <b>lowercase</b>, press key &lt;<b>x</b>&gt;.</p><p>If the letter is <b>uppercase</b>, press key &lt;<b>m</b>&gt;.</p>","0","","","","","","","","","","","","","","","","","","","","",""
"html-keyboard-response","27","1440569","0.0-5.0-2.0","c85c87690290b8e6a451faf397cf56f7e10f0a68b173aa4ba9fb9aa06f75208d","swim","swim","10003","","<p>Because we want your responses to be as quick as possible, please keep your index fingers over the keys while listening.</p><p>Each block lasts about 20 minutes.</p><p><b>Press &lt;x&gt; or &lt;m&gt; to start the first block!</b></p>","","88","","","","","","","","","","","","","","","","","","","",""
"html-keyboard-response","28","1441071","0.0-7.0-0.0-0.0","c85c87690290b8e6a451faf397cf56f7e10f0a68b173aa4ba9fb9aa06f75208d","swim","swim","null","","<div style=""font-size:60px;"" tabindex=""0"">+</div>","","null","","","","","","","","","","","","","","","","","","","",""
"dual-task","null","null","null","","swim","swim","1423.0999999046326","","n","null","88","88","1","swim-dual-task","","n","lowercase","18000","0","6","c85c87690290b8e6a451faf397cf56f7e10f0a68b173aa4ba9fb9aa06f75208d","18012.200000047684","1423.0999999046326","88","1","swim","","","","",""
"dual-task","null","null","null","","swim","swim","790.5999999046326","","f","null","88","88","1","swim-dual-task","","f","lowercase","30000","0","6","c85c87690290b8e6a451faf397cf56f7e10f0a68b173aa4ba9fb9aa06f75208d","30013.700000047684","790.5999999046326","88","1","swim","","","","",""
"dual-task","null","null","null","","swim","swim","810.4000000953674","","h","null","88","88","1","swim-dual-task","","h","lowercase","40000","0","6","c85c87690290b8e6a451faf397cf56f7e10f0a68b173aa4ba9fb9aa06f75208d","39999.700000047684","810.4000000953674","88","1","swim","","","","",""
"dual-task","null","null","null","","swim","swim","738.4000000953674","","f","null","88","88","1","swim-dual-task","","f","lowercase","54000","0","6","c85c87690290b8e6a451faf397cf56f7e10f0a68b173aa4ba9fb9aa06f75208d","54001.299999952316","738.4000000953674","88","1","swim","","","","",""
"dual-task","null","null","null","","swim","swim","818.2999999523163","","Q","null","77","77","1","swim-dual-task","","Q","uppercase","62000","0","6","c85c87690290b8e6a451faf397cf56f7e10f0a68b173aa4ba9fb9aa06f75208d","62011.59999990463","818.2999999523163","77","1","swim","","","","",""
"dual-task","null","null","null","","swim","swim","1084.5999999046326","","h","null","88","88","1","swim-dual-task","","h","lowercase","76000","0","6","c85c87690290b8e6a451faf397cf56f7e10f0a68b173aa4ba9fb9aa06f75208d","76007","1084.5999999046326","88","1","swim","","","","",""
"dual-task","null","null","null","","swim","swim","676.2999999523163","","b","null","88","88","1","swim-dual-task","","b","lowercase","86000","0","6","c85c87690290b8e6a451faf397cf56f7e10f0a68b173aa4ba9fb9aa06f75208d","86000.5","676.2999999523163","88","1","swim","","","","",""
"dual-task","null","null","null","","swim","swim","992","","f","null","88","88","1","swim-dual-task","","f","lowercase","100000","0","6","c85c87690290b8e6a451faf397cf56f7e10f0a68b173aa4ba9fb9aa06f75208d","100003","992","88","1","swim","","","","",""
"dual-task","null","null","null","","swim","swim","653.5","","R","null","77","77","1","swim-dual-task","","R","uppercase","106000","0","6","c85c87690290b8e6a451faf397cf56f7e10f0a68b173aa4ba9fb9aa06f75208d","106010.20000004768","653.5","77","1","swim","","","","",""
"dual-task","null","null","null","","swim","swim","626.7000000476837","","q","null","88","88","1","swim-dual-task","","q","lowercase","114000","0","6","c85c87690290b8e6a451faf397cf56f7e10f0a68b173aa4ba9fb9aa06f75208d","114012.70000004768","626.7000000476837","88","1","swim","","","","",""
"dual-task","null","null","null","","swim","swim","678.7999999523163","","a","null","88","88","1","swim-dual-task","","a","lowercase","128000","0","6","c85c87690290b8e6a451faf397cf56f7e10f0a68b173aa4ba9fb9aa06f75208d","128014.79999995232","678.7999999523163","88","1","swim","","","","",""
"dual-task","null","null","null","","swim","swim","1237.0999999046326","","H","null","77","77","1","swim-dual-task","","H","uppercase","140000","0","6","c85c87690290b8e6a451faf397cf56f7e10f0a68b173aa4ba9fb9aa06f75208d","140003.20000004768","1237.0999999046326","77","1","swim","","","","",""
"dual-task","null","null","null","","swim","swim","1539.4000000953674","","B","null","77","77","1","swim-dual-task","","B","uppercase","152000","0","6","c85c87690290b8e6a451faf397cf56f7e10f0a68b173aa4ba9fb9aa06f75208d","152009.5","1539.4000000953674","77","1","swim","","","","",""
"dual-task","null","null","null","","swim","swim","619","","d","null","88","88","1","swim-dual-task","","d","lowercase","164000","0","6","c85c87690290b8e6a451faf397cf56f7e10f0a68b173aa4ba9fb9aa06f75208d","164005.70000004768","619","88","1","swim","","","","",""
"dual-task","null","null","null","","swim","swim","631.8000001907349","","Q","null","77","77","1","swim-dual-task","","Q","uppercase","172000","0","6","c85c87690290b8e6a451faf397cf56f7e10f0a68b173aa4ba9fb9aa06f75208d","172003.90000009537","631.8000001907349","77","1","swim","","","","",""
"dual-task","null","null","null","","swim","swim","468.80000019073486","","F","null","77","77","1","swim-dual-task","","F","uppercase","184000","0","6","c85c87690290b8e6a451faf397cf56f7e10f0a68b173aa4ba9fb9aa06f75208d","184001.40000009537","468.80000019073486","77","1","swim","","","","",""
"dual-task","null","null","null","","swim","swim","525.8000001907349","","D","null","77","77","1","swim-dual-task","","D","uppercase","194000","0","6","c85c87690290b8e6a451faf397cf56f7e10f0a68b173aa4ba9fb9aa06f75208d","194011.90000009537","525.8000001907349","77","1","swim","","","","",""
"dual-task","null","null","null","","swim","swim","587.1000001430511","","D","null","77","77","1","swim-dual-task","","D","uppercase","206000","0","6","c85c87690290b8e6a451faf397cf56f7e10f0a68b173aa4ba9fb9aa06f75208d","206006.5","587.1000001430511","77","1","swim","","","","",""
"dual-task","null","null","null","","swim","swim","736.8000001907349","","e","null","88","88","1","swim-dual-task","","e","lowercase","220000","0","6","c85c87690290b8e6a451faf397cf56f7e10f0a68b173aa4ba9fb9aa06f75208d","220013.59999990463","736.8000001907349","88","1","swim","","","","",""
"dual-task","null","null","null","","swim","swim","862.6000001430511","","g","null","88","88","1","swim-dual-task","","g","lowercase","232000","0","6","c85c87690290b8e6a451faf397cf56f7e10f0a68b173aa4ba9fb9aa06f75208d","232002.90000009537","862.6000001430511","88","1","swim","","","","",""
"dual-task","null","null","null","","swim","swim","1586.6000001430511","","t","null","88","88","1","swim-dual-task","","t","lowercase","242000","0","6","c85c87690290b8e6a451faf397cf56f7e10f0a68b173aa4ba9fb9aa06f75208d","242013.29999995232","1586.6000001430511","88","1","swim","","","","",""
"dual-task","null","null","null","","swim","swim","655","","H","null","77","77","1","swim-dual-task","","H","uppercase","256000","0","6","c85c87690290b8e6a451faf397cf56f7e10f0a68b173aa4ba9fb9aa06f75208d","256008.59999990463","655","77","1","swim","","","","",""
"dual-task","null","null","null","","swim","swim","801.8999998569489","","B","null","77","77","1","swim-dual-task","","B","uppercase","262000","0","6","c85c87690290b8e6a451faf397cf56f7e10f0a68b173aa4ba9fb9aa06f75208d","262004.79999995232","801.8999998569489","77","1","swim","","","","",""
"dual-task","null","null","null","","swim","swim","790.3999998569489","","G","null","77","77","1","swim-dual-task","","G","uppercase","272000","0","6","c85c87690290b8e6a451faf397cf56f7e10f0a68b173aa4ba9fb9aa06f75208d","272005.59999990463","790.3999998569489","77","1","swim","","","","",""
"dual-task","null","null","null","","swim","swim","824.7000000476837","","n","null","88","88","1","swim-dual-task","","n","lowercase","280000","0","6","c85c87690290b8e6a451faf397cf56f7e10f0a68b173aa4ba9fb9aa06f75208d","280011.2000000477","824.7000000476837","88","1","swim","","","","",""
"dual-task","null","null","null","","swim","swim","1099.0999999046326","","r","null","88","88","1","swim-dual-task","","r","lowercase","288000","0","6","c85c87690290b8e6a451faf397cf56f7e10f0a68b173aa4ba9fb9aa06f75208d","288011.7000000477","1099.0999999046326","88","1","swim","","","","",""
"dual-task","null","null","null","","swim","swim","1073.5999999046326","","t","null","88","88","1","swim-dual-task","","t","lowercase","300000","0","6","c85c87690290b8e6a451faf397cf56f7e10f0a68b173aa4ba9fb9aa06f75208d","300015.2999999523","1073.5999999046326","88","1","swim","","","","",""
"dual-task","null","null","null","","swim","swim","1382.8000001907349","","h","null","88","88","1","swim-dual-task","","h","lowercase","308000","0","6","c85c87690290b8e6a451faf397cf56f7e10f0a68b173aa4ba9fb9aa06f75208d","308000.5","1382.8000001907349","88","1","swim","","","","",""
"dual-task","null","null","null","","swim","swim","1345.5999999046326","","T","null","77","77","1","swim-dual-task","","T","uppercase","314000","0","6","c85c87690290b8e6a451faf397cf56f7e10f0a68b173aa4ba9fb9aa06f75208d","314002.5","1345.5999999046326","77","1","swim","","","","",""
"dual-task","null","null","null","","swim","swim","593.1999998092651","","q","null","88","88","1","swim-dual-task","","q","lowercase","324000","0","6","c85c87690290b8e6a451faf397cf56f7e10f0a68b173aa4ba9fb9aa06f75208d","324011.7999999523","593.1999998092651","88","1","swim","","","","",""
"dual-task","null","null","null","","swim","swim","757.5","","N","null","77","77","1","swim-dual-task","","N","uppercase","334000","0","6","c85c87690290b8e6a451faf397cf56f7e10f0a68b173aa4ba9fb9aa06f75208d","334009.5","757.5","77","1","swim","","","","",""
"dual-task","null","null","null","","swim","swim","1021.2000000476837","","e","null","88","88","1","swim-dual-task","","e","lowercase","342000","0","6","c85c87690290b8e6a451faf397cf56f7e10f0a68b173aa4ba9fb9aa06f75208d","342003.7000000477","1021.2000000476837","88","1","swim","","","","",""
"dual-task","null","null","null","","swim","swim","556.1000001430511","","g","null","77","88","0","swim-dual-task","","g","lowercase","350000","0","6","c85c87690290b8e6a451faf397cf56f7e10f0a68b173aa4ba9fb9aa06f75208d","350013","556.1000001430511","77","0","swim","","","","",""
"dual-task","null","null","null","","swim","swim","390.19999980926514","","g","null","88","88","1","swim-dual-task","","g","lowercase","358000","0","6","c85c87690290b8e6a451faf397cf56f7e10f0a68b173aa4ba9fb9aa06f75208d","358011.90000009537","390.19999980926514","88","1","swim","","","","",""
"dual-task","null","null","null","","swim","swim","938.4000000953674","","D","null","77","77","1","swim-dual-task","","D","uppercase","368000","0","6","c85c87690290b8e6a451faf397cf56f7e10f0a68b173aa4ba9fb9aa06f75208d","368013","938.4000000953674","77","1","swim","","","","",""
"dual-task","null","null","null","","swim","swim","1102.9000000953674","","B","null","77","77","1","swim-dual-task","","B","uppercase","376000","0","6","c85c87690290b8e6a451faf397cf56f7e10f0a68b173aa4ba9fb9aa06f75208d","376011.59999990463","1102.9000000953674","77","1","swim","","","","",""
"dual-task","null","null","null","","swim","swim","703.1999998092651","","n","null","88","88","1","swim-dual-task","","n","lowercase","386000","0","6","c85c87690290b8e6a451faf397cf56f7e10f0a68b173aa4ba9fb9aa06f75208d","386004","703.1999998092651","88","1","swim","","","","",""
"dual-task","null","null","null","","swim","swim","920.5999999046326","","n","null","88","88","1","swim-dual-task","","n","lowercase","396000","0","6","c85c87690290b8e6a451faf397cf56f7e10f0a68b173aa4ba9fb9aa06f75208d","396008.7999999523","920.5999999046326","88","1","swim","","","","",""
"dual-task","null","null","null","","swim","swim","784.7000000476837","","Q","null","77","77","1","swim-dual-task","","Q","uppercase","402000","0","6","c85c87690290b8e6a451faf397cf56f7e10f0a68b173aa4ba9fb9aa06f75208d","402013.7999999523","784.7000000476837","77","1","swim","","","","",""
"dual-task","null","null","null","","swim","swim","624.7999999523163","","A","null","77","77","1","swim-dual-task","","A","uppercase","414000","0","6","c85c87690290b8e6a451faf397cf56f7e10f0a68b173aa4ba9fb9aa06f75208d","414012.7000000477","624.7999999523163","77","1","swim","","","","",""
"dual-task","null","null","null","","swim","swim","737.5","","G","null","77","77","1","swim-dual-task","","G","uppercase","426000","0","6","c85c87690290b8e6a451faf397cf56f7e10f0a68b173aa4ba9fb9aa06f75208d","426015.5","737.5","77","1","swim","","","","",""
"dual-task","null","null","null","","swim","swim","906.5","","R","null","77","77","1","swim-dual-task","","R","uppercase","434000","0","6","c85c87690290b8e6a451faf397cf56f7e10f0a68b173aa4ba9fb9aa06f75208d","434000.5","906.5","77","1","swim","","","","",""
"dual-task","null","null","null","","swim","swim","634.4000000953674","","E","null","77","77","1","swim-dual-task","","E","uppercase","446000","0","6","c85c87690290b8e6a451faf397cf56f7e10f0a68b173aa4ba9fb9aa06f75208d","446004","634.4000000953674","77","1","swim","","","","",""
"dual-task","null","null","null","","swim","swim","677.2999999523163","","B","null","77","77","1","swim-dual-task","","B","uppercase","452000","0","6","c85c87690290b8e6a451faf397cf56f7e10f0a68b173aa4ba9fb9aa06f75208d","452011.2000000477","677.2999999523163","77","1","swim","","","","",""
"dual-task","null","null","null","","swim","swim","NA","","N","null","NA","77","0","swim-dual-task","","N","uppercase","462000","1","6","c85c87690290b8e6a451faf397cf56f7e10f0a68b173aa4ba9fb9aa06f75208d","462000.40000009537","NA","NA","0","swim","","","","",""
"dual-task","null","null","null","","swim","swim","740","","r","null","88","88","1","swim-dual-task","","r","lowercase","468000","0","6","c85c87690290b8e6a451faf397cf56f7e10f0a68b173aa4ba9fb9aa06f75208d","468000.09999990463","740","88","1","swim","","","","",""
"dual-task","null","null","null","","swim","swim","663.2000000476837","","r","null","88","88","1","swim-dual-task","","r","lowercase","480000","0","6","c85c87690290b8e6a451faf397cf56f7e10f0a68b173aa4ba9fb9aa06f75208d","480014.59999990463","663.2000000476837","88","1","swim","","","","",""
"dual-task","null","null","null","","swim","swim","991","","f","null","88","88","1","swim-dual-task","","f","lowercase","488000","0","6","c85c87690290b8e6a451faf397cf56f7e10f0a68b173aa4ba9fb9aa06f75208d","488006.2000000477","991","88","1","swim","","","","",""
"dual-task","null","null","null","","swim","swim","1085","","E","null","77","77","1","swim-dual-task","","E","uppercase","496000","0","6","c85c87690290b8e6a451faf397cf56f7e10f0a68b173aa4ba9fb9aa06f75208d","496007.7999999523","1085","77","1","swim","","","","",""
"dual-task","null","null","null","","swim","swim","1264.6000001430511","","N","null","77","77","1","swim-dual-task","","N","uppercase","504000","0","6","c85c87690290b8e6a451faf397cf56f7e10f0a68b173aa4ba9fb9aa06f75208d","504010.90000009537","1264.6000001430511","77","1","swim","","","","",""
"dual-task","null","null","null","","swim","swim","1384.2000000476837","","e","null","88","88","1","swim-dual-task","","e","lowercase","514000","0","6","c85c87690290b8e6a451faf397cf56f7e10f0a68b173aa4ba9fb9aa06f75208d","514002.59999990463","1384.2000000476837","88","1","swim","","","","",""
"dual-task","null","null","null","","swim","swim","547.7999999523163","","T","null","77","77","1","swim-dual-task","","T","uppercase","526000","0","6","c85c87690290b8e6a451faf397cf56f7e10f0a68b173aa4ba9fb9aa06f75208d","526001.2000000477","547.7999999523163","77","1","swim","","","","",""
"dual-task","null","null","null","","swim","swim","549.4000000953674","","a","null","88","88","1","swim-dual-task","","a","lowercase","534000","0","6","c85c87690290b8e6a451faf397cf56f7e10f0a68b173aa4ba9fb9aa06f75208d","534015.2000000477","549.4000000953674","88","1","swim","","","","",""
"dual-task","null","null","null","","swim","swim","1399.5","","q","null","88","88","1","swim-dual-task","","q","lowercase","546000","0","6","c85c87690290b8e6a451faf397cf56f7e10f0a68b173aa4ba9fb9aa06f75208d","546001.9000000954","1399.5","88","1","swim","","","","",""
"dual-task","null","null","null","","swim","swim","825.2000000476837","","H","null","77","77","1","swim-dual-task","","H","uppercase","558000","0","6","c85c87690290b8e6a451faf397cf56f7e10f0a68b173aa4ba9fb9aa06f75208d","558001.4000000954","825.2000000476837","77","1","swim","","","","",""
"dual-task","null","null","null","","swim","swim","1750.6999998092651","","b","null","88","88","1","swim-dual-task","","b","lowercase","570000","0","6","c85c87690290b8e6a451faf397cf56f7e10f0a68b173aa4ba9fb9aa06f75208d","570004.5999999046","1750.6999998092651","88","1","swim","","","","",""
"dual-task","null","null","null","","swim","swim","545.1000001430511","","T","null","77","77","1","swim-dual-task","","T","uppercase","582000","0","6","c85c87690290b8e6a451faf397cf56f7e10f0a68b173aa4ba9fb9aa06f75208d","582011.9000000954","545.1000001430511","77","1","swim","","","","",""
"dual-task","null","null","null","","swim","swim","573.5999999046326","","d","null","77","88","0","swim-dual-task","","d","lowercase","594000","0","6","c85c87690290b8e6a451faf397cf56f7e10f0a68b173aa4ba9fb9aa06f75208d","594002.2999999523","573.5999999046326","77","0","swim","","","","",""
"dual-task","null","null","null","","swim","swim","759.8999998569489","","a","null","88","88","1","swim-dual-task","","a","lowercase","602000","0","6","c85c87690290b8e6a451faf397cf56f7e10f0a68b173aa4ba9fb9aa06f75208d","602009.7999999523","759.8999998569489","88","1","swim","","","","",""
"dual-task","null","null","null","","swim","swim","774.8000001907349","","E","null","77","77","1","swim-dual-task","","E","uppercase","616000","0","6","c85c87690290b8e6a451faf397cf56f7e10f0a68b173aa4ba9fb9aa06f75208d","616015.0999999046","774.8000001907349","77","1","swim","","","","",""
"dual-task","null","null","null","","swim","swim","1108.2999999523163","","A","null","88","77","0","swim-dual-task","","A","uppercase","622000","0","6","c85c87690290b8e6a451faf397cf56f7e10f0a68b173aa4ba9fb9aa06f75208d","622015.7999999523","1108.2999999523163","88","0","swim","","","","",""
"dual-task","null","null","null","","swim","swim","804.9000000953674","","h","null","88","88","1","swim-dual-task","","h","lowercase","636000","0","6","c85c87690290b8e6a451faf397cf56f7e10f0a68b173aa4ba9fb9aa06f75208d","636004.9000000954","804.9000000953674","88","1","swim","","","","",""
"dual-task","null","null","null","","swim","swim","752.5999999046326","","r","null","88","88","1","swim-dual-task","","r","lowercase","644000","0","6","c85c87690290b8e6a451faf397cf56f7e10f0a68b173aa4ba9fb9aa06f75208d","644003.9000000954","752.5999999046326","88","1","swim","","","","",""
"dual-task","null","null","null","","swim","swim","1273.5","","d","null","88","88","1","swim-dual-task","","d","lowercase","654000","0","6","c85c87690290b8e6a451faf397cf56f7e10f0a68b173aa4ba9fb9aa06f75208d","654002.0999999046","1273.5","88","1","swim","","","","",""
"dual-task","null","null","null","","swim","swim","502.89999985694885","","t","null","88","88","1","swim-dual-task","","t","lowercase","668000","0","6","c85c87690290b8e6a451faf397cf56f7e10f0a68b173aa4ba9fb9aa06f75208d","668005.4000000954","502.89999985694885","88","1","swim","","","","",""
"dual-task","null","null","null","","swim","swim","782.0999999046326","","G","null","77","77","1","swim-dual-task","","G","uppercase","676000","0","6","c85c87690290b8e6a451faf397cf56f7e10f0a68b173aa4ba9fb9aa06f75208d","676004.5999999046","782.0999999046326","77","1","swim","","","","",""
"dual-task","null","null","null","","swim","swim","606.7999999523163","","t","null","88","88","1","swim-dual-task","","t","lowercase","686000","0","6","c85c87690290b8e6a451faf397cf56f7e10f0a68b173aa4ba9fb9aa06f75208d","686001.5999999046","606.7999999523163","88","1","swim","","","","",""
"dual-task","null","null","null","","swim","swim","868","","F","null","77","77","1","swim-dual-task","","F","uppercase","698000","0","6","c85c87690290b8e6a451faf397cf56f7e10f0a68b173aa4ba9fb9aa06f75208d","698015.5999999046","868","77","1","swim","","","","",""
"dual-task","null","null","null","","swim","swim","861.7999999523163","","E","null","77","77","1","swim-dual-task","","E","uppercase","708000","0","6","c85c87690290b8e6a451faf397cf56f7e10f0a68b173aa4ba9fb9aa06f75208d","708003.0999999046","861.7999999523163","77","1","swim","","","","",""
"dual-task","null","null","null","","swim","swim","620.2000000476837","","G","null","77","77","1","swim-dual-task","","G","uppercase","720000","0","6","c85c87690290b8e6a451faf397cf56f7e10f0a68b173aa4ba9fb9aa06f75208d","720010.2999999523","620.2000000476837","77","1","swim","","","","",""
"dual-task","null","null","null","","swim","swim","1076.5","","F","null","77","77","1","swim-dual-task","","F","uppercase","728000","0","6","c85c87690290b8e6a451faf397cf56f7e10f0a68b173aa4ba9fb9aa06f75208d","728003","1076.5","77","1","swim","","","","",""
"dual-task","null","null","null","","swim","swim","676.5","","q","null","88","88","1","swim-dual-task","","q","lowercase","740000","0","6","c85c87690290b8e6a451faf397cf56f7e10f0a68b173aa4ba9fb9aa06f75208d","740008.5999999046","676.5","88","1","swim","","","","",""
"dual-task","null","null","null","","swim","swim","763.2999999523163","","R","null","77","77","1","swim-dual-task","","R","uppercase","754000","0","6","c85c87690290b8e6a451faf397cf56f7e10f0a68b173aa4ba9fb9aa06f75208d","754000.7999999523","763.2999999523163","77","1","swim","","","","",""
"dual-task","null","null","null","","swim","swim","1697.6999998092651","","A","null","77","77","1","swim-dual-task","","A","uppercase","762000","0","6","c85c87690290b8e6a451faf397cf56f7e10f0a68b173aa4ba9fb9aa06f75208d","762003.7999999523","1697.6999998092651","77","1","swim","","","","",""
"dual-task","null","null","null","","swim","swim","722.1999998092651","","F","null","77","77","1","swim-dual-task","","F","uppercase","770000","0","6","c85c87690290b8e6a451faf397cf56f7e10f0a68b173aa4ba9fb9aa06f75208d","770014.4000000954","722.1999998092651","77","1","swim","","","","",""
"dual-task","null","null","null","","swim","swim","822.7000000476837","","g","null","88","88","1","swim-dual-task","","g","lowercase","778000","0","6","c85c87690290b8e6a451faf397cf56f7e10f0a68b173aa4ba9fb9aa06f75208d","778013.2999999523","822.7000000476837","88","1","swim","","","","",""
"dual-task","null","null","null","","swim","swim","617.1999998092651","","D","null","77","77","1","swim-dual-task","","D","uppercase","786000","0","6","c85c87690290b8e6a451faf397cf56f7e10f0a68b173aa4ba9fb9aa06f75208d","786012.0999999046","617.1999998092651","77","1","swim","","","","",""
"dual-task","null","null","null","","swim","swim","910.5","","b","null","88","88","1","swim-dual-task","","b","lowercase","800000","0","6","c85c87690290b8e6a451faf397cf56f7e10f0a68b173aa4ba9fb9aa06f75208d","800007.2999999523","910.5","88","1","swim","","","","",""
"audio-keyboard-response","29","2251220","0.0-7.0-0.0-1.0","c85c87690290b8e6a451faf397cf56f7e10f0a68b173aa4ba9fb9aa06f75208d","swim","swim","null","","audio/story_swim_scrambled.mp3","","null","","","","","","","","","","","","","","","","","","","",""
"html-button-response","30","2258563","0.0-7.0-0.0-2.0","c85c87690290b8e6a451faf397cf56f7e10f0a68b173aa4ba9fb9aa06f75208d","swim","swim","7341","","<p>This concludes the story. Thank you for listening.</p><p>You will now answer some questions about the content of the story.</p>","0","","","","","","","","","","","","","","","","","","","","",""
"survey-multi-choice","31","2264764","0.0-7.0-0.0-3.0-0.0","c85c87690290b8e6a451faf397cf56f7e10f0a68b173aa4ba9fb9aa06f75208d","swim","swim","6187","","<b>What is the narrator afraid of, aside from the water?</b>","","","","1","swim-comprehension","","","","","","","","","","","","","{""Q0"":""Heights""}","","","",""
"survey-multi-choice","32","2374636","0.0-7.0-0.0-3.0-0.1","c85c87690290b8e6a451faf397cf56f7e10f0a68b173aa4ba9fb9aa06f75208d","swim","swim","109598","","<b>How many astronaut candidates passed the first swim test?</b>","","","","1","swim-comprehension","","","","","","","","","","","","","{""Q0"":""All of them""}","","","",""
"survey-multi-choice","33","2388113","0.0-7.0-0.0-3.0-0.2","c85c87690290b8e6a451faf397cf56f7e10f0a68b173aa4ba9fb9aa06f75208d","swim","swim","13217","","<b>How many times did the astronaut candidates have to complete the final exercise to pass?</b>","","","","0","swim-comprehension","","","","","","","","","","","","","{""Q0"":""Five""}","","","",""
"survey-multi-choice","34","2398258","0.0-7.0-0.0-3.0-0.3","c85c87690290b8e6a451faf397cf56f7e10f0a68b173aa4ba9fb9aa06f75208d","swim","swim","9888","","<b>What were the astronaut candidates trained to do at the naval air station?</b>","","","","1","swim-comprehension","","","","","","","","","","","","","{""Q0"":""Eject out of aircraft and survive in water long enough to be rescued""}","","","",""
"survey-multi-choice","35","2411339","0.0-7.0-0.0-3.0-0.4","c85c87690290b8e6a451faf397cf56f7e10f0a68b173aa4ba9fb9aa06f75208d","swim","swim","12816","","<b>What gave the narrator his greatest feeling of accomplishment?</b>","","","","1","swim-comprehension","","","","","","","","","","","","","{""Q0"":""Passing the water survival course""}","","","",""
"survey-multi-choice","36","2446063","0.0-7.0-0.0-3.0-0.5","c85c87690290b8e6a451faf397cf56f7e10f0a68b173aa4ba9fb9aa06f75208d","swim","swim","34454","","<b>What was the final step of the first swim test in the pool?</b>","","","","0","swim-comprehension","","","","","","","","","","","","","{""Q0"":""Swim three laps of the pool underwater""}","","","",""
"survey-multi-choice","37","2454191","0.0-7.0-0.0-3.0-0.6","c85c87690290b8e6a451faf397cf56f7e10f0a68b173aa4ba9fb9aa06f75208d","swim","swim","7864","","<b>How many astronaut candidates reported for duty at the Johnson Space Center?</b>","","","","1","swim-comprehension","","","","","","","","","","","","","{""Q0"":""Forty-four""}","","","",""
"survey-multi-choice","38","2461046","0.0-7.0-0.0-3.0-0.7","c85c87690290b8e6a451faf397cf56f7e10f0a68b173aa4ba9fb9aa06f75208d","swim","swim","6594","","<b>How did the narrator train for his swim test?</b>","","","","1","swim-comprehension","","","","","","","","","","","","","{""Q0"":""Took his kids to the pool every day""}","","","",""
"survey-multi-choice","39","2470233","0.0-7.0-0.0-3.0-0.8","c85c87690290b8e6a451faf397cf56f7e10f0a68b173aa4ba9fb9aa06f75208d","swim","swim","8923","","<b>Where is the home of naval aviation?</b>","","","","1","swim-comprehension","","","","","","","","","","","","","{""Q0"":""Pensacola""}","","","",""
"survey-multi-choice","40","2482678","0.0-7.0-0.0-3.0-0.9","c85c87690290b8e6a451faf397cf56f7e10f0a68b173aa4ba9fb9aa06f75208d","swim","swim","12183","","<b>How often does the narrator swim, now that he is a good swimmer?</b>","","","","0","swim-comprehension","","","","","","","","","","","","","{""Q0"":""Every weekend with his kids""}","","","",""
"html-button-response","41","2485380","0.0-7.0-0.0-4.0","c85c87690290b8e6a451faf397cf56f7e10f0a68b173aa4ba9fb9aa06f75208d","swim","swim","2447","","<p>Thank you for your responses.</p><p>You will now answer some questions about your impressions of the story.</p>","0","","","","","","","","","","","","","","","","","","","","",""
"html-button-response","42","2489668","0.0-7.0-0.0-5.0-0.0","c85c87690290b8e6a451faf397cf56f7e10f0a68b173aa4ba9fb9aa06f75208d","swim","swim","4285","","A5","6","","","","swim-engagement","","","","","","","","","","","","","","7","absorption","",""
"html-button-response","43","2491110","0.0-7.0-0.0-5.0-0.1","c85c87690290b8e6a451faf397cf56f7e10f0a68b173aa4ba9fb9aa06f75208d","swim","swim","1188","","E1","6","","","","swim-engagement","","","","","","","","","","","","","","7","enjoyment","",""
"html-button-response","44","2494595","0.0-7.0-0.0-5.0-0.2","c85c87690290b8e6a451faf397cf56f7e10f0a68b173aa4ba9fb9aa06f75208d","swim","swim","3230","","EE5","6","","","","swim-engagement","","","","","","","","","","","","","","7","emo-engage","",""
"html-button-response","45","2497196","0.0-7.0-0.0-5.0-0.3","c85c87690290b8e6a451faf397cf56f7e10f0a68b173aa4ba9fb9aa06f75208d","swim","swim","2349","","MS1","6","","","","swim-engagement","","","","","","","","","","","","","","7","mental-sim","",""
"html-button-response","46","2500847","0.0-7.0-0.0-5.0-0.4","c85c87690290b8e6a451faf397cf56f7e10f0a68b173aa4ba9fb9aa06f75208d","swim","swim","3396","","EE1","6","","","","swim-engagement","","","","","","","","","","","","","","7","emo-engage","",""
"html-button-response","47","2503361","0.0-7.0-0.0-5.0-0.5","c85c87690290b8e6a451faf397cf56f7e10f0a68b173aa4ba9fb9aa06f75208d","swim","swim","2258","","MS2","6","","","","swim-engagement","","","","","","","","","","","","","","7","mental-sim","",""
"html-button-response","48","2507419","0.0-7.0-0.0-5.0-0.6","c85c87690290b8e6a451faf397cf56f7e10f0a68b173aa4ba9fb9aa06f75208d","swim","swim","3805","","EE2","4","","","","swim-engagement","","","","","","","","","","","","","","5","emo-engage","",""
"html-button-response","49","2509692","0.0-7.0-0.0-5.0-0.7","c85c87690290b8e6a451faf397cf56f7e10f0a68b173aa4ba9fb9aa06f75208d","swim","swim","2017","","E10","6","","","","swim-engagement","","","","","","","","","","","","","","7","enjoyment","",""
"html-button-response","50","2513292","0.0-7.0-0.0-5.0-0.8","c85c87690290b8e6a451faf397cf56f7e10f0a68b173aa4ba9fb9aa06f75208d","swim","swim","3344","","E8","6","","","","swim-engagement","","","","","","","","","","","","","","7","enjoyment","",""
"html-button-response","51","2515679","0.0-7.0-0.0-5.0-0.9","c85c87690290b8e6a451faf397cf56f7e10f0a68b173aa4ba9fb9aa06f75208d","swim","swim","2128","","MS3","6","","","","swim-engagement","","","","","","","","","","","","","","7","mental-sim","",""
"html-button-response","52","2517539","0.0-7.0-0.0-5.0-0.10","c85c87690290b8e6a451faf397cf56f7e10f0a68b173aa4ba9fb9aa06f75208d","swim","swim","1601","","E7","6","","","","swim-engagement","","","","","","","","","","","","","","7","enjoyment","",""
"html-button-response","53","2520755","0.0-7.0-0.0-5.0-0.11","c85c87690290b8e6a451faf397cf56f7e10f0a68b173aa4ba9fb9aa06f75208d","swim","swim","2961","","A2","6","","","","swim-engagement","","","","","","","","","","","","","","7","absorption","",""
"html-button-response","54","2523335","0.0-7.0-0.0-5.0-0.12","c85c87690290b8e6a451faf397cf56f7e10f0a68b173aa4ba9fb9aa06f75208d","swim","swim","2285","","A1","6","","","","swim-engagement","","","","","","","","","","","","","","7","absorption","",""
"html-button-response","55","2525593","0.0-7.0-0.0-5.0-0.13","c85c87690290b8e6a451faf397cf56f7e10f0a68b173aa4ba9fb9aa06f75208d","swim","swim","1964","","EE4","6","","","","swim-engagement","","","","","","","","","","","","","","7","emo-engage","",""
"html-button-response","56","2527277","0.0-7.0-0.0-5.0-0.14","c85c87690290b8e6a451faf397cf56f7e10f0a68b173aa4ba9fb9aa06f75208d","swim","swim","1430","","EE3","6","","","","swim-engagement","","","","","","","","","","","","","","7","emo-engage","",""
"html-button-response","57","2529663","0.0-7.0-0.0-5.0-0.15","c85c87690290b8e6a451faf397cf56f7e10f0a68b173aa4ba9fb9aa06f75208d","swim","swim","2133","","A4","6","","","","swim-engagement","","","","","","","","","","","","","","7","absorption","",""
"html-button-response","58","2530900","0.0-7.0-0.0-5.0-0.16","c85c87690290b8e6a451faf397cf56f7e10f0a68b173aa4ba9fb9aa06f75208d","swim","swim","981","","E6","6","","","","swim-engagement","","","","","","","","","","","","","","7","enjoyment","",""
"html-button-response","59","2532381","0.0-7.0-0.0-5.0-0.17","c85c87690290b8e6a451faf397cf56f7e10f0a68b173aa4ba9fb9aa06f75208d","swim","swim","1228","","A3","6","","","","swim-engagement","","","","","","","","","","","","","","7","absorption","",""
"html-keyboard-response","60","2568415","0.0-7.0-1.0","c85c87690290b8e6a451faf397cf56f7e10f0a68b173aa4ba9fb9aa06f75208d","swim","swim","35782","","<p>Thank you for your responses. You will now listen to the second story.</p><p>Remember, as you listen to the story you will see letters appear on the screen.</br>As quickly as possible, press <b>&lt;x&gt;</b> if the letter is lowercase and <b>&lt;m&gt;</b> if the letter is uppercase.</p><p>Press <b>&lt;x&gt;</b> or <b>&lt;m&gt;</b> to begin listening!</p>","","88","","","","","","","","","","","","","","","","","","","",""
"html-keyboard-response","61","2568928","0.0-7.0-2.0-0.0","c85c87690290b8e6a451faf397cf56f7e10f0a68b173aa4ba9fb9aa06f75208d","swim","swim","null","","<div style=""font-size:60px;"" tabindex=""0"">+</div>","","null","","","","","","","","","","","","","","","","","","","",""
"dual-task","null","null","null","","swim","swim","636","","f","null","88","88","1","arctic-dual-task","","f","lowercase","12000","0","6","c85c87690290b8e6a451faf397cf56f7e10f0a68b173aa4ba9fb9aa06f75208d","12010.799999952316","636","88","1","arctic","","","","",""
"dual-task","null","null","null","","swim","swim","678.9000000953674","","F","null","77","77","1","arctic-dual-task","","F","uppercase","24000","0","6","c85c87690290b8e6a451faf397cf56f7e10f0a68b173aa4ba9fb9aa06f75208d","24003.39999985695","678.9000000953674","77","1","arctic","","","","",""
"dual-task","null","null","null","","swim","swim","646.5999999046326","","q","null","88","88","1","arctic-dual-task","","q","lowercase","36000","0","6","c85c87690290b8e6a451faf397cf56f7e10f0a68b173aa4ba9fb9aa06f75208d","36010.09999990463","646.5999999046326","88","1","arctic","","","","",""
"dual-task","null","null","null","","swim","swim","624.5","","t","null","88","88","1","arctic-dual-task","","t","lowercase","46000","0","6","c85c87690290b8e6a451faf397cf56f7e10f0a68b173aa4ba9fb9aa06f75208d","46002.5","624.5","88","1","arctic","","","","",""
"dual-task","null","null","null","","swim","swim","506.89999985694885","","r","null","88","88","1","arctic-dual-task","","r","lowercase","60000","0","6","c85c87690290b8e6a451faf397cf56f7e10f0a68b173aa4ba9fb9aa06f75208d","60015","506.89999985694885","88","1","arctic","","","","",""
"dual-task","null","null","null","","swim","swim","601.0999999046326","","t","null","88","88","1","arctic-dual-task","","t","lowercase","70000","0","6","c85c87690290b8e6a451faf397cf56f7e10f0a68b173aa4ba9fb9aa06f75208d","70005","601.0999999046326","88","1","arctic","","","","",""
"dual-task","null","null","null","","swim","swim","585.1000001430511","","H","null","77","77","1","arctic-dual-task","","H","uppercase","82000","0","6","c85c87690290b8e6a451faf397cf56f7e10f0a68b173aa4ba9fb9aa06f75208d","82004.39999985695","585.1000001430511","77","1","arctic","","","","",""
"dual-task","null","null","null","","swim","swim","598.7000000476837","","b","null","88","88","1","arctic-dual-task","","b","lowercase","92000","0","6","c85c87690290b8e6a451faf397cf56f7e10f0a68b173aa4ba9fb9aa06f75208d","92010.59999990463","598.7000000476837","88","1","arctic","","","","",""
"dual-task","null","null","null","","swim","swim","563.7000000476837","","R","null","77","77","1","arctic-dual-task","","R","uppercase","104000","0","6","c85c87690290b8e6a451faf397cf56f7e10f0a68b173aa4ba9fb9aa06f75208d","104006.89999985695","563.7000000476837","77","1","arctic","","","","",""
"dual-task","null","null","null","","swim","swim","883.1000001430511","","T","null","77","77","1","arctic-dual-task","","T","uppercase","112000","0","6","c85c87690290b8e6a451faf397cf56f7e10f0a68b173aa4ba9fb9aa06f75208d","112007.39999985695","883.1000001430511","77","1","arctic","","","","",""
"dual-task","null","null","null","","swim","swim","800.3999998569489","","f","null","88","88","1","arctic-dual-task","","f","lowercase","120000","0","6","c85c87690290b8e6a451faf397cf56f7e10f0a68b173aa4ba9fb9aa06f75208d","120015.89999985695","800.3999998569489","88","1","arctic","","","","",""
"dual-task","null","null","null","","swim","swim","652.2999999523163","","n","null","88","88","1","arctic-dual-task","","n","lowercase","130000","0","6","c85c87690290b8e6a451faf397cf56f7e10f0a68b173aa4ba9fb9aa06f75208d","130006.79999995232","652.2999999523163","88","1","arctic","","","","",""
"dual-task","null","null","null","","swim","swim","555.9000000953674","","T","null","77","77","1","arctic-dual-task","","T","uppercase","136000","0","6","c85c87690290b8e6a451faf397cf56f7e10f0a68b173aa4ba9fb9aa06f75208d","136012.59999990463","555.9000000953674","77","1","arctic","","","","",""
"dual-task","null","null","null","","swim","swim","500.10000014305115","","a","null","88","88","1","arctic-dual-task","","a","lowercase","144000","0","6","c85c87690290b8e6a451faf397cf56f7e10f0a68b173aa4ba9fb9aa06f75208d","144002.69999980927","500.10000014305115","88","1","arctic","","","","",""
"dual-task","null","null","null","","swim","swim","459.5","","a","null","88","88","1","arctic-dual-task","","a","lowercase","158000","0","6","c85c87690290b8e6a451faf397cf56f7e10f0a68b173aa4ba9fb9aa06f75208d","158015.09999990463","459.5","88","1","arctic","","","","",""
"dual-task","null","null","null","","swim","swim","567","","D","null","77","77","1","arctic-dual-task","","D","uppercase","168000","0","6","c85c87690290b8e6a451faf397cf56f7e10f0a68b173aa4ba9fb9aa06f75208d","168011","567","77","1","arctic","","","","",""
"dual-task","null","null","null","","swim","swim","563.2999999523163","","r","null","88","88","1","arctic-dual-task","","r","lowercase","178000","0","6","c85c87690290b8e6a451faf397cf56f7e10f0a68b173aa4ba9fb9aa06f75208d","178008.79999995232","563.2999999523163","88","1","arctic","","","","",""
"dual-task","null","null","null","","swim","swim","580.5999999046326","","Q","null","77","77","1","arctic-dual-task","","Q","uppercase","188000","0","6","c85c87690290b8e6a451faf397cf56f7e10f0a68b173aa4ba9fb9aa06f75208d","188003.79999995232","580.5999999046326","77","1","arctic","","","","",""
"dual-task","null","null","null","","swim","swim","575.0999999046326","","d","null","88","88","1","arctic-dual-task","","d","lowercase","202000","0","6","c85c87690290b8e6a451faf397cf56f7e10f0a68b173aa4ba9fb9aa06f75208d","202011.39999985695","575.0999999046326","88","1","arctic","","","","",""
"dual-task","null","null","null","","swim","swim","611.7000000476837","","a","null","88","88","1","arctic-dual-task","","a","lowercase","214000","0","6","c85c87690290b8e6a451faf397cf56f7e10f0a68b173aa4ba9fb9aa06f75208d","214007.89999985695","611.7000000476837","88","1","arctic","","","","",""
"dual-task","null","null","null","","swim","swim","544.2999999523163","","d","null","88","88","1","arctic-dual-task","","d","lowercase","220000","0","6","c85c87690290b8e6a451faf397cf56f7e10f0a68b173aa4ba9fb9aa06f75208d","220013","544.2999999523163","88","1","arctic","","","","",""
"dual-task","null","null","null","","swim","swim","662.7000000476837","","E","null","77","77","1","arctic-dual-task","","E","uppercase","232000","0","6","c85c87690290b8e6a451faf397cf56f7e10f0a68b173aa4ba9fb9aa06f75208d","232009.89999985695","662.7000000476837","77","1","arctic","","","","",""
"dual-task","null","null","null","","swim","swim","623.2999999523163","","B","null","77","77","1","arctic-dual-task","","B","uppercase","240000","0","6","c85c87690290b8e6a451faf397cf56f7e10f0a68b173aa4ba9fb9aa06f75208d","240006.39999985695","623.2999999523163","77","1","arctic","","","","",""
"dual-task","null","null","null","","swim","swim","537.9000000953674","","Q","null","77","77","1","arctic-dual-task","","Q","uppercase","248000","0","6","c85c87690290b8e6a451faf397cf56f7e10f0a68b173aa4ba9fb9aa06f75208d","248002.79999995232","537.9000000953674","77","1","arctic","","","","",""
"dual-task","null","null","null","","swim","swim","683.7999999523163","","n","null","88","88","1","arctic-dual-task","","n","lowercase","258000","0","6","c85c87690290b8e6a451faf397cf56f7e10f0a68b173aa4ba9fb9aa06f75208d","258001.69999980927","683.7999999523163","88","1","arctic","","","","",""
"dual-task","null","null","null","","swim","swim","677.8000001907349","","D","null","77","77","1","arctic-dual-task","","D","uppercase","270000","0","6","c85c87690290b8e6a451faf397cf56f7e10f0a68b173aa4ba9fb9aa06f75208d","270008.2999999523","677.8000001907349","77","1","arctic","","","","",""
"dual-task","null","null","null","","swim","swim","532.5999999046326","","B","null","77","77","1","arctic-dual-task","","B","uppercase","282000","0","6","c85c87690290b8e6a451faf397cf56f7e10f0a68b173aa4ba9fb9aa06f75208d","282005.2999999523","532.5999999046326","77","1","arctic","","","","",""
"dual-task","null","null","null","","swim","swim","584.7000000476837","","g","null","88","88","1","arctic-dual-task","","g","lowercase","292000","0","6","c85c87690290b8e6a451faf397cf56f7e10f0a68b173aa4ba9fb9aa06f75208d","292014.7999999523","584.7000000476837","88","1","arctic","","","","",""
"dual-task","null","null","null","","swim","swim","572.6000001430511","","D","null","77","77","1","arctic-dual-task","","D","uppercase","300000","0","6","c85c87690290b8e6a451faf397cf56f7e10f0a68b173aa4ba9fb9aa06f75208d","300003.89999985695","572.6000001430511","77","1","arctic","","","","",""
"dual-task","null","null","null","","swim","swim","529.5","","G","null","77","77","1","arctic-dual-task","","G","uppercase","306000","0","6","c85c87690290b8e6a451faf397cf56f7e10f0a68b173aa4ba9fb9aa06f75208d","306001","529.5","77","1","arctic","","","","",""
"dual-task","null","null","null","","swim","swim","603.2999999523163","","q","null","88","88","1","arctic-dual-task","","q","lowercase","312000","0","6","c85c87690290b8e6a451faf397cf56f7e10f0a68b173aa4ba9fb9aa06f75208d","312013.69999980927","603.2999999523163","88","1","arctic","","","","",""
"dual-task","null","null","null","","swim","swim","541.7000000476837","","G","null","77","77","1","arctic-dual-task","","G","uppercase","318000","0","6","c85c87690290b8e6a451faf397cf56f7e10f0a68b173aa4ba9fb9aa06f75208d","318008.59999990463","541.7000000476837","77","1","arctic","","","","",""
"dual-task","null","null","null","","swim","swim","531","","b","null","88","88","1","arctic-dual-task","","b","lowercase","332000","0","6","c85c87690290b8e6a451faf397cf56f7e10f0a68b173aa4ba9fb9aa06f75208d","332003","531","88","1","arctic","","","","",""
"dual-task","null","null","null","","swim","swim","647.5999999046326","","f","null","88","88","1","arctic-dual-task","","f","lowercase","344000","0","6","c85c87690290b8e6a451faf397cf56f7e10f0a68b173aa4ba9fb9aa06f75208d","344010","647.5999999046326","88","1","arctic","","","","",""
"dual-task","null","null","null","","swim","swim","1044.2999999523163","","H","null","77","77","1","arctic-dual-task","","H","uppercase","350000","0","6","c85c87690290b8e6a451faf397cf56f7e10f0a68b173aa4ba9fb9aa06f75208d","350004.69999980927","1044.2999999523163","77","1","arctic","","","","",""
"dual-task","null","null","null","","swim","swim","1067.9000000953674","","n","null","88","88","1","arctic-dual-task","","n","lowercase","356000","0","6","c85c87690290b8e6a451faf397cf56f7e10f0a68b173aa4ba9fb9aa06f75208d","356008.69999980927","1067.9000000953674","88","1","arctic","","","","",""
"dual-task","null","null","null","","swim","swim","708.1999998092651","","e","null","88","88","1","arctic-dual-task","","e","lowercase","368000","0","6","c85c87690290b8e6a451faf397cf56f7e10f0a68b173aa4ba9fb9aa06f75208d","368002.09999990463","708.1999998092651","88","1","arctic","","","","",""
"dual-task","null","null","null","","swim","swim","555.7999999523163","","E","null","77","77","1","arctic-dual-task","","E","uppercase","378000","0","6","c85c87690290b8e6a451faf397cf56f7e10f0a68b173aa4ba9fb9aa06f75208d","378002","555.7999999523163","77","1","arctic","","","","",""
"dual-task","null","null","null","","swim","swim","593.2000000476837","","F","null","77","77","1","arctic-dual-task","","F","uppercase","390000","0","6","c85c87690290b8e6a451faf397cf56f7e10f0a68b173aa4ba9fb9aa06f75208d","390011.69999980927","593.2000000476837","77","1","arctic","","","","",""
"dual-task","null","null","null","","swim","swim","901.2999999523163","","g","null","88","88","1","arctic-dual-task","","g","lowercase","402000","0","6","c85c87690290b8e6a451faf397cf56f7e10f0a68b173aa4ba9fb9aa06f75208d","402003.39999985695","901.2999999523163","88","1","arctic","","","","",""
"dual-task","null","null","null","","swim","swim","1324.7000000476837","","d","null","88","88","1","arctic-dual-task","","d","lowercase","408000","0","6","c85c87690290b8e6a451faf397cf56f7e10f0a68b173aa4ba9fb9aa06f75208d","408010.7999999523","1324.7000000476837","88","1","arctic","","","","",""
"dual-task","null","null","null","","swim","swim","587.7999999523163","","B","null","77","77","1","arctic-dual-task","","B","uppercase","414000","0","6","c85c87690290b8e6a451faf397cf56f7e10f0a68b173aa4ba9fb9aa06f75208d","414009.69999980927","587.7999999523163","77","1","arctic","","","","",""
"dual-task","null","null","null","","swim","swim","453.5","","r","null","88","88","1","arctic-dual-task","","r","lowercase","428000","0","6","c85c87690290b8e6a451faf397cf56f7e10f0a68b173aa4ba9fb9aa06f75208d","428008.09999990463","453.5","88","1","arctic","","","","",""
"dual-task","null","null","null","","swim","swim","667.5","","q","null","88","88","1","arctic-dual-task","","q","lowercase","442000","0","6","c85c87690290b8e6a451faf397cf56f7e10f0a68b173aa4ba9fb9aa06f75208d","442014.2999999523","667.5","88","1","arctic","","","","",""
"dual-task","null","null","null","","swim","swim","1080.2999999523163","","E","null","77","77","1","arctic-dual-task","","E","uppercase","448000","0","6","c85c87690290b8e6a451faf397cf56f7e10f0a68b173aa4ba9fb9aa06f75208d","448013.5","1080.2999999523163","77","1","arctic","","","","",""
"dual-task","null","null","null","","swim","swim","902.7999999523163","","G","null","77","77","1","arctic-dual-task","","G","uppercase","458000","0","6","c85c87690290b8e6a451faf397cf56f7e10f0a68b173aa4ba9fb9aa06f75208d","458003.69999980927","902.7999999523163","77","1","arctic","","","","",""
"dual-task","null","null","null","","swim","swim","683.1000001430511","","f","null","88","88","1","arctic-dual-task","","f","lowercase","468000","0","6","c85c87690290b8e6a451faf397cf56f7e10f0a68b173aa4ba9fb9aa06f75208d","468000.19999980927","683.1000001430511","88","1","arctic","","","","",""
"dual-task","null","null","null","","swim","swim","572.0999999046326","","A","null","77","77","1","arctic-dual-task","","A","uppercase","476000","0","6","c85c87690290b8e6a451faf397cf56f7e10f0a68b173aa4ba9fb9aa06f75208d","476010.39999985695","572.0999999046326","77","1","arctic","","","","",""
"dual-task","null","null","null","","swim","swim","547.6000001430511","","A","null","77","77","1","arctic-dual-task","","A","uppercase","486000","0","6","c85c87690290b8e6a451faf397cf56f7e10f0a68b173aa4ba9fb9aa06f75208d","486001.7999999523","547.6000001430511","77","1","arctic","","","","",""
"dual-task","null","null","null","","swim","swim","669.6999998092651","","E","null","77","77","1","arctic-dual-task","","E","uppercase","496000","0","6","c85c87690290b8e6a451faf397cf56f7e10f0a68b173aa4ba9fb9aa06f75208d","496016.5","669.6999998092651","77","1","arctic","","","","",""
"dual-task","null","null","null","","swim","swim","798","","R","null","77","77","1","arctic-dual-task","","R","uppercase","506000","0","6","c85c87690290b8e6a451faf397cf56f7e10f0a68b173aa4ba9fb9aa06f75208d","506007.59999990463","798","77","1","arctic","","","","",""
"dual-task","null","null","null","","swim","swim","726.0999999046326","","g","null","88","88","1","arctic-dual-task","","g","lowercase","516000","0","6","c85c87690290b8e6a451faf397cf56f7e10f0a68b173aa4ba9fb9aa06f75208d","516007.69999980927","726.0999999046326","88","1","arctic","","","","",""
"dual-task","null","null","null","","swim","swim","624.5","","F","null","77","77","1","arctic-dual-task","","F","uppercase","524000","0","6","c85c87690290b8e6a451faf397cf56f7e10f0a68b173aa4ba9fb9aa06f75208d","524002.5","624.5","77","1","arctic","","","","",""
"dual-task","null","null","null","","swim","swim","668.1999998092651","","N","null","77","77","1","arctic-dual-task","","N","uppercase","532000","0","6","c85c87690290b8e6a451faf397cf56f7e10f0a68b173aa4ba9fb9aa06f75208d","532003.5","668.1999998092651","77","1","arctic","","","","",""
"dual-task","null","null","null","","swim","swim","601.6999998092651","","Q","null","77","77","1","arctic-dual-task","","Q","uppercase","540000","0","6","c85c87690290b8e6a451faf397cf56f7e10f0a68b173aa4ba9fb9aa06f75208d","540015.399999857","601.6999998092651","77","1","arctic","","","","",""
"dual-task","null","null","null","","swim","swim","823.7000000476837","","R","null","77","77","1","arctic-dual-task","","R","uppercase","548000","0","6","c85c87690290b8e6a451faf397cf56f7e10f0a68b173aa4ba9fb9aa06f75208d","548014.5999999046","823.7000000476837","77","1","arctic","","","","",""
"dual-task","null","null","null","","swim","swim","1442.2999999523163","","A","null","77","77","1","arctic-dual-task","","A","uppercase","558000","0","6","c85c87690290b8e6a451faf397cf56f7e10f0a68b173aa4ba9fb9aa06f75208d","558013.1999998093","1442.2999999523163","77","1","arctic","","","","",""
"dual-task","null","null","null","","swim","swim","1308.2000000476837","","r","null","88","88","1","arctic-dual-task","","r","lowercase","566000","0","6","c85c87690290b8e6a451faf397cf56f7e10f0a68b173aa4ba9fb9aa06f75208d","566015.0999999046","1308.2000000476837","88","1","arctic","","","","",""
"dual-task","null","null","null","","swim","swim","939","","t","null","88","88","1","arctic-dual-task","","t","lowercase","574000","0","6","c85c87690290b8e6a451faf397cf56f7e10f0a68b173aa4ba9fb9aa06f75208d","574000.5999999046","939","88","1","arctic","","","","",""
"dual-task","null","null","null","","swim","swim","583.2999999523163","","b","null","88","88","1","arctic-dual-task","","b","lowercase","582000","0","6","c85c87690290b8e6a451faf397cf56f7e10f0a68b173aa4ba9fb9aa06f75208d","582003","583.2999999523163","88","1","arctic","","","","",""
"dual-task","null","null","null","","swim","swim","NA","","R","null","NA","77","0","arctic-dual-task","","R","uppercase","588000","1","6","c85c87690290b8e6a451faf397cf56f7e10f0a68b173aa4ba9fb9aa06f75208d","588001.2999999523","NA","NA","0","arctic","","","","",""
"dual-task","null","null","null","","swim","swim","NA","","g","null","NA","88","0","arctic-dual-task","","g","lowercase","596000","1","6","c85c87690290b8e6a451faf397cf56f7e10f0a68b173aa4ba9fb9aa06f75208d","596005.6999998093","NA","NA","0","arctic","","","","",""
"dual-task","null","null","null","","swim","swim","NA","","N","null","NA","77","0","arctic-dual-task","","N","uppercase","606000","1","6","c85c87690290b8e6a451faf397cf56f7e10f0a68b173aa4ba9fb9aa06f75208d","606012.7999999523","NA","NA","0","arctic","","","","",""
"dual-task","null","null","null","","swim","swim","514.6999998092651","","B","null","77","77","1","arctic-dual-task","","B","uppercase","616000","0","6","c85c87690290b8e6a451faf397cf56f7e10f0a68b173aa4ba9fb9aa06f75208d","616002","514.6999998092651","77","1","arctic","","","","",""
"dual-task","null","null","null","","swim","swim","549.2999999523163","","D","null","77","77","1","arctic-dual-task","","D","uppercase","626000","0","6","c85c87690290b8e6a451faf397cf56f7e10f0a68b173aa4ba9fb9aa06f75208d","626002.5","549.2999999523163","77","1","arctic","","","","",""
"dual-task","null","null","null","","swim","swim","586.7000000476837","","e","null","88","88","1","arctic-dual-task","","e","lowercase","634000","0","6","c85c87690290b8e6a451faf397cf56f7e10f0a68b173aa4ba9fb9aa06f75208d","634008.399999857","586.7000000476837","88","1","arctic","","","","",""
"dual-task","null","null","null","","swim","swim","759.5","","Q","null","77","77","1","arctic-dual-task","","Q","uppercase","640000","0","6","c85c87690290b8e6a451faf397cf56f7e10f0a68b173aa4ba9fb9aa06f75208d","640011.5","759.5","77","1","arctic","","","","",""
"dual-task","null","null","null","","swim","swim","476","","h","null","88","88","1","arctic-dual-task","","h","lowercase","648000","0","6","c85c87690290b8e6a451faf397cf56f7e10f0a68b173aa4ba9fb9aa06f75208d","648010","476","88","1","arctic","","","","",""
"dual-task","null","null","null","","swim","swim","579.1000001430511","","a","null","88","88","1","arctic-dual-task","","a","lowercase","660000","0","6","c85c87690290b8e6a451faf397cf56f7e10f0a68b173aa4ba9fb9aa06f75208d","660002","579.1000001430511","88","1","arctic","","","","",""
"dual-task","null","null","null","","swim","swim","518.4000000953674","","b","null","88","88","1","arctic-dual-task","","b","lowercase","668000","0","6","c85c87690290b8e6a451faf397cf56f7e10f0a68b173aa4ba9fb9aa06f75208d","668007.6999998093","518.4000000953674","88","1","arctic","","","","",""
"dual-task","null","null","null","","swim","swim","574.6999998092651","","N","null","77","77","1","arctic-dual-task","","N","uppercase","676000","0","6","c85c87690290b8e6a451faf397cf56f7e10f0a68b173aa4ba9fb9aa06f75208d","676009.5","574.6999998092651","77","1","arctic","","","","",""
"dual-task","null","null","null","","swim","swim","714.2999999523163","","q","null","88","88","1","arctic-dual-task","","q","lowercase","686000","0","6","c85c87690290b8e6a451faf397cf56f7e10f0a68b173aa4ba9fb9aa06f75208d","686013.899999857","714.2999999523163","88","1","arctic","","","","",""
"dual-task","null","null","null","","swim","swim","716.2000000476837","","d","null","88","88","1","arctic-dual-task","","d","lowercase","692000","0","6","c85c87690290b8e6a451faf397cf56f7e10f0a68b173aa4ba9fb9aa06f75208d","692005.2999999523","716.2000000476837","88","1","arctic","","","","",""
"dual-task","null","null","null","","swim","swim","671.7999999523163","","A","null","77","77","1","arctic-dual-task","","A","uppercase","702000","0","6","c85c87690290b8e6a451faf397cf56f7e10f0a68b173aa4ba9fb9aa06f75208d","702016.5","671.7999999523163","77","1","arctic","","","","",""
"dual-task","null","null","null","","swim","swim","606.7999999523163","","n","null","88","88","1","arctic-dual-task","","n","lowercase","710000","0","6","c85c87690290b8e6a451faf397cf56f7e10f0a68b173aa4ba9fb9aa06f75208d","710012","606.7999999523163","88","1","arctic","","","","",""
"dual-task","null","null","null","","swim","swim","736.5999999046326","","e","null","88","88","1","arctic-dual-task","","e","lowercase","716000","0","6","c85c87690290b8e6a451faf397cf56f7e10f0a68b173aa4ba9fb9aa06f75208d","716008.899999857","736.5999999046326","88","1","arctic","","","","",""
"dual-task","null","null","null","","swim","swim","528.2000000476837","","h","null","88","88","1","arctic-dual-task","","h","lowercase","724000","0","6","c85c87690290b8e6a451faf397cf56f7e10f0a68b173aa4ba9fb9aa06f75208d","724012.1999998093","528.2000000476837","88","1","arctic","","","","",""
"dual-task","null","null","null","","swim","swim","506","","F","null","77","77","1","arctic-dual-task","","F","uppercase","732000","0","6","c85c87690290b8e6a451faf397cf56f7e10f0a68b173aa4ba9fb9aa06f75208d","732002.0999999046","506","77","1","arctic","","","","",""
"dual-task","null","null","null","","swim","swim","749.8000001907349","","h","null","88","88","1","arctic-dual-task","","h","lowercase","740000","0","6","c85c87690290b8e6a451faf397cf56f7e10f0a68b173aa4ba9fb9aa06f75208d","740008.7999999523","749.8000001907349","88","1","arctic","","","","",""
"dual-task","null","null","null","","swim","swim","667.6000001430511","","h","null","88","88","1","arctic-dual-task","","h","lowercase","748000","0","6","c85c87690290b8e6a451faf397cf56f7e10f0a68b173aa4ba9fb9aa06f75208d","748012.6999998093","667.6000001430511","88","1","arctic","","","","",""
"dual-task","null","null","null","","swim","swim","527","","H","null","77","77","1","arctic-dual-task","","H","uppercase","760000","0","6","c85c87690290b8e6a451faf397cf56f7e10f0a68b173aa4ba9fb9aa06f75208d","760003.1999998093","527","77","1","arctic","","","","",""
"dual-task","null","null","null","","swim","swim","553.0999999046326","","G","null","77","77","1","arctic-dual-task","","G","uppercase","770000","0","6","c85c87690290b8e6a451faf397cf56f7e10f0a68b173aa4ba9fb9aa06f75208d","770014.399999857","553.0999999046326","77","1","arctic","","","","",""
"dual-task","null","null","null","","swim","swim","771.6999998092651","","T","null","77","77","1","arctic-dual-task","","T","uppercase","776000","0","6","c85c87690290b8e6a451faf397cf56f7e10f0a68b173aa4ba9fb9aa06f75208d","776007.399999857","771.6999998092651","77","1","arctic","","","","",""
"dual-task","null","null","null","","swim","swim","573.4000000953674","","H","null","77","77","1","arctic-dual-task","","H","uppercase","790000","0","6","c85c87690290b8e6a451faf397cf56f7e10f0a68b173aa4ba9fb9aa06f75208d","790003.899999857","573.4000000953674","77","1","arctic","","","","",""
"audio-keyboard-response","62","3367960","0.0-7.0-2.0-1.0","c85c87690290b8e6a451faf397cf56f7e10f0a68b173aa4ba9fb9aa06f75208d","swim","swim","null","","audio/story_arctic.mp3","","null","","","","","","","","","","","","","","","","","","","",""
"html-button-response","63","3372943","0.0-7.0-2.0-2.0","c85c87690290b8e6a451faf397cf56f7e10f0a68b173aa4ba9fb9aa06f75208d","swim","swim","4982","","<p>This concludes the story. Thank you for listening.</p><p>You will now answer some questions about the content of the story.</p>","0","","","","","","","","","","","","","","","","","","","","",""
"survey-multi-choice","64","3377975","0.0-7.0-2.0-3.0-0.0","c85c87690290b8e6a451faf397cf56f7e10f0a68b173aa4ba9fb9aa06f75208d","swim","swim","5020","","<b>What was the objective of the narrator&#39;s expedition?</b>","","","","1","arctic-comprehension","","","","","","","","","","","","","{""Q0"":""Dogsled across Arctic America""}","","","",""
"survey-multi-choice","65","3385776","0.0-7.0-2.0-3.0-0.1","c85c87690290b8e6a451faf397cf56f7e10f0a68b173aa4ba9fb9aa06f75208d","swim","swim","7532","","<b>How did the narrator prepare for her expedition?</b>","","","","1","arctic-comprehension","","","","","","","","","","","","","{""Q0"":""Trained in Alaska learning how to dogsled""}","","","",""
"survey-multi-choice","66","3396614","0.0-7.0-2.0-3.0-0.2","c85c87690290b8e6a451faf397cf56f7e10f0a68b173aa4ba9fb9aa06f75208d","swim","swim","10559","","<b>What were the weather conditions in the Arctic like the winter of the narrator&#39;s expedition?</b>","","","","1","arctic-comprehension","","","","","","","","","","","","","{""Q0"":""There were more storms than any other winter in recorded history.""}","","","",""
"survey-multi-choice","67","3402602","0.0-7.0-2.0-3.0-0.3","c85c87690290b8e6a451faf397cf56f7e10f0a68b173aa4ba9fb9aa06f75208d","swim","swim","5727","","<b>What is the name of the narrator&#39;s neighbour?</b>","","","","1","arctic-comprehension","","","","","","","","","","","","","{""Q0"":""Dave""}","","","",""
"survey-multi-choice","68","3408104","0.0-7.0-2.0-3.0-0.4","c85c87690290b8e6a451faf397cf56f7e10f0a68b173aa4ba9fb9aa06f75208d","swim","swim","5231","","<b>How many sponsorships did the narrator receive to support her expedition?</b>","","","","1","arctic-comprehension","","","","","","","","","","","","","{""Q0"":""None""}","","","",""
"survey-multi-choice","69","3416235","0.0-7.0-2.0-3.0-0.5","c85c87690290b8e6a451faf397cf56f7e10f0a68b173aa4ba9fb9aa06f75208d","swim","swim","7871","","<b>Which dog on the narrator&#39;s dog team never followed instructions?</b>","","","","1","arctic-comprehension","","","","","","","","","","","","","{""Q0"":""Robert""}","","","",""
"survey-multi-choice","70","3426587","0.0-7.0-2.0-3.0-0.6","c85c87690290b8e6a451faf397cf56f7e10f0a68b173aa4ba9fb9aa06f75208d","swim","swim","10086","","<b>What did the narrator do for leisure while in her tent?</b>","","","","1","arctic-comprehension","","","","","","","","","","","","","{""Q0"":""Read""}","","","",""
"survey-multi-choice","71","3433047","0.0-7.0-2.0-3.0-0.7","c85c87690290b8e6a451faf397cf56f7e10f0a68b173aa4ba9fb9aa06f75208d","swim","swim","6197","","<b>How did the narrator&#39;s encounter with the polar bears end?</b>","","","","1","arctic-comprehension","","","","","","","","","","","","","{""Q0"":""The bears walked back to their den.""}","","","",""
"survey-multi-choice","72","3440667","0.0-7.0-2.0-3.0-0.8","c85c87690290b8e6a451faf397cf56f7e10f0a68b173aa4ba9fb9aa06f75208d","swim","swim","7358","","<b>How did the narrator&#39;s neighbour respond when she told him about her expedition?</b>","","","","1","arctic-comprehension","","","","","","","","","","","","","{""Q0"":""He said she was going to fail.""}","","","",""
"survey-multi-choice","73","3451223","0.0-7.0-2.0-3.0-0.9","c85c87690290b8e6a451faf397cf56f7e10f0a68b173aa4ba9fb9aa06f75208d","swim","swim","10295","","<b>How did the dogs respond when they saw the bears?</b>","","","","1","arctic-comprehension","","","","","","","","","","","","","{""Q0"":""Approached them""}","","","",""
"html-button-response","74","3453546","0.0-7.0-2.0-4.0","c85c87690290b8e6a451faf397cf56f7e10f0a68b173aa4ba9fb9aa06f75208d","swim","swim","2071","","<p>Thank you for your responses.</p><p>You will now answer some questions about your impressions of the story.</p>","0","","","","","","","","","","","","","","","","","","","","",""
"html-button-response","75","3455308","0.0-7.0-2.0-5.0-0.0","c85c87690290b8e6a451faf397cf56f7e10f0a68b173aa4ba9fb9aa06f75208d","swim","swim","1759","","E7","6","","","","arctic-engagement","","","","","","","","","","","","","","7","enjoyment","",""
"html-button-response","76","3456597","0.0-7.0-2.0-5.0-0.1","c85c87690290b8e6a451faf397cf56f7e10f0a68b173aa4ba9fb9aa06f75208d","swim","swim","1034","","EE4","6","","","","arctic-engagement","","","","","","","","","","","","","","7","emo-engage","",""
"html-button-response","77","3458153","0.0-7.0-2.0-5.0-0.2","c85c87690290b8e6a451faf397cf56f7e10f0a68b173aa4ba9fb9aa06f75208d","swim","swim","1301","","A3","6","","","","arctic-engagement","","","","","","","","","","","","","","7","absorption","",""
"html-button-response","78","3460428","0.0-7.0-2.0-5.0-0.3","c85c87690290b8e6a451faf397cf56f7e10f0a68b173aa4ba9fb9aa06f75208d","swim","swim","2012","","EE2","6","","","","arctic-engagement","","","","","","","","","","","","","","7","emo-engage","",""
"html-button-response","79","3462113","0.0-7.0-2.0-5.0-0.4","c85c87690290b8e6a451faf397cf56f7e10f0a68b173aa4ba9fb9aa06f75208d","swim","swim","1430","","EE5","6","","","","arctic-engagement","","","","","","","","","","","","","","7","emo-engage","",""
"html-button-response","80","3463719","0.0-7.0-2.0-5.0-0.5","c85c87690290b8e6a451faf397cf56f7e10f0a68b173aa4ba9fb9aa06f75208d","swim","swim","1353","","MS1","6","","","","arctic-engagement","","","","","","","","","","","","","","7","mental-sim","",""
"html-button-response","81","3465137","0.0-7.0-2.0-5.0-0.6","c85c87690290b8e6a451faf397cf56f7e10f0a68b173aa4ba9fb9aa06f75208d","swim","swim","1165","","E10","6","","","","arctic-engagement","","","","","","","","","","","","","","7","enjoyment","",""
"html-button-response","82","3467166","0.0-7.0-2.0-5.0-0.7","c85c87690290b8e6a451faf397cf56f7e10f0a68b173aa4ba9fb9aa06f75208d","swim","swim","1777","","A1","6","","","","arctic-engagement","","","","","","","","","","","","","","7","absorption","",""
"html-button-response","83","3468544","0.0-7.0-2.0-5.0-0.8","c85c87690290b8e6a451faf397cf56f7e10f0a68b173aa4ba9fb9aa06f75208d","swim","swim","1124","","A2","6","","","","arctic-engagement","","","","","","","","","","","","","","7","absorption","",""
"html-button-response","84","3470434","0.0-7.0-2.0-5.0-0.9","c85c87690290b8e6a451faf397cf56f7e10f0a68b173aa4ba9fb9aa06f75208d","swim","swim","1636","","E8","6","","","","arctic-engagement","","","","","","","","","","","","","","7","enjoyment","",""
"html-button-response","85","3471607","0.0-7.0-2.0-5.0-0.10","c85c87690290b8e6a451faf397cf56f7e10f0a68b173aa4ba9fb9aa06f75208d","swim","swim","920","","E6","6","","","","arctic-engagement","","","","","","","","","","","","","","7","enjoyment","",""
"html-button-response","86","3476368","0.0-7.0-2.0-5.0-0.11","c85c87690290b8e6a451faf397cf56f7e10f0a68b173aa4ba9fb9aa06f75208d","swim","swim","4504","","A5","6","","","","arctic-engagement","","","","","","","","","","","","","","7","absorption","",""
"html-button-response","87","3479648","0.0-7.0-2.0-5.0-0.12","c85c87690290b8e6a451faf397cf56f7e10f0a68b173aa4ba9fb9aa06f75208d","swim","swim","3027","","EE1","6","","","","arctic-engagement","","","","","","","","","","","","","","7","emo-engage","",""
"html-button-response","88","3484971","0.0-7.0-2.0-5.0-0.13","c85c87690290b8e6a451faf397cf56f7e10f0a68b173aa4ba9fb9aa06f75208d","swim","swim","5070","","MS2","6","","","","arctic-engagement","","","","","","","","","","","","","","7","mental-sim","",""
"html-button-response","89","3487254","0.0-7.0-2.0-5.0-0.14","c85c87690290b8e6a451faf397cf56f7e10f0a68b173aa4ba9fb9aa06f75208d","swim","swim","2031","","A4","6","","","","arctic-engagement","","","","","","","","","","","","","","7","absorption","",""
"html-button-response","90","3489807","0.0-7.0-2.0-5.0-0.15","c85c87690290b8e6a451faf397cf56f7e10f0a68b173aa4ba9fb9aa06f75208d","swim","swim","2299","","MS3","6","","","","arctic-engagement","","","","","","","","","","","","","","7","mental-sim","",""
"html-button-response","91","3491147","0.0-7.0-2.0-5.0-0.16","c85c87690290b8e6a451faf397cf56f7e10f0a68b173aa4ba9fb9aa06f75208d","swim","swim","1089","","E1","6","","","","arctic-engagement","","","","","","","","","","","","","","7","enjoyment","",""
"html-button-response","92","3492807","0.0-7.0-2.0-5.0-0.17","c85c87690290b8e6a451faf397cf56f7e10f0a68b173aa4ba9fb9aa06f75208d","swim","swim","1406","","EE3","6","","","","arctic-engagement","","","","","","","","","","","","","","7","emo-engage","",""
"html-button-response","93","3495116","0.0-8.0","c85c87690290b8e6a451faf397cf56f7e10f0a68b173aa4ba9fb9aa06f75208d","swim","swim","2058","","<p>Thank you for your responses.</p><p>You will now answer some demographic, hearing, and general health questions.</p>","0","","","","","","","","","","","","","","","","","","","","",""
"survey-multi-choice","94","3500093","0.0-9.0-0.0","c85c87690290b8e6a451faf397cf56f7e10f0a68b173aa4ba9fb9aa06f75208d","swim","swim","4970","","","","","","","survey","","","","","","","","","","","","","{""Q0"":""Chrome""}","","","browser",""
"survey-text","95","3504151","0.0-9.0-1.0","c85c87690290b8e6a451faf397cf56f7e10f0a68b173aa4ba9fb9aa06f75208d","swim","swim","3801.2000000476837","","","","","","","survey","","","","","","","","","","","","","{""AGE"":""32""}","","","age","32"
"survey-multi-choice","96","3508147","0.0-9.0-2.0","c85c87690290b8e6a451faf397cf56f7e10f0a68b173aa4ba9fb9aa06f75208d","swim","swim","3736","","","","","","","survey","","","","","","","","","","","","","{""Q0"":""Female""}","","","gender","Female"
"survey-multi-choice","97","3510839","0.0-9.0-4.0","c85c87690290b8e6a451faf397cf56f7e10f0a68b173aa4ba9fb9aa06f75208d","swim","swim","2437","","","","","","","survey","","","","","","","","","","","","","{""Q0"":""Right""}","","","handedness","Right"
"survey-multi-choice","98","3519568","0.0-9.0-5.0","c85c87690290b8e6a451faf397cf56f7e10f0a68b173aa4ba9fb9aa06f75208d","swim","swim","8453","","","","","","","survey","","","","","","","","","","","","","{""Q0"":""High school""}","","","education","High school"
"survey-text","99","3524417","0.0-10.0-0.0","c85c87690290b8e6a451faf397cf56f7e10f0a68b173aa4ba9fb9aa06f75208d","swim","swim","4594.300000190735","","","","","","","survey","","","","","","","","","","","","","{""L1"":""English""}","","","first-language","English"
"survey-text","100","3538854","0.0-10.0-1.0","c85c87690290b8e6a451faf397cf56f7e10f0a68b173aa4ba9fb9aa06f75208d","swim","swim","14170.899999856949","","","","","","","survey","","","","","","","","","","","","","{""L2name"":""Spanish"",""L2fluency"":""3"",""L3name"":"""",""L3fluency"":"""",""L4name"":"""",""L4fluency"":""""}","","","additional-languages","{""L2name"":""Spanish"",""L2fluency"":""3"",""L3name"":"""",""L3fluency"":"""",""L4name"":"""",""L4fluency"":""""}"
"survey-multi-choice","101","3542504","0.0-10.0-2.0","c85c87690290b8e6a451faf397cf56f7e10f0a68b173aa4ba9fb9aa06f75208d","swim","swim","3391","","","","","","","survey","","","","","","","","","","","","","{""Q0"":""No""}","","","hearing-aid","No"
"survey-multi-choice","102","3546511","0.0-10.0-3.0","c85c87690290b8e6a451faf397cf56f7e10f0a68b173aa4ba9fb9aa06f75208d","swim","swim","3749","","","","","","","survey","","","","","","","","","","","","","{""Q0"":""Never""}","","","ringing-ears","Never"
"survey-multi-choice","103","3549655","0.0-10.0-5.0","c85c87690290b8e6a451faf397cf56f7e10f0a68b173aa4ba9fb9aa06f75208d","swim","swim","2883","","","","","","","survey","","","","","","","","","","","","","{""Q0"":""No""}","","","neuro-disease","No"
"survey-multi-choice","104","3557689","0.0-10.0-7.0","c85c87690290b8e6a451faf397cf56f7e10f0a68b173aa4ba9fb9aa06f75208d","swim","swim","7773","","","","","","","survey","","","","","","","","","","","","","{""Q0"":""Yes""}","","","take-meds","Yes"
"survey-text","105","3589046","0.0-10.0-8.0-0.0","c85c87690290b8e6a451faf397cf56f7e10f0a68b173aa4ba9fb9aa06f75208d","swim","swim","31101.200000047684","","","","","","","survey","","","","","","","","","","","","","{""MED"":""Zoloft, Kolonopen""}","","","take-meds-clarify","Zoloft, Kolonopen"
"survey-text","106","3599101","0.0-10.0-9.0","c85c87690290b8e6a451faf397cf56f7e10f0a68b173aa4ba9fb9aa06f75208d","swim","swim","9607.700000047684","","","","","","","survey","","","","","","","","","","","","","{""HC"":""""}","","","health-concerns",""
"html-button-response","107","3603223","0.0-11.0-0.0","c85c87690290b8e6a451faf397cf56f7e10f0a68b173aa4ba9fb9aa06f75208d","swim","swim","3869","","<p>How would you describe your musical skills/experiences?</p>","2","","","","survey","","","","","","","","","","","","","","","","music-skill","3"
"survey-multi-choice","108","3606145","0.0-11.0-1.0","c85c87690290b8e6a451faf397cf56f7e10f0a68b173aa4ba9fb9aa06f75208d","swim","swim","2665","","","","","","","survey","","","","","","","","","","","","","{""Q0"":""Yes""}","","","music-instrument","Yes"
"survey-text","109","3610202","0.0-11.0-2.0-0.0","c85c87690290b8e6a451faf397cf56f7e10f0a68b173aa4ba9fb9aa06f75208d","swim","swim","3802.9000000953674","","","","","","","survey","","","","","","","","","","","","","{""MEXP"":""2""}","","","music-training-yrs","2"
"html-button-response","110","3612820","0.0-12.0-0.0","c85c87690290b8e6a451faf397cf56f7e10f0a68b173aa4ba9fb9aa06f75208d","swim","swim","2362","","<p>How would you describe your general hearing abilities?</p>","5","","","","survey","","","","","","","","","","","","","","","","ssq-01","6"
"html-button-response","111","3617045","0.0-12.0-1.0","c85c87690290b8e6a451faf397cf56f7e10f0a68b173aa4ba9fb9aa06f75208d","swim","swim","3970","","<p>When you talk with someone at a place that strongly reverberates/echoes (e.g., in a church or train station),</br>can you understand what the person says?</p>","10","","","","survey","","","","","","","","","","","","","","","","ssq-02","10"
"html-button-response","112","3619913","0.0-12.0-2.0","c85c87690290b8e6a451faf397cf56f7e10f0a68b173aa4ba9fb9aa06f75208d","swim","swim","2613","","<p>When you are with a group (~5 people) in a lively restaurant, can you follow the group's conversation?</p>","10","","","","survey","","","","","","","","","","","","","","","","ssq-03","10"
"html-button-response","113","3623192","0.0-12.0-3.0","c85c87690290b8e6a451faf397cf56f7e10f0a68b173aa4ba9fb9aa06f75208d","swim","swim","3025","","<p>Based on the sound of a bus or truck, can you tell whether it is moving towards or away from you?</p>","10","","","","survey","","","","","","","","","","","","","","","","ssq-04","10"
"html-button-response","114","3626076","0.0-12.0-4.0","c85c87690290b8e6a451faf397cf56f7e10f0a68b173aa4ba9fb9aa06f75208d","swim","swim","2630","","<p>When you are in an unknown environment, can you tell from which direction a brief sound originates?</p>","10","","","","survey","","","","","","","","","","","","","","","","ssq-05","10"
"html-button-response","115","3633541","0.0-12.0-5.0","c85c87690290b8e6a451faf397cf56f7e10f0a68b173aa4ba9fb9aa06f75208d","swim","swim","7210","","<p>Are you able to ignore distracting sounds when you concentrate on a specific aspect of your acoustic surrounding?</p>","7","","","","survey","","","","","","","","","","","","","","","","ssq-06","7"
"fullscreen","116","3634814","0.0-13.0","c85c87690290b8e6a451faf397cf56f7e10f0a68b173aa4ba9fb9aa06f75208d","swim","swim","","","","","","","","","true","","","","","","","","","","","","","","","",""
