"trial_type","trial_index","time_elapsed","internal_node_id","ParticipantID","firstStory","scramStory","rt","url","stimulus","button_pressed","key_press","correctRESP","correct","designation","success","letterStim","letterType","ONSET","TIMEOUT","CONDITION","Participant","ONSET_ACTUAL","RT","RESP","ACC","STORY","responses","response","type","surveyQuestion","QRESP"
"pavlovia","0","2","0.0-0.0","12f0c3a6431cf9ec21ccbceca23375039d814760f4a5893a47ef2fd1039c2d29","arctic","swim","","","","","","","","","","","","","","","","","","","","","","","","",""
"external-html","1","10891","0.0-1.0","12f0c3a6431cf9ec21ccbceca23375039d814760f4a5893a47ef2fd1039c2d29","arctic","swim","10728","consent/consent_updated.html","","","","","","","","","","","","","","","","","","","","","","",""
"html-button-response","2","55635","0.0-2.0-0.0","12f0c3a6431cf9ec21ccbceca23375039d814760f4a5893a47ef2fd1039c2d29","arctic","swim","44743","","<p>Before we begin the main task, you will complete a short volume calibration and headphone check.</p><p>Please make sure you are in a quiet listening environment, that you are wearing headphones, and that your computer's volume is turned on.<p></p>","0","","","","","","","","","","","","","","","","","","","","",""
"html-button-response","3","60770","0.0-2.0-1.0","12f0c3a6431cf9ec21ccbceca23375039d814760f4a5893a47ef2fd1039c2d29","arctic","swim","4884","","<p>The volume calibration will be first.</p><p>You will hear a thirty-second noise. Please adjust your computer's volume so that this noise is being presented at a comfortable level.<p></p>","0","","","","","","","","","","","","","","","","","","","","",""
"audio-button-response","4","63520","0.0-2.0-2.0","12f0c3a6431cf9ec21ccbceca23375039d814760f4a5893a47ef2fd1039c2d29","arctic","swim","2497","","audio/volumetest.mp3","0","","","","","","","","","","","","","","","","","","","","",""
"html-keyboard-response","5","69620","0.0-3.0-0.0","12f0c3a6431cf9ec21ccbceca23375039d814760f4a5893a47ef2fd1039c2d29","arctic","swim","6100","","<p>You will now complete a short headphone check.</p><p>On each trial, you will hear three tones. One of these tones will be quieter than the others. Your task is to identify whether the quiet tone occurred first, second, or third.</p><p>There are six trials in total.<p></p><p></p>(Press SPACEBAR to begin)","","32","","","","","","","","","","","","","","","","","","","",""
"html-keyboard-response","6","70371","0.0-3.0-1.0-0.0","12f0c3a6431cf9ec21ccbceca23375039d814760f4a5893a47ef2fd1039c2d29","arctic","swim","null","","<div style=""font-size:60px;"">+</div>","","null","","","","","","","","","","","","","","","","","","","",""
"audio-button-response","7","75257","0.0-3.0-1.0-1.0","12f0c3a6431cf9ec21ccbceca23375039d814760f4a5893a47ef2fd1039c2d29","arctic","swim","4885","","audio/t2_2.mp3","1","","1","1","headphone-test","","","","","","","","","","","","","","","","",""
"html-keyboard-response","8","75766","0.0-3.0-1.0-2.0","12f0c3a6431cf9ec21ccbceca23375039d814760f4a5893a47ef2fd1039c2d29","arctic","swim","null","","<p>Correct</p>","","null","","","","","","","","","","","","","","","","","","","",""
"html-keyboard-response","9","76273","0.0-3.0-1.0-0.1","12f0c3a6431cf9ec21ccbceca23375039d814760f4a5893a47ef2fd1039c2d29","arctic","swim","null","","<div style=""font-size:60px;"">+</div>","","null","","","","","","","","","","","","","","","","","","","",""
"audio-button-response","10","80903","0.0-3.0-1.0-1.1","12f0c3a6431cf9ec21ccbceca23375039d814760f4a5893a47ef2fd1039c2d29","arctic","swim","4630","","audio/t3_2.mp3","2","","2","1","headphone-test","","","","","","","","","","","","","","","","",""
"html-keyboard-response","11","81404","0.0-3.0-1.0-2.1","12f0c3a6431cf9ec21ccbceca23375039d814760f4a5893a47ef2fd1039c2d29","arctic","swim","null","","<p>Correct</p>","","null","","","","","","","","","","","","","","","","","","","",""
"html-keyboard-response","12","81913","0.0-3.0-1.0-0.2","12f0c3a6431cf9ec21ccbceca23375039d814760f4a5893a47ef2fd1039c2d29","arctic","swim","null","","<div style=""font-size:60px;"">+</div>","","null","","","","","","","","","","","","","","","","","","","",""
"audio-button-response","13","87198","0.0-3.0-1.0-1.2","12f0c3a6431cf9ec21ccbceca23375039d814760f4a5893a47ef2fd1039c2d29","arctic","swim","5283","","audio/t1_2.mp3","0","","0","1","headphone-test","","","","","","","","","","","","","","","","",""
"html-keyboard-response","14","87704","0.0-3.0-1.0-2.2","12f0c3a6431cf9ec21ccbceca23375039d814760f4a5893a47ef2fd1039c2d29","arctic","swim","null","","<p>Correct</p>","","null","","","","","","","","","","","","","","","","","","","",""
"html-keyboard-response","15","88213","0.0-3.0-1.0-0.3","12f0c3a6431cf9ec21ccbceca23375039d814760f4a5893a47ef2fd1039c2d29","arctic","swim","null","","<div style=""font-size:60px;"">+</div>","","null","","","","","","","","","","","","","","","","","","","",""
"audio-button-response","16","92724","0.0-3.0-1.0-1.3","12f0c3a6431cf9ec21ccbceca23375039d814760f4a5893a47ef2fd1039c2d29","arctic","swim","4511","","audio/t1_1.mp3","0","","0","1","headphone-test","","","","","","","","","","","","","","","","",""
"html-keyboard-response","17","93227","0.0-3.0-1.0-2.3","12f0c3a6431cf9ec21ccbceca23375039d814760f4a5893a47ef2fd1039c2d29","arctic","swim","null","","<p>Correct</p>","","null","","","","","","","","","","","","","","","","","","","",""
"html-keyboard-response","18","93734","0.0-3.0-1.0-0.4","12f0c3a6431cf9ec21ccbceca23375039d814760f4a5893a47ef2fd1039c2d29","arctic","swim","null","","<div style=""font-size:60px;"">+</div>","","null","","","","","","","","","","","","","","","","","","","",""
"audio-button-response","19","98131","0.0-3.0-1.0-1.4","12f0c3a6431cf9ec21ccbceca23375039d814760f4a5893a47ef2fd1039c2d29","arctic","swim","4397","","audio/t3_1.mp3","2","","2","1","headphone-test","","","","","","","","","","","","","","","","",""
"html-keyboard-response","20","98642","0.0-3.0-1.0-2.4","12f0c3a6431cf9ec21ccbceca23375039d814760f4a5893a47ef2fd1039c2d29","arctic","swim","null","","<p>Correct</p>","","null","","","","","","","","","","","","","","","","","","","",""
"html-keyboard-response","21","99148","0.0-3.0-1.0-0.5","12f0c3a6431cf9ec21ccbceca23375039d814760f4a5893a47ef2fd1039c2d29","arctic","swim","null","","<div style=""font-size:60px;"">+</div>","","null","","","","","","","","","","","","","","","","","","","",""
"audio-button-response","22","102830","0.0-3.0-1.0-1.5","12f0c3a6431cf9ec21ccbceca23375039d814760f4a5893a47ef2fd1039c2d29","arctic","swim","3680","","audio/t2_1.mp3","1","","1","1","headphone-test","","","","","","","","","","","","","","","","",""
"html-keyboard-response","23","103332","0.0-3.0-1.0-2.5","12f0c3a6431cf9ec21ccbceca23375039d814760f4a5893a47ef2fd1039c2d29","arctic","swim","null","","<p>Correct</p>","","null","","","","","","","","","","","","","","","","","","","",""
"fullscreen","24","323522","0.0-4.0","12f0c3a6431cf9ec21ccbceca23375039d814760f4a5893a47ef2fd1039c2d29","arctic","swim","","","","","","","","","true","","","","","","","","","","","","","","","",""
"html-button-response","25","336103","0.0-5.0-0.0","12f0c3a6431cf9ec21ccbceca23375039d814760f4a5893a47ef2fd1039c2d29","arctic","swim","12580","","<p>There are two blocks to this experiment.</p><p>In each block, you will hear a ~13.5 minute story. One of the stories will be scrambled. Please listen carefully to both stories and understand them as best you can.</p><p>After each story, you will be asked some questions to assess your comprehension.</p>","0","","","","","","","","","","","","","","","","","","","","",""
"html-button-response","26","348322","0.0-5.0-1.0","12f0c3a6431cf9ec21ccbceca23375039d814760f4a5893a47ef2fd1039c2d29","arctic","swim","12218","","<p>During each story, there will be an additional task.</p><p>A letter will occasionally appear on the screen.</br>Your job is to - as quickly as you can - decide whether the letter is lowercase or uppercase and press one of two keys on the keyboard:</p><p>If the letter is <b>lowercase</b>, press key &lt;<b>x</b>&gt;.</p><p>If the letter is <b>uppercase</b>, press key &lt;<b>m</b>&gt;.</p>","0","","","","","","","","","","","","","","","","","","","","",""
"html-keyboard-response","27","356517","0.0-5.0-2.0","12f0c3a6431cf9ec21ccbceca23375039d814760f4a5893a47ef2fd1039c2d29","arctic","swim","8195","","<p>Because we want your responses to be as quick as possible, please keep your index fingers over the keys while listening.</p><p>Each block lasts about 20 minutes.</p><p><b>Press &lt;x&gt; or &lt;m&gt; to start the first block!</b></p>","","88","","","","","","","","","","","","","","","","","","","",""
"html-keyboard-response","28","357019","0.0-6.0-0.0-0.0","12f0c3a6431cf9ec21ccbceca23375039d814760f4a5893a47ef2fd1039c2d29","arctic","swim","null","","<div style=""font-size:60px;"" tabindex=""0"">+</div>","","null","","","","","","","","","","","","","","","","","","","",""
"dual-task","null","null","null","","arctic","swim","1224","","q","null","77","88","0","arctic-dual-task","","q","lowercase","12000","0","6","12f0c3a6431cf9ec21ccbceca23375039d814760f4a5893a47ef2fd1039c2d29","12010.400000095367","1224","77","0","arctic","","","","",""
"dual-task","null","null","null","","arctic","swim","783.7999999523163","","T","null","77","77","1","arctic-dual-task","","T","uppercase","24000","0","6","12f0c3a6431cf9ec21ccbceca23375039d814760f4a5893a47ef2fd1039c2d29","24008.300000071526","783.7999999523163","77","1","arctic","","","","",""
"dual-task","null","null","null","","arctic","swim","673.6000000238419","","N","null","77","77","1","arctic-dual-task","","N","uppercase","36000","0","6","12f0c3a6431cf9ec21ccbceca23375039d814760f4a5893a47ef2fd1039c2d29","36012.10000002384","673.6000000238419","77","1","arctic","","","","",""
"dual-task","null","null","null","","arctic","swim","610.3000000715256","","Q","null","77","77","1","arctic-dual-task","","Q","uppercase","46000","0","6","12f0c3a6431cf9ec21ccbceca23375039d814760f4a5893a47ef2fd1039c2d29","46013.10000002384","610.3000000715256","77","1","arctic","","","","",""
"dual-task","null","null","null","","arctic","swim","470.10000002384186","","a","null","88","88","1","arctic-dual-task","","a","lowercase","60000","0","6","12f0c3a6431cf9ec21ccbceca23375039d814760f4a5893a47ef2fd1039c2d29","60015.5","470.10000002384186","88","1","arctic","","","","",""
"dual-task","null","null","null","","arctic","swim","610.5","","r","null","88","88","1","arctic-dual-task","","r","lowercase","70000","0","6","12f0c3a6431cf9ec21ccbceca23375039d814760f4a5893a47ef2fd1039c2d29","70009","610.5","88","1","arctic","","","","",""
"dual-task","null","null","null","","arctic","swim","532.6000000238419","","H","null","77","77","1","arctic-dual-task","","H","uppercase","82000","0","6","12f0c3a6431cf9ec21ccbceca23375039d814760f4a5893a47ef2fd1039c2d29","82009.40000009537","532.6000000238419","77","1","arctic","","","","",""
"dual-task","null","null","null","","arctic","swim","623.4000000953674","","T","null","77","77","1","arctic-dual-task","","T","uppercase","92000","0","6","12f0c3a6431cf9ec21ccbceca23375039d814760f4a5893a47ef2fd1039c2d29","92003.5","623.4000000953674","77","1","arctic","","","","",""
"dual-task","null","null","null","","arctic","swim","880","","T","null","77","77","1","arctic-dual-task","","T","uppercase","104000","0","6","12f0c3a6431cf9ec21ccbceca23375039d814760f4a5893a47ef2fd1039c2d29","104004.5","880","77","1","arctic","","","","",""
"dual-task","null","null","null","","arctic","swim","568.5999999046326","","h","null","88","88","1","arctic-dual-task","","h","lowercase","112000","0","6","12f0c3a6431cf9ec21ccbceca23375039d814760f4a5893a47ef2fd1039c2d29","112000.90000009537","568.5999999046326","88","1","arctic","","","","",""
"dual-task","null","null","null","","arctic","swim","752.6000000238419","","g","null","88","88","1","arctic-dual-task","","g","lowercase","120000","0","6","12f0c3a6431cf9ec21ccbceca23375039d814760f4a5893a47ef2fd1039c2d29","120015.5","752.6000000238419","88","1","arctic","","","","",""
"dual-task","null","null","null","","arctic","swim","722.1000000238419","","a","null","88","88","1","arctic-dual-task","","a","lowercase","130000","0","6","12f0c3a6431cf9ec21ccbceca23375039d814760f4a5893a47ef2fd1039c2d29","130014.30000007153","722.1000000238419","88","1","arctic","","","","",""
"dual-task","null","null","null","","arctic","swim","727.3999999761581","","q","null","88","88","1","arctic-dual-task","","q","lowercase","136000","0","6","12f0c3a6431cf9ec21ccbceca23375039d814760f4a5893a47ef2fd1039c2d29","136007.40000009537","727.3999999761581","88","1","arctic","","","","",""
"dual-task","null","null","null","","arctic","swim","698.9000000953674","","E","null","77","77","1","arctic-dual-task","","E","uppercase","144000","0","6","12f0c3a6431cf9ec21ccbceca23375039d814760f4a5893a47ef2fd1039c2d29","144010","698.9000000953674","77","1","arctic","","","","",""
"dual-task","null","null","null","","arctic","swim","854.7999999523163","","G","null","77","77","1","arctic-dual-task","","G","uppercase","158000","0","6","12f0c3a6431cf9ec21ccbceca23375039d814760f4a5893a47ef2fd1039c2d29","158006.70000004768","854.7999999523163","77","1","arctic","","","","",""
"dual-task","null","null","null","","arctic","swim","612.5","","B","null","77","77","1","arctic-dual-task","","B","uppercase","168000","0","6","12f0c3a6431cf9ec21ccbceca23375039d814760f4a5893a47ef2fd1039c2d29","168000.90000009537","612.5","77","1","arctic","","","","",""
"dual-task","null","null","null","","arctic","swim","550.6999999284744","","N","null","77","77","1","arctic-dual-task","","N","uppercase","178000","0","6","12f0c3a6431cf9ec21ccbceca23375039d814760f4a5893a47ef2fd1039c2d29","178002.90000009537","550.6999999284744","77","1","arctic","","","","",""
"dual-task","null","null","null","","arctic","swim","571.5","","R","null","77","77","1","arctic-dual-task","","R","uppercase","188000","0","6","12f0c3a6431cf9ec21ccbceca23375039d814760f4a5893a47ef2fd1039c2d29","188007.10000002384","571.5","77","1","arctic","","","","",""
"dual-task","null","null","null","","arctic","swim","501.89999997615814","","F","null","77","77","1","arctic-dual-task","","F","uppercase","202000","0","6","12f0c3a6431cf9ec21ccbceca23375039d814760f4a5893a47ef2fd1039c2d29","202002.30000007153","501.89999997615814","77","1","arctic","","","","",""
"dual-task","null","null","null","","arctic","swim","565.7999999523163","","b","null","88","88","1","arctic-dual-task","","b","lowercase","214000","0","6","12f0c3a6431cf9ec21ccbceca23375039d814760f4a5893a47ef2fd1039c2d29","214008.30000007153","565.7999999523163","88","1","arctic","","","","",""
"dual-task","null","null","null","","arctic","swim","606.1000000238419","","a","null","88","88","1","arctic-dual-task","","a","lowercase","220000","0","6","12f0c3a6431cf9ec21ccbceca23375039d814760f4a5893a47ef2fd1039c2d29","220013.10000002384","606.1000000238419","88","1","arctic","","","","",""
"dual-task","null","null","null","","arctic","swim","619.5","","N","null","77","77","1","arctic-dual-task","","N","uppercase","232000","0","6","12f0c3a6431cf9ec21ccbceca23375039d814760f4a5893a47ef2fd1039c2d29","232000","619.5","77","1","arctic","","","","",""
"dual-task","null","null","null","","arctic","swim","612.1000000238419","","R","null","77","77","1","arctic-dual-task","","R","uppercase","240000","0","6","12f0c3a6431cf9ec21ccbceca23375039d814760f4a5893a47ef2fd1039c2d29","240006.10000002384","612.1000000238419","77","1","arctic","","","","",""
"dual-task","null","null","null","","arctic","swim","555.8000000715256","","F","null","77","77","1","arctic-dual-task","","F","uppercase","248000","0","6","12f0c3a6431cf9ec21ccbceca23375039d814760f4a5893a47ef2fd1039c2d29","248002.10000002384","555.8000000715256","77","1","arctic","","","","",""
"dual-task","null","null","null","","arctic","swim","601","","D","null","77","77","1","arctic-dual-task","","D","uppercase","258000","0","6","12f0c3a6431cf9ec21ccbceca23375039d814760f4a5893a47ef2fd1039c2d29","258002.70000004768","601","77","1","arctic","","","","",""
"dual-task","null","null","null","","arctic","swim","589.1999999284744","","R","null","77","77","1","arctic-dual-task","","R","uppercase","270000","0","6","12f0c3a6431cf9ec21ccbceca23375039d814760f4a5893a47ef2fd1039c2d29","270004.90000009537","589.1999999284744","77","1","arctic","","","","",""
"dual-task","null","null","null","","arctic","swim","639.5999999046326","","t","null","88","88","1","arctic-dual-task","","t","lowercase","282000","0","6","12f0c3a6431cf9ec21ccbceca23375039d814760f4a5893a47ef2fd1039c2d29","282010.90000009537","639.5999999046326","88","1","arctic","","","","",""
"dual-task","null","null","null","","arctic","swim","490.6999999284744","","B","null","77","77","1","arctic-dual-task","","B","uppercase","292000","0","6","12f0c3a6431cf9ec21ccbceca23375039d814760f4a5893a47ef2fd1039c2d29","292011.3000000715","490.6999999284744","77","1","arctic","","","","",""
"dual-task","null","null","null","","arctic","swim","581.2000000476837","","D","null","77","77","1","arctic-dual-task","","D","uppercase","300000","0","6","12f0c3a6431cf9ec21ccbceca23375039d814760f4a5893a47ef2fd1039c2d29","300005","581.2000000476837","77","1","arctic","","","","",""
"dual-task","null","null","null","","arctic","swim","727.6999999284744","","d","null","88","88","1","arctic-dual-task","","d","lowercase","306000","0","6","12f0c3a6431cf9ec21ccbceca23375039d814760f4a5893a47ef2fd1039c2d29","306012.3000000715","727.6999999284744","88","1","arctic","","","","",""
"dual-task","null","null","null","","arctic","swim","720","","f","null","88","88","1","arctic-dual-task","","f","lowercase","312000","0","6","12f0c3a6431cf9ec21ccbceca23375039d814760f4a5893a47ef2fd1039c2d29","312000.90000009537","720","88","1","arctic","","","","",""
"dual-task","null","null","null","","arctic","swim","664.0999999046326","","Q","null","77","77","1","arctic-dual-task","","Q","uppercase","318000","0","6","12f0c3a6431cf9ec21ccbceca23375039d814760f4a5893a47ef2fd1039c2d29","318001.3000000715","664.0999999046326","77","1","arctic","","","","",""
"dual-task","null","null","null","","arctic","swim","499.7999999523163","","e","null","88","88","1","arctic-dual-task","","e","lowercase","332000","0","6","12f0c3a6431cf9ec21ccbceca23375039d814760f4a5893a47ef2fd1039c2d29","332002.2000000477","499.7999999523163","88","1","arctic","","","","",""
"dual-task","null","null","null","","arctic","swim","611","","G","null","77","77","1","arctic-dual-task","","G","uppercase","344000","0","6","12f0c3a6431cf9ec21ccbceca23375039d814760f4a5893a47ef2fd1039c2d29","344004.2000000477","611","77","1","arctic","","","","",""
"dual-task","null","null","null","","arctic","swim","1023","","g","null","88","88","1","arctic-dual-task","","g","lowercase","350000","0","6","12f0c3a6431cf9ec21ccbceca23375039d814760f4a5893a47ef2fd1039c2d29","350009.8000000715","1023","88","1","arctic","","","","",""
"dual-task","null","null","null","","arctic","swim","764.8000000715256","","n","null","88","88","1","arctic-dual-task","","n","lowercase","356000","0","6","12f0c3a6431cf9ec21ccbceca23375039d814760f4a5893a47ef2fd1039c2d29","356001","764.8000000715256","88","1","arctic","","","","",""
"dual-task","null","null","null","","arctic","swim","580.2999999523163","","e","null","88","88","1","arctic-dual-task","","e","lowercase","368000","0","6","12f0c3a6431cf9ec21ccbceca23375039d814760f4a5893a47ef2fd1039c2d29","368002.2000000477","580.2999999523163","88","1","arctic","","","","",""
"dual-task","null","null","null","","arctic","swim","620.1000000238419","","A","null","77","77","1","arctic-dual-task","","A","uppercase","378000","0","6","12f0c3a6431cf9ec21ccbceca23375039d814760f4a5893a47ef2fd1039c2d29","378002.2000000477","620.1000000238419","77","1","arctic","","","","",""
"dual-task","null","null","null","","arctic","swim","570.7000000476837","","B","null","77","77","1","arctic-dual-task","","B","uppercase","390000","0","6","12f0c3a6431cf9ec21ccbceca23375039d814760f4a5893a47ef2fd1039c2d29","390007","570.7000000476837","77","1","arctic","","","","",""
"dual-task","null","null","null","","arctic","swim","447.59999990463257","","t","null","88","88","1","arctic-dual-task","","t","lowercase","402000","0","6","12f0c3a6431cf9ec21ccbceca23375039d814760f4a5893a47ef2fd1039c2d29","402008.90000009537","447.59999990463257","88","1","arctic","","","","",""
"dual-task","null","null","null","","arctic","swim","646.7000000476837","","G","null","77","77","1","arctic-dual-task","","G","uppercase","408000","0","6","12f0c3a6431cf9ec21ccbceca23375039d814760f4a5893a47ef2fd1039c2d29","408012.10000002384","646.7000000476837","77","1","arctic","","","","",""
"dual-task","null","null","null","","arctic","swim","689","","a","null","88","88","1","arctic-dual-task","","a","lowercase","414000","0","6","12f0c3a6431cf9ec21ccbceca23375039d814760f4a5893a47ef2fd1039c2d29","414012.40000009537","689","88","1","arctic","","","","",""
"dual-task","null","null","null","","arctic","swim","570","","r","null","88","88","1","arctic-dual-task","","r","lowercase","428000","0","6","12f0c3a6431cf9ec21ccbceca23375039d814760f4a5893a47ef2fd1039c2d29","428007.90000009537","570","88","1","arctic","","","","",""
"dual-task","null","null","null","","arctic","swim","566.8000000715256","","n","null","88","88","1","arctic-dual-task","","n","lowercase","442000","0","6","12f0c3a6431cf9ec21ccbceca23375039d814760f4a5893a47ef2fd1039c2d29","442003.5","566.8000000715256","88","1","arctic","","","","",""
"dual-task","null","null","null","","arctic","swim","1467.1999999284744","","r","null","88","88","1","arctic-dual-task","","r","lowercase","448000","0","6","12f0c3a6431cf9ec21ccbceca23375039d814760f4a5893a47ef2fd1039c2d29","448000.3000000715","1467.1999999284744","88","1","arctic","","","","",""
"dual-task","null","null","null","","arctic","swim","653","","h","null","77","88","0","arctic-dual-task","","h","lowercase","458000","0","6","12f0c3a6431cf9ec21ccbceca23375039d814760f4a5893a47ef2fd1039c2d29","458007.2000000477","653","77","0","arctic","","","","",""
"dual-task","null","null","null","","arctic","swim","552.3000000715256","","q","null","88","88","1","arctic-dual-task","","q","lowercase","468000","0","6","12f0c3a6431cf9ec21ccbceca23375039d814760f4a5893a47ef2fd1039c2d29","468000","552.3000000715256","88","1","arctic","","","","",""
"dual-task","null","null","null","","arctic","swim","644.8999999761581","","H","null","77","77","1","arctic-dual-task","","H","uppercase","476000","0","6","12f0c3a6431cf9ec21ccbceca23375039d814760f4a5893a47ef2fd1039c2d29","476000.3000000715","644.8999999761581","77","1","arctic","","","","",""
"dual-task","null","null","null","","arctic","swim","685.8999999761581","","t","null","88","88","1","arctic-dual-task","","t","lowercase","486000","0","6","12f0c3a6431cf9ec21ccbceca23375039d814760f4a5893a47ef2fd1039c2d29","486010.2000000477","685.8999999761581","88","1","arctic","","","","",""
"dual-task","null","null","null","","arctic","swim","661.1000000238419","","e","null","88","88","1","arctic-dual-task","","e","lowercase","496000","0","6","12f0c3a6431cf9ec21ccbceca23375039d814760f4a5893a47ef2fd1039c2d29","496001.2000000477","661.1000000238419","88","1","arctic","","","","",""
"dual-task","null","null","null","","arctic","swim","747.1999999284744","","h","null","88","88","1","arctic-dual-task","","h","lowercase","506000","0","6","12f0c3a6431cf9ec21ccbceca23375039d814760f4a5893a47ef2fd1039c2d29","506008.3000000715","747.1999999284744","88","1","arctic","","","","",""
"dual-task","null","null","null","","arctic","swim","666.8999999761581","","E","null","77","77","1","arctic-dual-task","","E","uppercase","516000","0","6","12f0c3a6431cf9ec21ccbceca23375039d814760f4a5893a47ef2fd1039c2d29","516004.40000009537","666.8999999761581","77","1","arctic","","","","",""
"dual-task","null","null","null","","arctic","swim","689.7999999523163","","g","null","88","88","1","arctic-dual-task","","g","lowercase","524000","0","6","12f0c3a6431cf9ec21ccbceca23375039d814760f4a5893a47ef2fd1039c2d29","524012.2000000477","689.7999999523163","88","1","arctic","","","","",""
"dual-task","null","null","null","","arctic","swim","653.1000000238419","","n","null","88","88","1","arctic-dual-task","","n","lowercase","532000","0","6","12f0c3a6431cf9ec21ccbceca23375039d814760f4a5893a47ef2fd1039c2d29","532010.9000000954","653.1000000238419","88","1","arctic","","","","",""
"dual-task","null","null","null","","arctic","swim","900.1000000238419","","G","null","77","77","1","arctic-dual-task","","G","uppercase","540000","0","6","12f0c3a6431cf9ec21ccbceca23375039d814760f4a5893a47ef2fd1039c2d29","540015.3000000715","900.1000000238419","77","1","arctic","","","","",""
"dual-task","null","null","null","","arctic","swim","794.8999999761581","","F","null","77","77","1","arctic-dual-task","","F","uppercase","548000","0","6","12f0c3a6431cf9ec21ccbceca23375039d814760f4a5893a47ef2fd1039c2d29","548011.1000000238","794.8999999761581","77","1","arctic","","","","",""
"dual-task","null","null","null","","arctic","swim","964.2000000476837","","g","null","88","88","1","arctic-dual-task","","g","lowercase","558000","0","6","12f0c3a6431cf9ec21ccbceca23375039d814760f4a5893a47ef2fd1039c2d29","558001.6000000238","964.2000000476837","88","1","arctic","","","","",""
"dual-task","null","null","null","","arctic","swim","737.8000000715256","","f","null","88","88","1","arctic-dual-task","","f","lowercase","566000","0","6","12f0c3a6431cf9ec21ccbceca23375039d814760f4a5893a47ef2fd1039c2d29","566000.1000000238","737.8000000715256","88","1","arctic","","","","",""
"dual-task","null","null","null","","arctic","swim","674.3000000715256","","A","null","77","77","1","arctic-dual-task","","A","uppercase","574000","0","6","12f0c3a6431cf9ec21ccbceca23375039d814760f4a5893a47ef2fd1039c2d29","574011.1000000238","674.3000000715256","77","1","arctic","","","","",""
"dual-task","null","null","null","","arctic","swim","806","","R","null","77","77","1","arctic-dual-task","","R","uppercase","582000","0","6","12f0c3a6431cf9ec21ccbceca23375039d814760f4a5893a47ef2fd1039c2d29","582012.4000000954","806","77","1","arctic","","","","",""
"dual-task","null","null","null","","arctic","swim","665.1000000238419","","b","null","88","88","1","arctic-dual-task","","b","lowercase","588000","0","6","12f0c3a6431cf9ec21ccbceca23375039d814760f4a5893a47ef2fd1039c2d29","588006","665.1000000238419","88","1","arctic","","","","",""
"dual-task","null","null","null","","arctic","swim","604.3000000715256","","d","null","88","88","1","arctic-dual-task","","d","lowercase","596000","0","6","12f0c3a6431cf9ec21ccbceca23375039d814760f4a5893a47ef2fd1039c2d29","596003.6000000238","604.3000000715256","88","1","arctic","","","","",""
"dual-task","null","null","null","","arctic","swim","609.6999999284744","","A","null","77","77","1","arctic-dual-task","","A","uppercase","606000","0","6","12f0c3a6431cf9ec21ccbceca23375039d814760f4a5893a47ef2fd1039c2d29","606006.4000000954","609.6999999284744","77","1","arctic","","","","",""
"dual-task","null","null","null","","arctic","swim","542.8999999761581","","B","null","77","77","1","arctic-dual-task","","B","uppercase","616000","0","6","12f0c3a6431cf9ec21ccbceca23375039d814760f4a5893a47ef2fd1039c2d29","616002.1000000238","542.8999999761581","77","1","arctic","","","","",""
"dual-task","null","null","null","","arctic","swim","559.3000000715256","","b","null","88","88","1","arctic-dual-task","","b","lowercase","626000","0","6","12f0c3a6431cf9ec21ccbceca23375039d814760f4a5893a47ef2fd1039c2d29","626007.6000000238","559.3000000715256","88","1","arctic","","","","",""
"dual-task","null","null","null","","arctic","swim","602.5","","Q","null","77","77","1","arctic-dual-task","","Q","uppercase","634000","0","6","12f0c3a6431cf9ec21ccbceca23375039d814760f4a5893a47ef2fd1039c2d29","634002.3000000715","602.5","77","1","arctic","","","","",""
"dual-task","null","null","null","","arctic","swim","854.6000000238419","","d","null","88","88","1","arctic-dual-task","","d","lowercase","640000","0","6","12f0c3a6431cf9ec21ccbceca23375039d814760f4a5893a47ef2fd1039c2d29","640015.1000000238","854.6000000238419","88","1","arctic","","","","",""
"dual-task","null","null","null","","arctic","swim","588.1000000238419","","D","null","77","77","1","arctic-dual-task","","D","uppercase","648000","0","6","12f0c3a6431cf9ec21ccbceca23375039d814760f4a5893a47ef2fd1039c2d29","648009.3000000715","588.1000000238419","77","1","arctic","","","","",""
"dual-task","null","null","null","","arctic","swim","619.2000000476837","","E","null","77","77","1","arctic-dual-task","","E","uppercase","660000","0","6","12f0c3a6431cf9ec21ccbceca23375039d814760f4a5893a47ef2fd1039c2d29","660006","619.2000000476837","77","1","arctic","","","","",""
"dual-task","null","null","null","","arctic","swim","693.6999999284744","","T","null","77","77","1","arctic-dual-task","","T","uppercase","668000","0","6","12f0c3a6431cf9ec21ccbceca23375039d814760f4a5893a47ef2fd1039c2d29","668000.8000000715","693.6999999284744","77","1","arctic","","","","",""
"dual-task","null","null","null","","arctic","swim","635","","h","null","88","88","1","arctic-dual-task","","h","lowercase","676000","0","6","12f0c3a6431cf9ec21ccbceca23375039d814760f4a5893a47ef2fd1039c2d29","676005.8000000715","635","88","1","arctic","","","","",""
"dual-task","null","null","null","","arctic","swim","636.0999999046326","","e","null","88","88","1","arctic-dual-task","","e","lowercase","686000","0","6","12f0c3a6431cf9ec21ccbceca23375039d814760f4a5893a47ef2fd1039c2d29","686004.4000000954","636.0999999046326","88","1","arctic","","","","",""
"dual-task","null","null","null","","arctic","swim","644.7000000476837","","F","null","77","77","1","arctic-dual-task","","F","uppercase","692000","0","6","12f0c3a6431cf9ec21ccbceca23375039d814760f4a5893a47ef2fd1039c2d29","692013.2000000477","644.7000000476837","77","1","arctic","","","","",""
"dual-task","null","null","null","","arctic","swim","621.5","","D","null","77","77","1","arctic-dual-task","","D","uppercase","702000","0","6","12f0c3a6431cf9ec21ccbceca23375039d814760f4a5893a47ef2fd1039c2d29","702008.6000000238","621.5","77","1","arctic","","","","",""
"dual-task","null","null","null","","arctic","swim","708.5","","N","null","77","77","1","arctic-dual-task","","N","uppercase","710000","0","6","12f0c3a6431cf9ec21ccbceca23375039d814760f4a5893a47ef2fd1039c2d29","710013.3000000715","708.5","77","1","arctic","","","","",""
"dual-task","null","null","null","","arctic","swim","622.6999999284744","","r","null","88","88","1","arctic-dual-task","","r","lowercase","716000","0","6","12f0c3a6431cf9ec21ccbceca23375039d814760f4a5893a47ef2fd1039c2d29","716010.7000000477","622.6999999284744","88","1","arctic","","","","",""
"dual-task","null","null","null","","arctic","swim","NA","","t","null","NA","88","0","arctic-dual-task","","t","lowercase","724000","1","6","12f0c3a6431cf9ec21ccbceca23375039d814760f4a5893a47ef2fd1039c2d29","724003.3000000715","NA","NA","0","arctic","","","","",""
"dual-task","null","null","null","","arctic","swim","700.6999999284744","","E","null","77","77","1","arctic-dual-task","","E","uppercase","732000","0","6","12f0c3a6431cf9ec21ccbceca23375039d814760f4a5893a47ef2fd1039c2d29","732006.7000000477","700.6999999284744","77","1","arctic","","","","",""
"dual-task","null","null","null","","arctic","swim","699.8999999761581","","d","null","88","88","1","arctic-dual-task","","d","lowercase","740000","0","6","12f0c3a6431cf9ec21ccbceca23375039d814760f4a5893a47ef2fd1039c2d29","740012.2000000477","699.8999999761581","88","1","arctic","","","","",""
"dual-task","null","null","null","","arctic","swim","823","","H","null","77","77","1","arctic-dual-task","","H","uppercase","748000","0","6","12f0c3a6431cf9ec21ccbceca23375039d814760f4a5893a47ef2fd1039c2d29","748003.2000000477","823","77","1","arctic","","","","",""
"dual-task","null","null","null","","arctic","swim","698.1000000238419","","Q","null","77","77","1","arctic-dual-task","","Q","uppercase","760000","0","6","12f0c3a6431cf9ec21ccbceca23375039d814760f4a5893a47ef2fd1039c2d29","760010","698.1000000238419","77","1","arctic","","","","",""
"dual-task","null","null","null","","arctic","swim","587.2000000476837","","f","null","88","88","1","arctic-dual-task","","f","lowercase","770000","0","6","12f0c3a6431cf9ec21ccbceca23375039d814760f4a5893a47ef2fd1039c2d29","770011.1000000238","587.2000000476837","88","1","arctic","","","","",""
"dual-task","null","null","null","","arctic","swim","728.7999999523163","","b","null","88","88","1","arctic-dual-task","","b","lowercase","776000","0","6","12f0c3a6431cf9ec21ccbceca23375039d814760f4a5893a47ef2fd1039c2d29","776000.3000000715","728.7999999523163","88","1","arctic","","","","",""
"dual-task","null","null","null","","arctic","swim","612","","H","null","77","77","1","arctic-dual-task","","H","uppercase","790000","0","6","12f0c3a6431cf9ec21ccbceca23375039d814760f4a5893a47ef2fd1039c2d29","790015.1000000238","612","77","1","arctic","","","","",""
"audio-keyboard-response","29","1155078","0.0-6.0-0.0-1.0","12f0c3a6431cf9ec21ccbceca23375039d814760f4a5893a47ef2fd1039c2d29","arctic","swim","null","","audio/story_arctic.mp3","","null","","","","","","","","","","","","","","","","","","","",""
"html-button-response","30","1159327","0.0-6.0-0.0-2.0","12f0c3a6431cf9ec21ccbceca23375039d814760f4a5893a47ef2fd1039c2d29","arctic","swim","4247","","<p>This concludes the story. Thank you for listening.</p><p>You will now answer some questions about the content of the story.</p>","0","","","","","","","","","","","","","","","","","","","","",""
"survey-multi-choice","31","1164720","0.0-6.0-0.0-3.0-0.0","12f0c3a6431cf9ec21ccbceca23375039d814760f4a5893a47ef2fd1039c2d29","arctic","swim","5392","","<b>Which dog on the narrator&#39;s dog team never followed instructions?</b>","","","","1","arctic-comprehension","","","","","","","","","","","","","{""Q0"":""Robert""}","","","",""
"survey-multi-choice","32","1167854","0.0-6.0-0.0-3.0-0.1","12f0c3a6431cf9ec21ccbceca23375039d814760f4a5893a47ef2fd1039c2d29","arctic","swim","2881","","<b>What is the name of the narrator&#39;s neighbour?</b>","","","","1","arctic-comprehension","","","","","","","","","","","","","{""Q0"":""Dave""}","","","",""
"survey-multi-choice","33","1176354","0.0-6.0-0.0-3.0-0.2","12f0c3a6431cf9ec21ccbceca23375039d814760f4a5893a47ef2fd1039c2d29","arctic","swim","8248","","<b>What was the objective of the narrator&#39;s expedition?</b>","","","","1","arctic-comprehension","","","","","","","","","","","","","{""Q0"":""Dogsled across Arctic America""}","","","",""
"survey-multi-choice","34","1183612","0.0-6.0-0.0-3.0-0.3","12f0c3a6431cf9ec21ccbceca23375039d814760f4a5893a47ef2fd1039c2d29","arctic","swim","7006","","<b>How did the narrator&#39;s encounter with the polar bears end?</b>","","","","1","arctic-comprehension","","","","","","","","","","","","","{""Q0"":""The bears walked back to their den.""}","","","",""
"survey-multi-choice","35","1190556","0.0-6.0-0.0-3.0-0.4","12f0c3a6431cf9ec21ccbceca23375039d814760f4a5893a47ef2fd1039c2d29","arctic","swim","6692","","<b>How did the narrator prepare for her expedition?</b>","","","","1","arctic-comprehension","","","","","","","","","","","","","{""Q0"":""Trained in Alaska learning how to dogsled""}","","","",""
"survey-multi-choice","36","1196922","0.0-6.0-0.0-3.0-0.5","12f0c3a6431cf9ec21ccbceca23375039d814760f4a5893a47ef2fd1039c2d29","arctic","swim","6113","","<b>What were the weather conditions in the Arctic like the winter of the narrator&#39;s expedition?</b>","","","","1","arctic-comprehension","","","","","","","","","","","","","{""Q0"":""There were more storms than any other winter in recorded history.""}","","","",""
"survey-multi-choice","37","1202917","0.0-6.0-0.0-3.0-0.6","12f0c3a6431cf9ec21ccbceca23375039d814760f4a5893a47ef2fd1039c2d29","arctic","swim","5743","","<b>How many sponsorships did the narrator receive to support her expedition?</b>","","","","1","arctic-comprehension","","","","","","","","","","","","","{""Q0"":""None""}","","","",""
"survey-multi-choice","38","1211480","0.0-6.0-0.0-3.0-0.7","12f0c3a6431cf9ec21ccbceca23375039d814760f4a5893a47ef2fd1039c2d29","arctic","swim","8311","","<b>How did the dogs respond when they saw the bears?</b>","","","","1","arctic-comprehension","","","","","","","","","","","","","{""Q0"":""Approached them""}","","","",""
"survey-multi-choice","39","1217710","0.0-6.0-0.0-3.0-0.8","12f0c3a6431cf9ec21ccbceca23375039d814760f4a5893a47ef2fd1039c2d29","arctic","swim","5978","","<b>How did the narrator&#39;s neighbour respond when she told him about her expedition?</b>","","","","1","arctic-comprehension","","","","","","","","","","","","","{""Q0"":""He said she was going to fail.""}","","","",""
"survey-multi-choice","40","1222418","0.0-6.0-0.0-3.0-0.9","12f0c3a6431cf9ec21ccbceca23375039d814760f4a5893a47ef2fd1039c2d29","arctic","swim","4456","","<b>What did the narrator do for leisure while in her tent?</b>","","","","1","arctic-comprehension","","","","","","","","","","","","","{""Q0"":""Read""}","","","",""
"html-button-response","41","1225117","0.0-6.0-0.0-4.0","12f0c3a6431cf9ec21ccbceca23375039d814760f4a5893a47ef2fd1039c2d29","arctic","swim","2447","","<p>Thank you for your responses.</p><p>You will now answer some questions about your impressions of the story.</p>","0","","","","","","","","","","","","","","","","","","","","",""
"html-button-response","42","1230133","0.0-6.0-0.0-5.0-0.0","12f0c3a6431cf9ec21ccbceca23375039d814760f4a5893a47ef2fd1039c2d29","arctic","swim","5014","","A5","4","","","","arctic-engagement","","","","","","","","","","","","","","5","absorption","",""
"html-button-response","43","1235227","0.0-6.0-0.0-5.0-0.1","12f0c3a6431cf9ec21ccbceca23375039d814760f4a5893a47ef2fd1039c2d29","arctic","swim","4843","","EE1","2","","","","arctic-engagement","","","","","","","","","","","","","","3","emo-engage","",""
"html-button-response","44","1237911","0.0-6.0-0.0-5.0-0.2","12f0c3a6431cf9ec21ccbceca23375039d814760f4a5893a47ef2fd1039c2d29","arctic","swim","2431","","EE3","4","","","","arctic-engagement","","","","","","","","","","","","","","5","emo-engage","",""
"html-button-response","45","1241221","0.0-6.0-0.0-5.0-0.3","12f0c3a6431cf9ec21ccbceca23375039d814760f4a5893a47ef2fd1039c2d29","arctic","swim","3059","","MS3","3","","","","arctic-engagement","","","","","","","","","","","","","","4","mental-sim","",""
"html-button-response","46","1245281","0.0-6.0-0.0-5.0-0.4","12f0c3a6431cf9ec21ccbceca23375039d814760f4a5893a47ef2fd1039c2d29","arctic","swim","3809","","MS2","4","","","","arctic-engagement","","","","","","","","","","","","","","5","mental-sim","",""
"html-button-response","47","1249828","0.0-6.0-0.0-5.0-0.5","12f0c3a6431cf9ec21ccbceca23375039d814760f4a5893a47ef2fd1039c2d29","arctic","swim","4295","","A1","1","","","","arctic-engagement","","","","","","","","","","","","","","2","absorption","",""
"html-button-response","48","1251830","0.0-6.0-0.0-5.0-0.6","12f0c3a6431cf9ec21ccbceca23375039d814760f4a5893a47ef2fd1039c2d29","arctic","swim","1751","","A3","3","","","","arctic-engagement","","","","","","","","","","","","","","4","absorption","",""
"html-button-response","49","1253879","0.0-6.0-0.0-5.0-0.7","12f0c3a6431cf9ec21ccbceca23375039d814760f4a5893a47ef2fd1039c2d29","arctic","swim","1796","","E7","4","","","","arctic-engagement","","","","","","","","","","","","","","5","enjoyment","",""
"html-button-response","50","1255855","0.0-6.0-0.0-5.0-0.8","12f0c3a6431cf9ec21ccbceca23375039d814760f4a5893a47ef2fd1039c2d29","arctic","swim","1725","","E6","4","","","","arctic-engagement","","","","","","","","","","","","","","5","enjoyment","",""
"html-button-response","51","1261052","0.0-6.0-0.0-5.0-0.9","12f0c3a6431cf9ec21ccbceca23375039d814760f4a5893a47ef2fd1039c2d29","arctic","swim","4946","","A4","6","","","","arctic-engagement","","","","","","","","","","","","","","7","absorption","",""
"html-button-response","52","1264224","0.0-6.0-0.0-5.0-0.10","12f0c3a6431cf9ec21ccbceca23375039d814760f4a5893a47ef2fd1039c2d29","arctic","swim","2920","","EE2","5","","","","arctic-engagement","","","","","","","","","","","","","","6","emo-engage","",""
"html-button-response","53","1266647","0.0-6.0-0.0-5.0-0.11","12f0c3a6431cf9ec21ccbceca23375039d814760f4a5893a47ef2fd1039c2d29","arctic","swim","2171","","EE5","5","","","","arctic-engagement","","","","","","","","","","","","","","6","emo-engage","",""
"html-button-response","54","1268556","0.0-6.0-0.0-5.0-0.12","12f0c3a6431cf9ec21ccbceca23375039d814760f4a5893a47ef2fd1039c2d29","arctic","swim","1658","","E1","6","","","","arctic-engagement","","","","","","","","","","","","","","7","enjoyment","",""
"html-button-response","55","1270433","0.0-6.0-0.0-5.0-0.13","12f0c3a6431cf9ec21ccbceca23375039d814760f4a5893a47ef2fd1039c2d29","arctic","swim","1626","","E10","6","","","","arctic-engagement","","","","","","","","","","","","","","7","enjoyment","",""
"html-button-response","56","1273771","0.0-6.0-0.0-5.0-0.14","12f0c3a6431cf9ec21ccbceca23375039d814760f4a5893a47ef2fd1039c2d29","arctic","swim","3086","","A2","6","","","","arctic-engagement","","","","","","","","","","","","","","7","absorption","",""
"html-button-response","57","1275987","0.0-6.0-0.0-5.0-0.15","12f0c3a6431cf9ec21ccbceca23375039d814760f4a5893a47ef2fd1039c2d29","arctic","swim","1964","","E8","6","","","","arctic-engagement","","","","","","","","","","","","","","7","enjoyment","",""
"html-button-response","58","1281928","0.0-6.0-0.0-5.0-0.16","12f0c3a6431cf9ec21ccbceca23375039d814760f4a5893a47ef2fd1039c2d29","arctic","swim","5691","","MS1","1","","","","arctic-engagement","","","","","","","","","","","","","","2","mental-sim","",""
"html-button-response","59","1285851","0.0-6.0-0.0-5.0-0.17","12f0c3a6431cf9ec21ccbceca23375039d814760f4a5893a47ef2fd1039c2d29","arctic","swim","3671","","EE4","4","","","","arctic-engagement","","","","","","","","","","","","","","5","emo-engage","",""
"html-keyboard-response","60","1294390","0.0-6.0-1.0","12f0c3a6431cf9ec21ccbceca23375039d814760f4a5893a47ef2fd1039c2d29","arctic","swim","8289","","<p>Thank you for your responses. You will now listen to the second story.</p><p>Remember, as you listen to the story you will see letters appear on the screen.</br>As quickly as possible, press <b>&lt;x&gt;</b> if the letter is lowercase and <b>&lt;m&gt;</b> if the letter is uppercase.</p><p>Press <b>&lt;x&gt;</b> or <b>&lt;m&gt;</b> to begin listening!</p>","","88","","","","","","","","","","","","","","","","","","","",""
"html-keyboard-response","61","1294891","0.0-6.0-2.0-0.0","12f0c3a6431cf9ec21ccbceca23375039d814760f4a5893a47ef2fd1039c2d29","arctic","swim","null","","<div style=""font-size:60px;"" tabindex=""0"">+</div>","","null","","","","","","","","","","","","","","","","","","","",""
"dual-task","null","null","null","","arctic","swim","638.5","","e","null","88","88","1","swim-dual-task","","e","lowercase","18000","0","6","12f0c3a6431cf9ec21ccbceca23375039d814760f4a5893a47ef2fd1039c2d29","18014.699999928474","638.5","88","1","swim","","","","",""
"dual-task","null","null","null","","arctic","swim","604.1999999284744","","f","null","88","88","1","swim-dual-task","","f","lowercase","30000","0","6","12f0c3a6431cf9ec21ccbceca23375039d814760f4a5893a47ef2fd1039c2d29","30003.299999952316","604.1999999284744","88","1","swim","","","","",""
"dual-task","null","null","null","","arctic","swim","669.2000000476837","","b","null","88","88","1","swim-dual-task","","b","lowercase","40000","0","6","12f0c3a6431cf9ec21ccbceca23375039d814760f4a5893a47ef2fd1039c2d29","40015.09999990463","669.2000000476837","88","1","swim","","","","",""
"dual-task","null","null","null","","arctic","swim","635.8000000715256","","q","null","88","88","1","swim-dual-task","","q","lowercase","54000","0","6","12f0c3a6431cf9ec21ccbceca23375039d814760f4a5893a47ef2fd1039c2d29","54008.09999990463","635.8000000715256","88","1","swim","","","","",""
"dual-task","null","null","null","","arctic","swim","571.9000000953674","","d","null","88","88","1","swim-dual-task","","d","lowercase","62000","0","6","12f0c3a6431cf9ec21ccbceca23375039d814760f4a5893a47ef2fd1039c2d29","62009.09999990463","571.9000000953674","88","1","swim","","","","",""
"dual-task","null","null","null","","arctic","swim","650.3999999761581","","b","null","88","88","1","swim-dual-task","","b","lowercase","76000","0","6","12f0c3a6431cf9ec21ccbceca23375039d814760f4a5893a47ef2fd1039c2d29","76014.19999992847","650.3999999761581","88","1","swim","","","","",""
"dual-task","null","null","null","","arctic","swim","647.1000000238419","","r","null","88","88","1","swim-dual-task","","r","lowercase","86000","0","6","12f0c3a6431cf9ec21ccbceca23375039d814760f4a5893a47ef2fd1039c2d29","86008.29999995232","647.1000000238419","88","1","swim","","","","",""
"dual-task","null","null","null","","arctic","swim","558","","n","null","88","88","1","swim-dual-task","","n","lowercase","100000","0","6","12f0c3a6431cf9ec21ccbceca23375039d814760f4a5893a47ef2fd1039c2d29","100003.39999997616","558","88","1","swim","","","","",""
"dual-task","null","null","null","","arctic","swim","1063.5","","D","null","88","77","0","swim-dual-task","","D","uppercase","106000","0","6","12f0c3a6431cf9ec21ccbceca23375039d814760f4a5893a47ef2fd1039c2d29","106009.89999997616","1063.5","88","0","swim","","","","",""
"dual-task","null","null","null","","arctic","swim","541.1000000238419","","A","null","77","77","1","swim-dual-task","","A","uppercase","114000","0","6","12f0c3a6431cf9ec21ccbceca23375039d814760f4a5893a47ef2fd1039c2d29","114011.19999992847","541.1000000238419","77","1","swim","","","","",""
"dual-task","null","null","null","","arctic","swim","683.2999999523163","","h","null","88","88","1","swim-dual-task","","h","lowercase","128000","0","6","12f0c3a6431cf9ec21ccbceca23375039d814760f4a5893a47ef2fd1039c2d29","128013.39999997616","683.2999999523163","88","1","swim","","","","",""
"dual-task","null","null","null","","arctic","swim","713.7999999523163","","F","null","77","77","1","swim-dual-task","","F","uppercase","140000","0","6","12f0c3a6431cf9ec21ccbceca23375039d814760f4a5893a47ef2fd1039c2d29","140003.29999995232","713.7999999523163","77","1","swim","","","","",""
"dual-task","null","null","null","","arctic","swim","762.8999999761581","","n","null","88","88","1","swim-dual-task","","n","lowercase","152000","0","6","12f0c3a6431cf9ec21ccbceca23375039d814760f4a5893a47ef2fd1039c2d29","152013.5","762.8999999761581","88","1","swim","","","","",""
"dual-task","null","null","null","","arctic","swim","809.3999999761581","","r","null","88","88","1","swim-dual-task","","r","lowercase","164000","0","6","12f0c3a6431cf9ec21ccbceca23375039d814760f4a5893a47ef2fd1039c2d29","164009.29999995232","809.3999999761581","88","1","swim","","","","",""
"dual-task","null","null","null","","arctic","swim","672.6999999284744","","g","null","88","88","1","swim-dual-task","","g","lowercase","172000","0","6","12f0c3a6431cf9ec21ccbceca23375039d814760f4a5893a47ef2fd1039c2d29","172006.89999997616","672.6999999284744","88","1","swim","","","","",""
"dual-task","null","null","null","","arctic","swim","662.2999999523163","","G","null","77","77","1","swim-dual-task","","G","uppercase","184000","0","6","12f0c3a6431cf9ec21ccbceca23375039d814760f4a5893a47ef2fd1039c2d29","184000.5","662.2999999523163","77","1","swim","","","","",""
"dual-task","null","null","null","","arctic","swim","598.5","","q","null","88","88","1","swim-dual-task","","q","lowercase","194000","0","6","12f0c3a6431cf9ec21ccbceca23375039d814760f4a5893a47ef2fd1039c2d29","194011.59999990463","598.5","88","1","swim","","","","",""
"dual-task","null","null","null","","arctic","swim","688.1000000238419","","a","null","88","88","1","swim-dual-task","","a","lowercase","206000","0","6","12f0c3a6431cf9ec21ccbceca23375039d814760f4a5893a47ef2fd1039c2d29","206007.39999997616","688.1000000238419","88","1","swim","","","","",""
"dual-task","null","null","null","","arctic","swim","643.8999999761581","","G","null","77","77","1","swim-dual-task","","G","uppercase","220000","0","6","12f0c3a6431cf9ec21ccbceca23375039d814760f4a5893a47ef2fd1039c2d29","220011.39999997616","643.8999999761581","77","1","swim","","","","",""
"dual-task","null","null","null","","arctic","swim","1204.6000000238419","","H","null","77","77","1","swim-dual-task","","H","uppercase","232000","0","6","12f0c3a6431cf9ec21ccbceca23375039d814760f4a5893a47ef2fd1039c2d29","232008.39999997616","1204.6000000238419","77","1","swim","","","","",""
"dual-task","null","null","null","","arctic","swim","633.4000000953674","","T","null","77","77","1","swim-dual-task","","T","uppercase","242000","0","6","12f0c3a6431cf9ec21ccbceca23375039d814760f4a5893a47ef2fd1039c2d29","242003.59999990463","633.4000000953674","77","1","swim","","","","",""
"dual-task","null","null","null","","arctic","swim","744.5","","t","null","88","88","1","swim-dual-task","","t","lowercase","256000","0","6","12f0c3a6431cf9ec21ccbceca23375039d814760f4a5893a47ef2fd1039c2d29","256000","744.5","88","1","swim","","","","",""
"dual-task","null","null","null","","arctic","swim","702.2000000476837","","a","null","88","88","1","swim-dual-task","","a","lowercase","262000","0","6","12f0c3a6431cf9ec21ccbceca23375039d814760f4a5893a47ef2fd1039c2d29","262011.79999995232","702.2000000476837","88","1","swim","","","","",""
"dual-task","null","null","null","","arctic","swim","667.9000000953674","","h","null","88","88","1","swim-dual-task","","h","lowercase","272000","0","6","12f0c3a6431cf9ec21ccbceca23375039d814760f4a5893a47ef2fd1039c2d29","272000.09999990463","667.9000000953674","88","1","swim","","","","",""
"dual-task","null","null","null","","arctic","swim","661.6999999284744","","R","null","77","77","1","swim-dual-task","","R","uppercase","280000","0","6","12f0c3a6431cf9ec21ccbceca23375039d814760f4a5893a47ef2fd1039c2d29","280000.39999997616","661.6999999284744","77","1","swim","","","","",""
"dual-task","null","null","null","","arctic","swim","671.6999999284744","","b","null","88","88","1","swim-dual-task","","b","lowercase","288000","0","6","12f0c3a6431cf9ec21ccbceca23375039d814760f4a5893a47ef2fd1039c2d29","287999.89999997616","671.6999999284744","88","1","swim","","","","",""
"dual-task","null","null","null","","arctic","swim","656.8000000715256","","d","null","88","88","1","swim-dual-task","","d","lowercase","300000","0","6","12f0c3a6431cf9ec21ccbceca23375039d814760f4a5893a47ef2fd1039c2d29","300000.59999990463","656.8000000715256","88","1","swim","","","","",""
"dual-task","null","null","null","","arctic","swim","840.8000000715256","","N","null","77","77","1","swim-dual-task","","N","uppercase","308000","0","6","12f0c3a6431cf9ec21ccbceca23375039d814760f4a5893a47ef2fd1039c2d29","308005.09999990463","840.8000000715256","77","1","swim","","","","",""
"dual-task","null","null","null","","arctic","swim","707.8999999761581","","d","null","88","88","1","swim-dual-task","","d","lowercase","314000","0","6","12f0c3a6431cf9ec21ccbceca23375039d814760f4a5893a47ef2fd1039c2d29","314003.5","707.8999999761581","88","1","swim","","","","",""
"dual-task","null","null","null","","arctic","swim","626.0999999046326","","Q","null","77","77","1","swim-dual-task","","Q","uppercase","324000","0","6","12f0c3a6431cf9ec21ccbceca23375039d814760f4a5893a47ef2fd1039c2d29","324002.5","626.0999999046326","77","1","swim","","","","",""
"dual-task","null","null","null","","arctic","swim","558.3999999761581","","q","null","88","88","1","swim-dual-task","","q","lowercase","334000","0","6","12f0c3a6431cf9ec21ccbceca23375039d814760f4a5893a47ef2fd1039c2d29","334010.2999999523","558.3999999761581","88","1","swim","","","","",""
"dual-task","null","null","null","","arctic","swim","707.6999999284744","","Q","null","77","77","1","swim-dual-task","","Q","uppercase","342000","0","6","12f0c3a6431cf9ec21ccbceca23375039d814760f4a5893a47ef2fd1039c2d29","342013","707.6999999284744","77","1","swim","","","","",""
"dual-task","null","null","null","","arctic","swim","645.7000000476837","","E","null","77","77","1","swim-dual-task","","E","uppercase","350000","0","6","12f0c3a6431cf9ec21ccbceca23375039d814760f4a5893a47ef2fd1039c2d29","350007.6999999285","645.7000000476837","77","1","swim","","","","",""
"dual-task","null","null","null","","arctic","swim","1125.3000000715256","","r","null","88","88","1","swim-dual-task","","r","lowercase","358000","0","6","12f0c3a6431cf9ec21ccbceca23375039d814760f4a5893a47ef2fd1039c2d29","358003.1999999285","1125.3000000715256","88","1","swim","","","","",""
"dual-task","null","null","null","","arctic","swim","589.5","","E","null","77","77","1","swim-dual-task","","E","uppercase","368000","0","6","12f0c3a6431cf9ec21ccbceca23375039d814760f4a5893a47ef2fd1039c2d29","368008.89999997616","589.5","77","1","swim","","","","",""
"dual-task","null","null","null","","arctic","swim","629.7999999523163","","b","null","88","88","1","swim-dual-task","","b","lowercase","376000","0","6","12f0c3a6431cf9ec21ccbceca23375039d814760f4a5893a47ef2fd1039c2d29","376011.2999999523","629.7999999523163","88","1","swim","","","","",""
"dual-task","null","null","null","","arctic","swim","813.6999999284744","","g","null","88","88","1","swim-dual-task","","g","lowercase","386000","0","6","12f0c3a6431cf9ec21ccbceca23375039d814760f4a5893a47ef2fd1039c2d29","386001.5","813.6999999284744","88","1","swim","","","","",""
"dual-task","null","null","null","","arctic","swim","630.1000000238419","","N","null","77","77","1","swim-dual-task","","N","uppercase","396000","0","6","12f0c3a6431cf9ec21ccbceca23375039d814760f4a5893a47ef2fd1039c2d29","396012.1999999285","630.1000000238419","77","1","swim","","","","",""
"dual-task","null","null","null","","arctic","swim","618.3000000715256","","n","null","88","88","1","swim-dual-task","","n","lowercase","402000","0","6","12f0c3a6431cf9ec21ccbceca23375039d814760f4a5893a47ef2fd1039c2d29","402009.59999990463","618.3000000715256","88","1","swim","","","","",""
"dual-task","null","null","null","","arctic","swim","907","","T","null","77","77","1","swim-dual-task","","T","uppercase","414000","0","6","12f0c3a6431cf9ec21ccbceca23375039d814760f4a5893a47ef2fd1039c2d29","414003","907","77","1","swim","","","","",""
"dual-task","null","null","null","","arctic","swim","894.7000000476837","","q","null","88","88","1","swim-dual-task","","q","lowercase","426000","0","6","12f0c3a6431cf9ec21ccbceca23375039d814760f4a5893a47ef2fd1039c2d29","426008.59999990463","894.7000000476837","88","1","swim","","","","",""
"dual-task","null","null","null","","arctic","swim","839","","h","null","88","88","1","swim-dual-task","","h","lowercase","434000","0","6","12f0c3a6431cf9ec21ccbceca23375039d814760f4a5893a47ef2fd1039c2d29","434013.2999999523","839","88","1","swim","","","","",""
"dual-task","null","null","null","","arctic","swim","1230.2000000476837","","N","null","88","77","0","swim-dual-task","","N","uppercase","446000","0","6","12f0c3a6431cf9ec21ccbceca23375039d814760f4a5893a47ef2fd1039c2d29","446015.5","1230.2000000476837","88","0","swim","","","","",""
"dual-task","null","null","null","","arctic","swim","910.7000000476837","","F","null","77","77","1","swim-dual-task","","F","uppercase","452000","0","6","12f0c3a6431cf9ec21ccbceca23375039d814760f4a5893a47ef2fd1039c2d29","452007.6999999285","910.7000000476837","77","1","swim","","","","",""
"dual-task","null","null","null","","arctic","swim","907.2000000476837","","t","null","88","88","1","swim-dual-task","","t","lowercase","462000","0","6","12f0c3a6431cf9ec21ccbceca23375039d814760f4a5893a47ef2fd1039c2d29","462000.09999990463","907.2000000476837","88","1","swim","","","","",""
"dual-task","null","null","null","","arctic","swim","740.7999999523163","","B","null","77","77","1","swim-dual-task","","B","uppercase","468000","0","6","12f0c3a6431cf9ec21ccbceca23375039d814760f4a5893a47ef2fd1039c2d29","468003.1999999285","740.7999999523163","77","1","swim","","","","",""
"dual-task","null","null","null","","arctic","swim","708.7999999523163","","r","null","88","88","1","swim-dual-task","","r","lowercase","480000","0","6","12f0c3a6431cf9ec21ccbceca23375039d814760f4a5893a47ef2fd1039c2d29","480004.7999999523","708.7999999523163","88","1","swim","","","","",""
"dual-task","null","null","null","","arctic","swim","714.6999999284744","","g","null","88","88","1","swim-dual-task","","g","lowercase","488000","0","6","12f0c3a6431cf9ec21ccbceca23375039d814760f4a5893a47ef2fd1039c2d29","488004.2999999523","714.6999999284744","88","1","swim","","","","",""
"dual-task","null","null","null","","arctic","swim","628.3999999761581","","H","null","77","77","1","swim-dual-task","","H","uppercase","496000","0","6","12f0c3a6431cf9ec21ccbceca23375039d814760f4a5893a47ef2fd1039c2d29","496006.2999999523","628.3999999761581","77","1","swim","","","","",""
"dual-task","null","null","null","","arctic","swim","699.5","","D","null","77","77","1","swim-dual-task","","D","uppercase","504000","0","6","12f0c3a6431cf9ec21ccbceca23375039d814760f4a5893a47ef2fd1039c2d29","504005.1999999285","699.5","77","1","swim","","","","",""
"dual-task","null","null","null","","arctic","swim","818.7000000476837","","R","null","77","77","1","swim-dual-task","","R","uppercase","514000","0","6","12f0c3a6431cf9ec21ccbceca23375039d814760f4a5893a47ef2fd1039c2d29","514008.1999999285","818.7000000476837","77","1","swim","","","","",""
"dual-task","null","null","null","","arctic","swim","626.2000000476837","","e","null","88","88","1","swim-dual-task","","e","lowercase","526000","0","6","12f0c3a6431cf9ec21ccbceca23375039d814760f4a5893a47ef2fd1039c2d29","526004.7999999523","626.2000000476837","88","1","swim","","","","",""
"dual-task","null","null","null","","arctic","swim","718.6999999284744","","n","null","88","88","1","swim-dual-task","","n","lowercase","534000","0","6","12f0c3a6431cf9ec21ccbceca23375039d814760f4a5893a47ef2fd1039c2d29","534013.2999999523","718.6999999284744","88","1","swim","","","","",""
"dual-task","null","null","null","","arctic","swim","932.8999999761581","","f","null","88","88","1","swim-dual-task","","f","lowercase","546000","0","6","12f0c3a6431cf9ec21ccbceca23375039d814760f4a5893a47ef2fd1039c2d29","546005.2999999523","932.8999999761581","88","1","swim","","","","",""
"dual-task","null","null","null","","arctic","swim","644.6999999284744","","T","null","77","77","1","swim-dual-task","","T","uppercase","558000","0","6","12f0c3a6431cf9ec21ccbceca23375039d814760f4a5893a47ef2fd1039c2d29","558003","644.6999999284744","77","1","swim","","","","",""
"dual-task","null","null","null","","arctic","swim","658","","a","null","88","88","1","swim-dual-task","","a","lowercase","570000","0","6","12f0c3a6431cf9ec21ccbceca23375039d814760f4a5893a47ef2fd1039c2d29","570002.0999999046","658","88","1","swim","","","","",""
"dual-task","null","null","null","","arctic","swim","710.2999999523163","","e","null","88","88","1","swim-dual-task","","e","lowercase","582000","0","6","12f0c3a6431cf9ec21ccbceca23375039d814760f4a5893a47ef2fd1039c2d29","582010.8999999762","710.2999999523163","88","1","swim","","","","",""
"dual-task","null","null","null","","arctic","swim","753.8000000715256","","f","null","88","88","1","swim-dual-task","","f","lowercase","594000","0","6","12f0c3a6431cf9ec21ccbceca23375039d814760f4a5893a47ef2fd1039c2d29","594016.6999999285","753.8000000715256","88","1","swim","","","","",""
"dual-task","null","null","null","","arctic","swim","617.5","","h","null","88","88","1","swim-dual-task","","h","lowercase","602000","0","6","12f0c3a6431cf9ec21ccbceca23375039d814760f4a5893a47ef2fd1039c2d29","602007.6999999285","617.5","88","1","swim","","","","",""
"dual-task","null","null","null","","arctic","swim","958.2000000476837","","R","null","77","77","1","swim-dual-task","","R","uppercase","616000","0","6","12f0c3a6431cf9ec21ccbceca23375039d814760f4a5893a47ef2fd1039c2d29","616014.2999999523","958.2000000476837","77","1","swim","","","","",""
"dual-task","null","null","null","","arctic","swim","660.8999999761581","","B","null","77","77","1","swim-dual-task","","B","uppercase","622000","0","6","12f0c3a6431cf9ec21ccbceca23375039d814760f4a5893a47ef2fd1039c2d29","622015.3999999762","660.8999999761581","77","1","swim","","","","",""
"dual-task","null","null","null","","arctic","swim","872.9000000953674","","D","null","77","77","1","swim-dual-task","","D","uppercase","636000","0","6","12f0c3a6431cf9ec21ccbceca23375039d814760f4a5893a47ef2fd1039c2d29","636000.0999999046","872.9000000953674","77","1","swim","","","","",""
"dual-task","null","null","null","","arctic","swim","522.8999999761581","","E","null","77","77","1","swim-dual-task","","E","uppercase","644000","0","6","12f0c3a6431cf9ec21ccbceca23375039d814760f4a5893a47ef2fd1039c2d29","644007.7999999523","522.8999999761581","77","1","swim","","","","",""
"dual-task","null","null","null","","arctic","swim","630.7999999523163","","A","null","77","77","1","swim-dual-task","","A","uppercase","654000","0","6","12f0c3a6431cf9ec21ccbceca23375039d814760f4a5893a47ef2fd1039c2d29","654012","630.7999999523163","77","1","swim","","","","",""
"dual-task","null","null","null","","arctic","swim","565.4000000953674","","B","null","77","77","1","swim-dual-task","","B","uppercase","668000","0","6","12f0c3a6431cf9ec21ccbceca23375039d814760f4a5893a47ef2fd1039c2d29","668011.5999999046","565.4000000953674","77","1","swim","","","","",""
"dual-task","null","null","null","","arctic","swim","748.0999999046326","","Q","null","77","77","1","swim-dual-task","","Q","uppercase","676000","0","6","12f0c3a6431cf9ec21ccbceca23375039d814760f4a5893a47ef2fd1039c2d29","676012.8999999762","748.0999999046326","77","1","swim","","","","",""
"dual-task","null","null","null","","arctic","swim","490.5","","H","null","77","77","1","swim-dual-task","","H","uppercase","686000","0","6","12f0c3a6431cf9ec21ccbceca23375039d814760f4a5893a47ef2fd1039c2d29","686013.5999999046","490.5","77","1","swim","","","","",""
"dual-task","null","null","null","","arctic","swim","667.5","","d","null","88","88","1","swim-dual-task","","d","lowercase","698000","0","6","12f0c3a6431cf9ec21ccbceca23375039d814760f4a5893a47ef2fd1039c2d29","698005.6999999285","667.5","88","1","swim","","","","",""
"dual-task","null","null","null","","arctic","swim","609.9000000953674","","t","null","88","88","1","swim-dual-task","","t","lowercase","708000","0","6","12f0c3a6431cf9ec21ccbceca23375039d814760f4a5893a47ef2fd1039c2d29","708006.5","609.9000000953674","88","1","swim","","","","",""
"dual-task","null","null","null","","arctic","swim","941.2000000476837","","e","null","88","88","1","swim-dual-task","","e","lowercase","720000","0","6","12f0c3a6431cf9ec21ccbceca23375039d814760f4a5893a47ef2fd1039c2d29","720011.6999999285","941.2000000476837","88","1","swim","","","","",""
"dual-task","null","null","null","","arctic","swim","594.3999999761581","","B","null","77","77","1","swim-dual-task","","B","uppercase","728000","0","6","12f0c3a6431cf9ec21ccbceca23375039d814760f4a5893a47ef2fd1039c2d29","728010.0999999046","594.3999999761581","77","1","swim","","","","",""
"dual-task","null","null","null","","arctic","swim","803.6000000238419","","a","null","88","88","1","swim-dual-task","","a","lowercase","740000","0","6","12f0c3a6431cf9ec21ccbceca23375039d814760f4a5893a47ef2fd1039c2d29","740010.2999999523","803.6000000238419","88","1","swim","","","","",""
"dual-task","null","null","null","","arctic","swim","602.8999999761581","","t","null","88","88","1","swim-dual-task","","t","lowercase","754000","0","6","12f0c3a6431cf9ec21ccbceca23375039d814760f4a5893a47ef2fd1039c2d29","754000.2999999523","602.8999999761581","88","1","swim","","","","",""
"dual-task","null","null","null","","arctic","swim","663.6999999284744","","N","null","77","77","1","swim-dual-task","","N","uppercase","762000","0","6","12f0c3a6431cf9ec21ccbceca23375039d814760f4a5893a47ef2fd1039c2d29","762002.3999999762","663.6999999284744","77","1","swim","","","","",""
"dual-task","null","null","null","","arctic","swim","1132.7000000476837","","A","null","77","77","1","swim-dual-task","","A","uppercase","770000","0","6","12f0c3a6431cf9ec21ccbceca23375039d814760f4a5893a47ef2fd1039c2d29","770010.1999999285","1132.7000000476837","77","1","swim","","","","",""
"dual-task","null","null","null","","arctic","swim","716.7000000476837","","D","null","77","77","1","swim-dual-task","","D","uppercase","778000","0","6","12f0c3a6431cf9ec21ccbceca23375039d814760f4a5893a47ef2fd1039c2d29","778013.1999999285","716.7000000476837","77","1","swim","","","","",""
"dual-task","null","null","null","","arctic","swim","542.8000000715256","","E","null","77","77","1","swim-dual-task","","E","uppercase","786000","0","6","12f0c3a6431cf9ec21ccbceca23375039d814760f4a5893a47ef2fd1039c2d29","786013.6999999285","542.8000000715256","77","1","swim","","","","",""
"dual-task","null","null","null","","arctic","swim","691.3999999761581","","f","null","88","88","1","swim-dual-task","","f","lowercase","800000","0","6","12f0c3a6431cf9ec21ccbceca23375039d814760f4a5893a47ef2fd1039c2d29","800012.6999999285","691.3999999761581","88","1","swim","","","","",""
"audio-keyboard-response","62","2104888","0.0-6.0-2.0-1.0","12f0c3a6431cf9ec21ccbceca23375039d814760f4a5893a47ef2fd1039c2d29","arctic","swim","null","","audio/story_swim_scrambled.mp3","","null","","","","","","","","","","","","","","","","","","","",""
"html-button-response","63","2109341","0.0-6.0-2.0-2.0","12f0c3a6431cf9ec21ccbceca23375039d814760f4a5893a47ef2fd1039c2d29","arctic","swim","4452","","<p>This concludes the story. Thank you for listening.</p><p>You will now answer some questions about the content of the story.</p>","0","","","","","","","","","","","","","","","","","","","","",""
"survey-multi-choice","64","2119799","0.0-6.0-2.0-3.0-0.0","12f0c3a6431cf9ec21ccbceca23375039d814760f4a5893a47ef2fd1039c2d29","arctic","swim","10457","","<b>What was the final step of the first swim test in the pool?</b>","","","","0","swim-comprehension","","","","","","","","","","","","","{""Q0"":""Perform a water rescue""}","","","",""
"survey-multi-choice","65","2125395","0.0-6.0-2.0-3.0-0.1","12f0c3a6431cf9ec21ccbceca23375039d814760f4a5893a47ef2fd1039c2d29","arctic","swim","5343","","<b>How did the narrator train for his swim test?</b>","","","","1","swim-comprehension","","","","","","","","","","","","","{""Q0"":""Took his kids to the pool every day""}","","","",""
"survey-multi-choice","66","2129544","0.0-6.0-2.0-3.0-0.2","12f0c3a6431cf9ec21ccbceca23375039d814760f4a5893a47ef2fd1039c2d29","arctic","swim","3897","","<b>What is the narrator afraid of, aside from the water?</b>","","","","1","swim-comprehension","","","","","","","","","","","","","{""Q0"":""Heights""}","","","",""
"survey-multi-choice","67","2134707","0.0-6.0-2.0-3.0-0.3","12f0c3a6431cf9ec21ccbceca23375039d814760f4a5893a47ef2fd1039c2d29","arctic","swim","4911","","<b>How many times did the astronaut candidates have to complete the final exercise to pass?</b>","","","","1","swim-comprehension","","","","","","","","","","","","","{""Q0"":""Two""}","","","",""
"survey-multi-choice","68","2140627","0.0-6.0-2.0-3.0-0.4","12f0c3a6431cf9ec21ccbceca23375039d814760f4a5893a47ef2fd1039c2d29","arctic","swim","5669","","<b>How many astronaut candidates reported for duty at the Johnson Space Center?</b>","","","","1","swim-comprehension","","","","","","","","","","","","","{""Q0"":""Forty-four""}","","","",""
"survey-multi-choice","69","2144811","0.0-6.0-2.0-3.0-0.5","12f0c3a6431cf9ec21ccbceca23375039d814760f4a5893a47ef2fd1039c2d29","arctic","swim","3930","","<b>How many astronaut candidates passed the first swim test?</b>","","","","1","swim-comprehension","","","","","","","","","","","","","{""Q0"":""All of them""}","","","",""
"survey-multi-choice","70","2153182","0.0-6.0-2.0-3.0-0.6","12f0c3a6431cf9ec21ccbceca23375039d814760f4a5893a47ef2fd1039c2d29","arctic","swim","8120","","<b>How often does the narrator swim, now that he is a good swimmer?</b>","","","","0","swim-comprehension","","","","","","","","","","","","","{""Q0"":""Every weekend with his kids""}","","","",""
"survey-multi-choice","71","2160862","0.0-6.0-2.0-3.0-0.7","12f0c3a6431cf9ec21ccbceca23375039d814760f4a5893a47ef2fd1039c2d29","arctic","swim","7427","","<b>What were the astronaut candidates trained to do at the naval air station?</b>","","","","1","swim-comprehension","","","","","","","","","","","","","{""Q0"":""Eject out of aircraft and survive in water long enough to be rescued""}","","","",""
"survey-multi-choice","72","2168913","0.0-6.0-2.0-3.0-0.8","12f0c3a6431cf9ec21ccbceca23375039d814760f4a5893a47ef2fd1039c2d29","arctic","swim","7799","","<b>What gave the narrator his greatest feeling of accomplishment?</b>","","","","1","swim-comprehension","","","","","","","","","","","","","{""Q0"":""Passing the water survival course""}","","","",""
"survey-multi-choice","73","2178733","0.0-6.0-2.0-3.0-0.9","12f0c3a6431cf9ec21ccbceca23375039d814760f4a5893a47ef2fd1039c2d29","arctic","swim","9568","","<b>Where is the home of naval aviation?</b>","","","","0","swim-comprehension","","","","","","","","","","","","","{""Q0"":""Los Angeles""}","","","",""
"html-button-response","74","2180817","0.0-6.0-2.0-4.0","12f0c3a6431cf9ec21ccbceca23375039d814760f4a5893a47ef2fd1039c2d29","arctic","swim","1833","","<p>Thank you for your responses.</p><p>You will now answer some questions about your impressions of the story.</p>","0","","","","","","","","","","","","","","","","","","","","",""
"html-button-response","75","2183769","0.0-6.0-2.0-5.0-0.0","12f0c3a6431cf9ec21ccbceca23375039d814760f4a5893a47ef2fd1039c2d29","arctic","swim","2952","","E8","5","","","","swim-engagement","","","","","","","","","","","","","","6","enjoyment","",""
"html-button-response","76","2185731","0.0-6.0-2.0-5.0-0.1","12f0c3a6431cf9ec21ccbceca23375039d814760f4a5893a47ef2fd1039c2d29","arctic","swim","1708","","A3","1","","","","swim-engagement","","","","","","","","","","","","","","2","absorption","",""
"html-button-response","77","2190063","0.0-6.0-2.0-5.0-0.2","12f0c3a6431cf9ec21ccbceca23375039d814760f4a5893a47ef2fd1039c2d29","arctic","swim","4081","","A5","1","","","","swim-engagement","","","","","","","","","","","","","","2","absorption","",""
"html-button-response","78","2193394","0.0-6.0-2.0-5.0-0.3","12f0c3a6431cf9ec21ccbceca23375039d814760f4a5893a47ef2fd1039c2d29","arctic","swim","3079","","EE2","3","","","","swim-engagement","","","","","","","","","","","","","","4","emo-engage","",""
"html-button-response","79","2197118","0.0-6.0-2.0-5.0-0.4","12f0c3a6431cf9ec21ccbceca23375039d814760f4a5893a47ef2fd1039c2d29","arctic","swim","3472","","MS1","0","","","","swim-engagement","","","","","","","","","","","","","","1","mental-sim","",""
"html-button-response","80","2201485","0.0-6.0-2.0-5.0-0.5","12f0c3a6431cf9ec21ccbceca23375039d814760f4a5893a47ef2fd1039c2d29","arctic","swim","4114","","A1","2","","","","swim-engagement","","","","","","","","","","","","","","3","absorption","",""
"html-button-response","81","2204891","0.0-6.0-2.0-5.0-0.6","12f0c3a6431cf9ec21ccbceca23375039d814760f4a5893a47ef2fd1039c2d29","arctic","swim","3154","","E1","5","","","","swim-engagement","","","","","","","","","","","","","","6","enjoyment","",""
"html-button-response","82","2207889","0.0-6.0-2.0-5.0-0.7","12f0c3a6431cf9ec21ccbceca23375039d814760f4a5893a47ef2fd1039c2d29","arctic","swim","2747","","A4","1","","","","swim-engagement","","","","","","","","","","","","","","2","absorption","",""
"html-button-response","83","2211188","0.0-6.0-2.0-5.0-0.8","12f0c3a6431cf9ec21ccbceca23375039d814760f4a5893a47ef2fd1039c2d29","arctic","swim","3048","","EE3","1","","","","swim-engagement","","","","","","","","","","","","","","2","emo-engage","",""
"html-button-response","84","2214617","0.0-6.0-2.0-5.0-0.9","12f0c3a6431cf9ec21ccbceca23375039d814760f4a5893a47ef2fd1039c2d29","arctic","swim","3178","","MS2","0","","","","swim-engagement","","","","","","","","","","","","","","1","mental-sim","",""
"html-button-response","85","2218294","0.0-6.0-2.0-5.0-0.10","12f0c3a6431cf9ec21ccbceca23375039d814760f4a5893a47ef2fd1039c2d29","arctic","swim","3425","","A2","5","","","","swim-engagement","","","","","","","","","","","","","","6","absorption","",""
"html-button-response","86","2221379","0.0-6.0-2.0-5.0-0.11","12f0c3a6431cf9ec21ccbceca23375039d814760f4a5893a47ef2fd1039c2d29","arctic","swim","2833","","E7","4","","","","swim-engagement","","","","","","","","","","","","","","5","enjoyment","",""
"html-button-response","87","2224274","0.0-6.0-2.0-5.0-0.12","12f0c3a6431cf9ec21ccbceca23375039d814760f4a5893a47ef2fd1039c2d29","arctic","swim","2644","","E6","2","","","","swim-engagement","","","","","","","","","","","","","","3","enjoyment","",""
"html-button-response","88","2229651","0.0-6.0-2.0-5.0-0.13","12f0c3a6431cf9ec21ccbceca23375039d814760f4a5893a47ef2fd1039c2d29","arctic","swim","5125","","MS3","1","","","","swim-engagement","","","","","","","","","","","","","","2","mental-sim","",""
"html-button-response","89","2232337","0.0-6.0-2.0-5.0-0.14","12f0c3a6431cf9ec21ccbceca23375039d814760f4a5893a47ef2fd1039c2d29","arctic","swim","2435","","EE4","0","","","","swim-engagement","","","","","","","","","","","","","","1","emo-engage","",""
"html-button-response","90","2237214","0.0-6.0-2.0-5.0-0.15","12f0c3a6431cf9ec21ccbceca23375039d814760f4a5893a47ef2fd1039c2d29","arctic","swim","4625","","EE1","0","","","","swim-engagement","","","","","","","","","","","","","","1","emo-engage","",""
"html-button-response","91","2241845","0.0-6.0-2.0-5.0-0.16","12f0c3a6431cf9ec21ccbceca23375039d814760f4a5893a47ef2fd1039c2d29","arctic","swim","4379","","EE5","2","","","","swim-engagement","","","","","","","","","","","","","","3","emo-engage","",""
"html-button-response","92","2245077","0.0-6.0-2.0-5.0-0.17","12f0c3a6431cf9ec21ccbceca23375039d814760f4a5893a47ef2fd1039c2d29","arctic","swim","2980","","E10","0","","","","swim-engagement","","","","","","","","","","","","","","1","enjoyment","",""
"html-button-response","93","2247891","0.0-8.0","12f0c3a6431cf9ec21ccbceca23375039d814760f4a5893a47ef2fd1039c2d29","arctic","swim","2562","","<p>Thank you for your responses.</p><p>You will now answer some demographic, hearing, and general health questions.</p>","0","","","","","","","","","","","","","","","","","","","","",""
"survey-multi-choice","94","2250563","0.0-9.0-0.0","12f0c3a6431cf9ec21ccbceca23375039d814760f4a5893a47ef2fd1039c2d29","arctic","swim","2672","","","","","","","survey","","","","","","","","","","","","","{""Q0"":""Chrome""}","","","browser",""
"survey-text","95","2255793","0.0-9.0-1.0","12f0c3a6431cf9ec21ccbceca23375039d814760f4a5893a47ef2fd1039c2d29","arctic","swim","4976.699999928474","","","","","","","survey","","","","","","","","","","","","","{""AGE"":""35""}","","","age","35"
"survey-multi-choice","96","2258217","0.0-9.0-2.0","12f0c3a6431cf9ec21ccbceca23375039d814760f4a5893a47ef2fd1039c2d29","arctic","swim","2159","","","","","","","survey","","","","","","","","","","","","","{""Q0"":""Male""}","","","gender","Male"
"survey-multi-choice","97","2260442","0.0-9.0-4.0","12f0c3a6431cf9ec21ccbceca23375039d814760f4a5893a47ef2fd1039c2d29","arctic","swim","1973","","","","","","","survey","","","","","","","","","","","","","{""Q0"":""Right""}","","","handedness","Right"
"survey-multi-choice","98","2263142","0.0-9.0-5.0","12f0c3a6431cf9ec21ccbceca23375039d814760f4a5893a47ef2fd1039c2d29","arctic","swim","2447","","","","","","","survey","","","","","","","","","","","","","{""Q0"":""Some university undergraduate schooling""}","","","education","Some university undergraduate schooling"
"survey-text","99","2269457","0.0-10.0-0.0","12f0c3a6431cf9ec21ccbceca23375039d814760f4a5893a47ef2fd1039c2d29","arctic","swim","6063.899999976158","","","","","","","survey","","","","","","","","","","","","","{""L1"":""English""}","","","first-language","English"
"survey-text","100","2273882","0.0-10.0-1.0","12f0c3a6431cf9ec21ccbceca23375039d814760f4a5893a47ef2fd1039c2d29","arctic","swim","4171","","","","","","","survey","","","","","","","","","","","","","{""L2name"":"""",""L2fluency"":"""",""L3name"":"""",""L3fluency"":"""",""L4name"":"""",""L4fluency"":""""}","","","additional-languages","{""L2name"":"""",""L2fluency"":"""",""L3name"":"""",""L3fluency"":"""",""L4name"":"""",""L4fluency"":""""}"
"survey-multi-choice","101","2277129","0.0-10.0-2.0","12f0c3a6431cf9ec21ccbceca23375039d814760f4a5893a47ef2fd1039c2d29","arctic","swim","2995","","","","","","","survey","","","","","","","","","","","","","{""Q0"":""No""}","","","hearing-aid","No"
"survey-multi-choice","102","2282386","0.0-10.0-3.0","12f0c3a6431cf9ec21ccbceca23375039d814760f4a5893a47ef2fd1039c2d29","arctic","swim","5004","","","","","","","survey","","","","","","","","","","","","","{""Q0"":""Never""}","","","ringing-ears","Never"
"survey-multi-choice","103","2284992","0.0-10.0-5.0","12f0c3a6431cf9ec21ccbceca23375039d814760f4a5893a47ef2fd1039c2d29","arctic","swim","2355","","","","","","","survey","","","","","","","","","","","","","{""Q0"":""No""}","","","neuro-disease","No"
"survey-multi-choice","104","2287436","0.0-10.0-7.0","12f0c3a6431cf9ec21ccbceca23375039d814760f4a5893a47ef2fd1039c2d29","arctic","swim","2192","","","","","","","survey","","","","","","","","","","","","","{""Q0"":""No""}","","","take-meds","No"
"survey-text","105","2290270","0.0-10.0-9.0","12f0c3a6431cf9ec21ccbceca23375039d814760f4a5893a47ef2fd1039c2d29","arctic","swim","2577","","","","","","","survey","","","","","","","","","","","","","{""HC"":""""}","","","health-concerns",""
"html-button-response","106","2295223","0.0-11.0-0.0","12f0c3a6431cf9ec21ccbceca23375039d814760f4a5893a47ef2fd1039c2d29","arctic","swim","4701","","<p>How would you describe your musical skills/experiences?</p>","2","","","","survey","","","","","","","","","","","","","","","","music-skill","3"
"survey-multi-choice","107","2297730","0.0-11.0-1.0","12f0c3a6431cf9ec21ccbceca23375039d814760f4a5893a47ef2fd1039c2d29","arctic","swim","2256","","","","","","","survey","","","","","","","","","","","","","{""Q0"":""Yes""}","","","music-instrument","Yes"
"survey-text","108","2301682","0.0-11.0-2.0-0.0","12f0c3a6431cf9ec21ccbceca23375039d814760f4a5893a47ef2fd1039c2d29","arctic","swim","3699.7000000476837","","","","","","","survey","","","","","","","","","","","","","{""MEXP"":""2""}","","","music-training-yrs","2"
"html-button-response","109","2304541","0.0-12.0-0.0","12f0c3a6431cf9ec21ccbceca23375039d814760f4a5893a47ef2fd1039c2d29","arctic","swim","2606","","<p>How would you describe your general hearing abilities?</p>","4","","","","survey","","","","","","","","","","","","","","","","ssq-01","5"
"html-button-response","110","2312341","0.0-12.0-1.0","12f0c3a6431cf9ec21ccbceca23375039d814760f4a5893a47ef2fd1039c2d29","arctic","swim","7548","","<p>When you talk with someone at a place that strongly reverberates/echoes (e.g., in a church or train station),</br>can you understand what the person says?</p>","9","","","","survey","","","","","","","","","","","","","","","","ssq-02","9"
"html-button-response","111","2317851","0.0-12.0-2.0","12f0c3a6431cf9ec21ccbceca23375039d814760f4a5893a47ef2fd1039c2d29","arctic","swim","5259","","<p>When you are with a group (~5 people) in a lively restaurant, can you follow the group's conversation?</p>","9","","","","survey","","","","","","","","","","","","","","","","ssq-03","9"
"html-button-response","112","2321362","0.0-12.0-3.0","12f0c3a6431cf9ec21ccbceca23375039d814760f4a5893a47ef2fd1039c2d29","arctic","swim","3259","","<p>Based on the sound of a bus or truck, can you tell whether it is moving towards or away from you?</p>","10","","","","survey","","","","","","","","","","","","","","","","ssq-04","10"
"html-button-response","113","2330402","0.0-12.0-4.0","12f0c3a6431cf9ec21ccbceca23375039d814760f4a5893a47ef2fd1039c2d29","arctic","swim","8788","","<p>When you are in an unknown environment, can you tell from which direction a brief sound originates?</p>","9","","","","survey","","","","","","","","","","","","","","","","ssq-05","9"
"html-button-response","114","2334519","0.0-12.0-5.0","12f0c3a6431cf9ec21ccbceca23375039d814760f4a5893a47ef2fd1039c2d29","arctic","swim","3865","","<p>Are you able to ignore distracting sounds when you concentrate on a specific aspect of your acoustic surrounding?</p>","9","","","","survey","","","","","","","","","","","","","","","","ssq-06","9"
"fullscreen","115","2335772","0.0-13.0","12f0c3a6431cf9ec21ccbceca23375039d814760f4a5893a47ef2fd1039c2d29","arctic","swim","","","","","","","","","true","","","","","","","","","","","","","","","",""
