"trial_type","trial_index","time_elapsed","internal_node_id","ParticipantID","firstStory","scramStory","rt","url","stimulus","button_pressed","key_press","correctRESP","correct","designation","success","letterStim","letterType","ONSET","TIMEOUT","CONDITION","Participant","ONSET_ACTUAL","RT","RESP","ACC","STORY","responses","response","type","surveyQuestion","QRESP"
"pavlovia","0","2","0.0-0.0","12c7beb5af1a3f6b367c07823a731c102468ffd68d9dcda7d71a17e663bbae52","arctic","arctic","","","","","","","","","","","","","","","","","","","","","","","","",""
"external-html","1","9639","0.0-1.0","12c7beb5af1a3f6b367c07823a731c102468ffd68d9dcda7d71a17e663bbae52","arctic","arctic","9416","consent/consent_updated.html","","","","","","","","","","","","","","","","","","","","","","",""
"html-button-response","2","39217","0.0-2.0-0.0","12c7beb5af1a3f6b367c07823a731c102468ffd68d9dcda7d71a17e663bbae52","arctic","arctic","29576","","<p>Before we begin the main task, you will complete a short volume calibration and headphone check.</p><p>Please make sure you are in a quiet listening environment, that you are wearing headphones, and that your computer's volume is turned on.<p></p>","0","","","","","","","","","","","","","","","","","","","","",""
"html-button-response","3","45021","0.0-2.0-1.0","12c7beb5af1a3f6b367c07823a731c102468ffd68d9dcda7d71a17e663bbae52","arctic","arctic","5553","","<p>The volume calibration will be first.</p><p>You will hear a thirty-second noise. Please adjust your computer's volume so that this noise is being presented at a comfortable level.<p></p>","0","","","","","","","","","","","","","","","","","","","","",""
"audio-button-response","4","57681","0.0-2.0-2.0","12c7beb5af1a3f6b367c07823a731c102468ffd68d9dcda7d71a17e663bbae52","arctic","arctic","12403","","audio/volumetest.mp3","0","","","","","","","","","","","","","","","","","","","","",""
"html-keyboard-response","5","68419","0.0-3.0-0.0","12c7beb5af1a3f6b367c07823a731c102468ffd68d9dcda7d71a17e663bbae52","arctic","arctic","10738","","<p>You will now complete a short headphone check.</p><p>On each trial, you will hear three tones. One of these tones will be quieter than the others. Your task is to identify whether the quiet tone occurred first, second, or third.</p><p>There are six trials in total.<p></p><p></p>(Press SPACEBAR to begin)","","32","","","","","","","","","","","","","","","","","","","",""
"html-keyboard-response","6","69174","0.0-3.0-1.0-0.0","12c7beb5af1a3f6b367c07823a731c102468ffd68d9dcda7d71a17e663bbae52","arctic","arctic","null","","<div style=""font-size:60px;"">+</div>","","null","","","","","","","","","","","","","","","","","","","",""
"audio-button-response","7","73913","0.0-3.0-1.0-1.0","12c7beb5af1a3f6b367c07823a731c102468ffd68d9dcda7d71a17e663bbae52","arctic","arctic","4738","","audio/t3_2.mp3","2","","2","1","headphone-test","","","","","","","","","","","","","","","","",""
"html-keyboard-response","8","74416","0.0-3.0-1.0-2.0","12c7beb5af1a3f6b367c07823a731c102468ffd68d9dcda7d71a17e663bbae52","arctic","arctic","null","","<p>Correct</p>","","null","","","","","","","","","","","","","","","","","","","",""
"html-keyboard-response","9","74932","0.0-3.0-1.0-0.1","12c7beb5af1a3f6b367c07823a731c102468ffd68d9dcda7d71a17e663bbae52","arctic","arctic","null","","<div style=""font-size:60px;"">+</div>","","null","","","","","","","","","","","","","","","","","","","",""
"audio-button-response","10","79939","0.0-3.0-1.0-1.1","12c7beb5af1a3f6b367c07823a731c102468ffd68d9dcda7d71a17e663bbae52","arctic","arctic","5006","","audio/t1_2.mp3","0","","0","1","headphone-test","","","","","","","","","","","","","","","","",""
"html-keyboard-response","11","80440","0.0-3.0-1.0-2.1","12c7beb5af1a3f6b367c07823a731c102468ffd68d9dcda7d71a17e663bbae52","arctic","arctic","null","","<p>Correct</p>","","null","","","","","","","","","","","","","","","","","","","",""
"html-keyboard-response","12","80941","0.0-3.0-1.0-0.2","12c7beb5af1a3f6b367c07823a731c102468ffd68d9dcda7d71a17e663bbae52","arctic","arctic","null","","<div style=""font-size:60px;"">+</div>","","null","","","","","","","","","","","","","","","","","","","",""
"audio-button-response","13","85517","0.0-3.0-1.0-1.2","12c7beb5af1a3f6b367c07823a731c102468ffd68d9dcda7d71a17e663bbae52","arctic","arctic","4575","","audio/t2_1.mp3","1","","1","1","headphone-test","","","","","","","","","","","","","","","","",""
"html-keyboard-response","14","86018","0.0-3.0-1.0-2.2","12c7beb5af1a3f6b367c07823a731c102468ffd68d9dcda7d71a17e663bbae52","arctic","arctic","null","","<p>Correct</p>","","null","","","","","","","","","","","","","","","","","","","",""
"html-keyboard-response","15","86522","0.0-3.0-1.0-0.3","12c7beb5af1a3f6b367c07823a731c102468ffd68d9dcda7d71a17e663bbae52","arctic","arctic","null","","<div style=""font-size:60px;"">+</div>","","null","","","","","","","","","","","","","","","","","","","",""
"audio-button-response","16","91087","0.0-3.0-1.0-1.3","12c7beb5af1a3f6b367c07823a731c102468ffd68d9dcda7d71a17e663bbae52","arctic","arctic","4564","","audio/t2_2.mp3","1","","1","1","headphone-test","","","","","","","","","","","","","","","","",""
"html-keyboard-response","17","91589","0.0-3.0-1.0-2.3","12c7beb5af1a3f6b367c07823a731c102468ffd68d9dcda7d71a17e663bbae52","arctic","arctic","null","","<p>Correct</p>","","null","","","","","","","","","","","","","","","","","","","",""
"html-keyboard-response","18","92103","0.0-3.0-1.0-0.4","12c7beb5af1a3f6b367c07823a731c102468ffd68d9dcda7d71a17e663bbae52","arctic","arctic","null","","<div style=""font-size:60px;"">+</div>","","null","","","","","","","","","","","","","","","","","","","",""
"audio-button-response","19","96586","0.0-3.0-1.0-1.4","12c7beb5af1a3f6b367c07823a731c102468ffd68d9dcda7d71a17e663bbae52","arctic","arctic","4481","","audio/t1_1.mp3","0","","0","1","headphone-test","","","","","","","","","","","","","","","","",""
"html-keyboard-response","20","97087","0.0-3.0-1.0-2.4","12c7beb5af1a3f6b367c07823a731c102468ffd68d9dcda7d71a17e663bbae52","arctic","arctic","null","","<p>Correct</p>","","null","","","","","","","","","","","","","","","","","","","",""
"html-keyboard-response","21","97589","0.0-3.0-1.0-0.5","12c7beb5af1a3f6b367c07823a731c102468ffd68d9dcda7d71a17e663bbae52","arctic","arctic","null","","<div style=""font-size:60px;"">+</div>","","null","","","","","","","","","","","","","","","","","","","",""
"audio-button-response","22","102013","0.0-3.0-1.0-1.5","12c7beb5af1a3f6b367c07823a731c102468ffd68d9dcda7d71a17e663bbae52","arctic","arctic","4423","","audio/t3_1.mp3","2","","2","1","headphone-test","","","","","","","","","","","","","","","","",""
"html-keyboard-response","23","102517","0.0-3.0-1.0-2.5","12c7beb5af1a3f6b367c07823a731c102468ffd68d9dcda7d71a17e663bbae52","arctic","arctic","null","","<p>Correct</p>","","null","","","","","","","","","","","","","","","","","","","",""
"fullscreen","24","105850","0.0-4.0","12c7beb5af1a3f6b367c07823a731c102468ffd68d9dcda7d71a17e663bbae52","arctic","arctic","","","","","","","","","true","","","","","","","","","","","","","","","",""
"html-button-response","25","116701","0.0-5.0-0.0","12c7beb5af1a3f6b367c07823a731c102468ffd68d9dcda7d71a17e663bbae52","arctic","arctic","10851","","<p>There are two blocks to this experiment.</p><p>In each block, you will hear a ~13.5 minute story. One of the stories will be scrambled. Please listen carefully to both stories and understand them as best you can.</p><p>After each story, you will be asked some questions to assess your comprehension.</p>","0","","","","","","","","","","","","","","","","","","","","",""
"html-button-response","26","131676","0.0-5.0-1.0","12c7beb5af1a3f6b367c07823a731c102468ffd68d9dcda7d71a17e663bbae52","arctic","arctic","14975","","<p>During each story, there will be an additional task.</p><p>A letter will occasionally appear on the screen.</br>Your job is to - as quickly as you can - decide whether the letter is lowercase or uppercase and press one of two keys on the keyboard:</p><p>If the letter is <b>lowercase</b>, press key &lt;<b>x</b>&gt;.</p><p>If the letter is <b>uppercase</b>, press key &lt;<b>m</b>&gt;.</p>","0","","","","","","","","","","","","","","","","","","","","",""
"html-keyboard-response","27","147002","0.0-5.0-2.0","12c7beb5af1a3f6b367c07823a731c102468ffd68d9dcda7d71a17e663bbae52","arctic","arctic","15326","","<p>Because we want your responses to be as quick as possible, please keep your index fingers over the keys while listening.</p><p>Each block lasts about 20 minutes.</p><p><b>Press &lt;x&gt; or &lt;m&gt; to start the first block!</b></p>","","77","","","","","","","","","","","","","","","","","","","",""
"html-keyboard-response","28","147503","0.0-6.0-0.0-0.0","12c7beb5af1a3f6b367c07823a731c102468ffd68d9dcda7d71a17e663bbae52","arctic","arctic","null","","<div style=""font-size:60px;"" tabindex=""0"">+</div>","","null","","","","","","","","","","","","","","","","","","","",""
"dual-task","null","null","null","","arctic","arctic","802.5","","g","null","88","88","1","arctic-dual-task","","g","lowercase","12000","0","2","12c7beb5af1a3f6b367c07823a731c102468ffd68d9dcda7d71a17e663bbae52","12003.899999999441","802.5","88","1","arctic","","","","",""
"dual-task","null","null","null","","arctic","arctic","717.8999999994412","","Q","null","77","77","1","arctic-dual-task","","Q","uppercase","20000","0","2","12c7beb5af1a3f6b367c07823a731c102468ffd68d9dcda7d71a17e663bbae52","20000.89999999944","717.8999999994412","77","1","arctic","","","","",""
"dual-task","null","null","null","","arctic","arctic","537.6000000005588","","N","null","77","77","1","arctic-dual-task","","N","uppercase","26000","0","2","12c7beb5af1a3f6b367c07823a731c102468ffd68d9dcda7d71a17e663bbae52","26008.5","537.6000000005588","77","1","arctic","","","","",""
"dual-task","null","null","null","","arctic","arctic","599.2000000001863","","t","null","88","88","1","arctic-dual-task","","t","lowercase","36000","0","2","12c7beb5af1a3f6b367c07823a731c102468ffd68d9dcda7d71a17e663bbae52","36009.39999999944","599.2000000001863","88","1","arctic","","","","",""
"dual-task","null","null","null","","arctic","arctic","701.9000000003725","","d","null","88","88","1","arctic-dual-task","","d","lowercase","48000","0","2","12c7beb5af1a3f6b367c07823a731c102468ffd68d9dcda7d71a17e663bbae52","48001.39999999944","701.9000000003725","88","1","arctic","","","","",""
"dual-task","null","null","null","","arctic","arctic","549.6000000005588","","B","null","77","77","1","arctic-dual-task","","B","uppercase","54000","0","2","12c7beb5af1a3f6b367c07823a731c102468ffd68d9dcda7d71a17e663bbae52","54001.299999999814","549.6000000005588","77","1","arctic","","","","",""
"dual-task","null","null","null","","arctic","arctic","564.5","","T","null","77","77","1","arctic-dual-task","","T","uppercase","62000","0","2","12c7beb5af1a3f6b367c07823a731c102468ffd68d9dcda7d71a17e663bbae52","62010.5","564.5","77","1","arctic","","","","",""
"dual-task","null","null","null","","arctic","arctic","551.2000000001863","","B","null","77","77","1","arctic-dual-task","","B","uppercase","72000","0","2","12c7beb5af1a3f6b367c07823a731c102468ffd68d9dcda7d71a17e663bbae52","72010.20000000019","551.2000000001863","77","1","arctic","","","","",""
"dual-task","null","null","null","","arctic","arctic","750.7000000001863","","R","null","77","77","1","arctic-dual-task","","R","uppercase","78000","0","2","12c7beb5af1a3f6b367c07823a731c102468ffd68d9dcda7d71a17e663bbae52","78004","750.7000000001863","77","1","arctic","","","","",""
"dual-task","null","null","null","","arctic","arctic","612.7000000001863","","a","null","88","88","1","arctic-dual-task","","a","lowercase","90000","0","2","12c7beb5af1a3f6b367c07823a731c102468ffd68d9dcda7d71a17e663bbae52","89999.39999999944","612.7000000001863","88","1","arctic","","","","",""
"dual-task","null","null","null","","arctic","arctic","605.6999999992549","","Q","null","77","77","1","arctic-dual-task","","Q","uppercase","96000","0","2","12c7beb5af1a3f6b367c07823a731c102468ffd68d9dcda7d71a17e663bbae52","96004.59999999963","605.6999999992549","77","1","arctic","","","","",""
"dual-task","null","null","null","","arctic","arctic","524.2999999998137","","N","null","77","77","1","arctic-dual-task","","N","uppercase","102000","0","2","12c7beb5af1a3f6b367c07823a731c102468ffd68d9dcda7d71a17e663bbae52","102006.70000000019","524.2999999998137","77","1","arctic","","","","",""
"dual-task","null","null","null","","arctic","arctic","610.1999999992549","","R","null","77","77","1","arctic-dual-task","","R","uppercase","114000","0","2","12c7beb5af1a3f6b367c07823a731c102468ffd68d9dcda7d71a17e663bbae52","114001.70000000019","610.1999999992549","77","1","arctic","","","","",""
"dual-task","null","null","null","","arctic","arctic","597.7999999998137","","R","null","77","77","1","arctic-dual-task","","R","uppercase","126000","0","2","12c7beb5af1a3f6b367c07823a731c102468ffd68d9dcda7d71a17e663bbae52","126014.5","597.7999999998137","77","1","arctic","","","","",""
"dual-task","null","null","null","","arctic","arctic","576","","g","null","88","88","1","arctic-dual-task","","g","lowercase","138000","0","2","12c7beb5af1a3f6b367c07823a731c102468ffd68d9dcda7d71a17e663bbae52","138009.39999999944","576","88","1","arctic","","","","",""
"dual-task","null","null","null","","arctic","arctic","564.2000000001863","","b","null","88","88","1","arctic-dual-task","","b","lowercase","148000","0","2","12c7beb5af1a3f6b367c07823a731c102468ffd68d9dcda7d71a17e663bbae52","148003","564.2000000001863","88","1","arctic","","","","",""
"dual-task","null","null","null","","arctic","arctic","582.3000000007451","","D","null","77","77","1","arctic-dual-task","","D","uppercase","158000","0","2","12c7beb5af1a3f6b367c07823a731c102468ffd68d9dcda7d71a17e663bbae52","158005.39999999944","582.3000000007451","77","1","arctic","","","","",""
"dual-task","null","null","null","","arctic","arctic","481.29999999981374","","G","null","77","77","1","arctic-dual-task","","G","uppercase","166000","0","2","12c7beb5af1a3f6b367c07823a731c102468ffd68d9dcda7d71a17e663bbae52","166013.7999999998","481.29999999981374","77","1","arctic","","","","",""
"dual-task","null","null","null","","arctic","arctic","944.2000000001863","","q","null","88","88","1","arctic-dual-task","","q","lowercase","174000","0","2","12c7beb5af1a3f6b367c07823a731c102468ffd68d9dcda7d71a17e663bbae52","174014.7000000002","944.2000000001863","88","1","arctic","","","","",""
"dual-task","null","null","null","","arctic","arctic","612.2000000001863","","t","null","88","88","1","arctic-dual-task","","t","lowercase","182000","0","2","12c7beb5af1a3f6b367c07823a731c102468ffd68d9dcda7d71a17e663bbae52","182003.59999999963","612.2000000001863","88","1","arctic","","","","",""
"dual-task","null","null","null","","arctic","arctic","572.2000000001863","","E","null","77","77","1","arctic-dual-task","","E","uppercase","190000","0","2","12c7beb5af1a3f6b367c07823a731c102468ffd68d9dcda7d71a17e663bbae52","190004.39999999944","572.2000000001863","77","1","arctic","","","","",""
"dual-task","null","null","null","","arctic","arctic","489.20000000018626","","a","null","88","88","1","arctic-dual-task","","a","lowercase","198000","0","2","12c7beb5af1a3f6b367c07823a731c102468ffd68d9dcda7d71a17e663bbae52","198002.39999999944","489.20000000018626","88","1","arctic","","","","",""
"dual-task","null","null","null","","arctic","arctic","517.2000000001863","","d","null","88","88","1","arctic-dual-task","","d","lowercase","210000","0","2","12c7beb5af1a3f6b367c07823a731c102468ffd68d9dcda7d71a17e663bbae52","210014.09999999963","517.2000000001863","88","1","arctic","","","","",""
"dual-task","null","null","null","","arctic","arctic","489.59999999962747","","H","null","77","77","1","arctic-dual-task","","H","uppercase","222000","0","2","12c7beb5af1a3f6b367c07823a731c102468ffd68d9dcda7d71a17e663bbae52","222014.7999999998","489.59999999962747","77","1","arctic","","","","",""
"dual-task","null","null","null","","arctic","arctic","682.3000000007451","","q","null","88","88","1","arctic-dual-task","","q","lowercase","236000","0","2","12c7beb5af1a3f6b367c07823a731c102468ffd68d9dcda7d71a17e663bbae52","236004.39999999944","682.3000000007451","88","1","arctic","","","","",""
"dual-task","null","null","null","","arctic","arctic","521.2000000001863","","q","null","88","88","1","arctic-dual-task","","q","lowercase","250000","0","2","12c7beb5af1a3f6b367c07823a731c102468ffd68d9dcda7d71a17e663bbae52","250002.5","521.2000000001863","88","1","arctic","","","","",""
"dual-task","null","null","null","","arctic","arctic","576.5","","G","null","77","77","1","arctic-dual-task","","G","uppercase","258000","0","2","12c7beb5af1a3f6b367c07823a731c102468ffd68d9dcda7d71a17e663bbae52","258002.7999999998","576.5","77","1","arctic","","","","",""
"dual-task","null","null","null","","arctic","arctic","725.8000000007451","","n","null","88","88","1","arctic-dual-task","","n","lowercase","268000","0","2","12c7beb5af1a3f6b367c07823a731c102468ffd68d9dcda7d71a17e663bbae52","268010.39999999944","725.8000000007451","88","1","arctic","","","","",""
"dual-task","null","null","null","","arctic","arctic","564.6999999992549","","e","null","88","88","1","arctic-dual-task","","e","lowercase","278000","0","2","12c7beb5af1a3f6b367c07823a731c102468ffd68d9dcda7d71a17e663bbae52","278003.0999999996","564.6999999992549","88","1","arctic","","","","",""
"dual-task","null","null","null","","arctic","arctic","912.5999999996275","","r","null","88","88","1","arctic-dual-task","","r","lowercase","284000","0","2","12c7beb5af1a3f6b367c07823a731c102468ffd68d9dcda7d71a17e663bbae52","284005.7000000002","912.5999999996275","88","1","arctic","","","","",""
"dual-task","null","null","null","","arctic","arctic","776.1000000005588","","e","null","88","88","1","arctic-dual-task","","e","lowercase","292000","0","2","12c7beb5af1a3f6b367c07823a731c102468ffd68d9dcda7d71a17e663bbae52","292014.0999999996","776.1000000005588","88","1","arctic","","","","",""
"dual-task","null","null","null","","arctic","arctic","619.7000000001863","","Q","null","77","77","1","arctic-dual-task","","Q","uppercase","304000","0","2","12c7beb5af1a3f6b367c07823a731c102468ffd68d9dcda7d71a17e663bbae52","304002.5","619.7000000001863","77","1","arctic","","","","",""
"dual-task","null","null","null","","arctic","arctic","815.5","","r","null","88","88","1","arctic-dual-task","","r","lowercase","310000","0","2","12c7beb5af1a3f6b367c07823a731c102468ffd68d9dcda7d71a17e663bbae52","310005.89999999944","815.5","88","1","arctic","","","","",""
"dual-task","null","null","null","","arctic","arctic","554.7999999998137","","F","null","77","77","1","arctic-dual-task","","F","uppercase","322000","0","2","12c7beb5af1a3f6b367c07823a731c102468ffd68d9dcda7d71a17e663bbae52","322003.7000000002","554.7999999998137","77","1","arctic","","","","",""
"dual-task","null","null","null","","arctic","arctic","583.0999999996275","","b","null","88","88","1","arctic-dual-task","","b","lowercase","336000","0","2","12c7beb5af1a3f6b367c07823a731c102468ffd68d9dcda7d71a17e663bbae52","336001","583.0999999996275","88","1","arctic","","","","",""
"dual-task","null","null","null","","arctic","arctic","461","","r","null","88","88","1","arctic-dual-task","","r","lowercase","344000","0","2","12c7beb5af1a3f6b367c07823a731c102468ffd68d9dcda7d71a17e663bbae52","344015.2000000002","461","88","1","arctic","","","","",""
"dual-task","null","null","null","","arctic","arctic","511.3999999994412","","h","null","88","88","1","arctic-dual-task","","h","lowercase","358000","0","2","12c7beb5af1a3f6b367c07823a731c102468ffd68d9dcda7d71a17e663bbae52","358012.39999999944","511.3999999994412","88","1","arctic","","","","",""
"dual-task","null","null","null","","arctic","arctic","673","","T","null","77","77","1","arctic-dual-task","","T","uppercase","370000","0","2","12c7beb5af1a3f6b367c07823a731c102468ffd68d9dcda7d71a17e663bbae52","370014.0999999996","673","77","1","arctic","","","","",""
"dual-task","null","null","null","","arctic","arctic","629.5","","f","null","88","88","1","arctic-dual-task","","f","lowercase","380000","0","2","12c7beb5af1a3f6b367c07823a731c102468ffd68d9dcda7d71a17e663bbae52","380003.2000000002","629.5","88","1","arctic","","","","",""
"dual-task","null","null","null","","arctic","arctic","542.7000000001863","","b","null","88","88","1","arctic-dual-task","","b","lowercase","392000","0","2","12c7beb5af1a3f6b367c07823a731c102468ffd68d9dcda7d71a17e663bbae52","392009.2999999998","542.7000000001863","88","1","arctic","","","","",""
"dual-task","null","null","null","","arctic","arctic","605.7000000001863","","E","null","77","77","1","arctic-dual-task","","E","uppercase","400000","0","2","12c7beb5af1a3f6b367c07823a731c102468ffd68d9dcda7d71a17e663bbae52","400015.2999999998","605.7000000001863","77","1","arctic","","","","",""
"dual-task","null","null","null","","arctic","arctic","688.9000000003725","","N","null","77","77","1","arctic-dual-task","","N","uppercase","408000","0","2","12c7beb5af1a3f6b367c07823a731c102468ffd68d9dcda7d71a17e663bbae52","408002.39999999944","688.9000000003725","77","1","arctic","","","","",""
"dual-task","null","null","null","","arctic","arctic","873.6000000005588","","A","null","77","77","1","arctic-dual-task","","A","uppercase","420000","0","2","12c7beb5af1a3f6b367c07823a731c102468ffd68d9dcda7d71a17e663bbae52","420014.39999999944","873.6000000005588","77","1","arctic","","","","",""
"dual-task","null","null","null","","arctic","arctic","652.5","","E","null","77","77","1","arctic-dual-task","","E","uppercase","430000","0","2","12c7beb5af1a3f6b367c07823a731c102468ffd68d9dcda7d71a17e663bbae52","430007.39999999944","652.5","77","1","arctic","","","","",""
"dual-task","null","null","null","","arctic","arctic","644.5999999996275","","D","null","77","77","1","arctic-dual-task","","D","uppercase","442000","0","2","12c7beb5af1a3f6b367c07823a731c102468ffd68d9dcda7d71a17e663bbae52","442014.7000000002","644.5999999996275","77","1","arctic","","","","",""
"dual-task","null","null","null","","arctic","arctic","664.6000000005588","","H","null","77","77","1","arctic-dual-task","","H","uppercase","456000","0","2","12c7beb5af1a3f6b367c07823a731c102468ffd68d9dcda7d71a17e663bbae52","456014.39999999944","664.6000000005588","77","1","arctic","","","","",""
"dual-task","null","null","null","","arctic","arctic","658.5999999996275","","E","null","77","77","1","arctic-dual-task","","E","uppercase","464000","0","2","12c7beb5af1a3f6b367c07823a731c102468ffd68d9dcda7d71a17e663bbae52","464001.5","658.5999999996275","77","1","arctic","","","","",""
"dual-task","null","null","null","","arctic","arctic","494.3999999994412","","D","null","77","77","1","arctic-dual-task","","D","uppercase","470000","0","2","12c7beb5af1a3f6b367c07823a731c102468ffd68d9dcda7d71a17e663bbae52","470006.7000000002","494.3999999994412","77","1","arctic","","","","",""
"dual-task","null","null","null","","arctic","arctic","499.29999999981374","","Q","null","77","77","1","arctic-dual-task","","Q","uppercase","476000","0","2","12c7beb5af1a3f6b367c07823a731c102468ffd68d9dcda7d71a17e663bbae52","476004.7999999998","499.29999999981374","77","1","arctic","","","","",""
"dual-task","null","null","null","","arctic","arctic","469.69999999925494","","H","null","77","77","1","arctic-dual-task","","H","uppercase","490000","0","2","12c7beb5af1a3f6b367c07823a731c102468ffd68d9dcda7d71a17e663bbae52","490013.7000000002","469.69999999925494","77","1","arctic","","","","",""
"dual-task","null","null","null","","arctic","arctic","885.6999999992549","","n","null","88","88","1","arctic-dual-task","","n","lowercase","502000","0","2","12c7beb5af1a3f6b367c07823a731c102468ffd68d9dcda7d71a17e663bbae52","502003.5999999996","885.6999999992549","88","1","arctic","","","","",""
"dual-task","null","null","null","","arctic","arctic","579.5","","r","null","88","88","1","arctic-dual-task","","r","lowercase","510000","0","2","12c7beb5af1a3f6b367c07823a731c102468ffd68d9dcda7d71a17e663bbae52","510015.39999999944","579.5","88","1","arctic","","","","",""
"dual-task","null","null","null","","arctic","arctic","1305.2999999998137","","G","null","77","77","1","arctic-dual-task","","G","uppercase","516000","0","2","12c7beb5af1a3f6b367c07823a731c102468ffd68d9dcda7d71a17e663bbae52","516010.5","1305.2999999998137","77","1","arctic","","","","",""
"dual-task","null","null","null","","arctic","arctic","577.6000000005588","","N","null","77","77","1","arctic-dual-task","","N","uppercase","526000","0","2","12c7beb5af1a3f6b367c07823a731c102468ffd68d9dcda7d71a17e663bbae52","526007.3999999994","577.6000000005588","77","1","arctic","","","","",""
"dual-task","null","null","null","","arctic","arctic","686.2000000001863","","f","null","88","88","1","arctic-dual-task","","f","lowercase","538000","0","2","12c7beb5af1a3f6b367c07823a731c102468ffd68d9dcda7d71a17e663bbae52","538013.8999999994","686.2000000001863","88","1","arctic","","","","",""
"dual-task","null","null","null","","arctic","arctic","623","","F","null","77","77","1","arctic-dual-task","","F","uppercase","552000","0","2","12c7beb5af1a3f6b367c07823a731c102468ffd68d9dcda7d71a17e663bbae52","552008.5999999996","623","77","1","arctic","","","","",""
"dual-task","null","null","null","","arctic","arctic","553","","F","null","77","77","1","arctic-dual-task","","F","uppercase","564000","0","2","12c7beb5af1a3f6b367c07823a731c102468ffd68d9dcda7d71a17e663bbae52","564003.5","553","77","1","arctic","","","","",""
"dual-task","null","null","null","","arctic","arctic","701.2999999998137","","A","null","77","77","1","arctic-dual-task","","A","uppercase","572000","0","2","12c7beb5af1a3f6b367c07823a731c102468ffd68d9dcda7d71a17e663bbae52","572013.5","701.2999999998137","77","1","arctic","","","","",""
"dual-task","null","null","null","","arctic","arctic","641","","e","null","88","88","1","arctic-dual-task","","e","lowercase","582000","0","2","12c7beb5af1a3f6b367c07823a731c102468ffd68d9dcda7d71a17e663bbae52","582015.5","641","88","1","arctic","","","","",""
"dual-task","null","null","null","","arctic","arctic","554.5","","h","null","88","88","1","arctic-dual-task","","h","lowercase","590000","0","2","12c7beb5af1a3f6b367c07823a731c102468ffd68d9dcda7d71a17e663bbae52","590008.2000000002","554.5","88","1","arctic","","","","",""
"dual-task","null","null","null","","arctic","arctic","764.2000000001863","","a","null","88","88","1","arctic-dual-task","","a","lowercase","596000","0","2","12c7beb5af1a3f6b367c07823a731c102468ffd68d9dcda7d71a17e663bbae52","596005.2999999998","764.2000000001863","88","1","arctic","","","","",""
"dual-task","null","null","null","","arctic","arctic","564.5999999996275","","f","null","88","88","1","arctic-dual-task","","f","lowercase","604000","0","2","12c7beb5af1a3f6b367c07823a731c102468ffd68d9dcda7d71a17e663bbae52","604003.5","564.5999999996275","88","1","arctic","","","","",""
"dual-task","null","null","null","","arctic","arctic","495.40000000037253","","T","null","77","77","1","arctic-dual-task","","T","uppercase","612000","0","2","12c7beb5af1a3f6b367c07823a731c102468ffd68d9dcda7d71a17e663bbae52","612007.5999999996","495.40000000037253","77","1","arctic","","","","",""
"dual-task","null","null","null","","arctic","arctic","1301.6000000005588","","d","null","88","88","1","arctic-dual-task","","d","lowercase","624000","0","2","12c7beb5af1a3f6b367c07823a731c102468ffd68d9dcda7d71a17e663bbae52","624001.5999999996","1301.6000000005588","88","1","arctic","","","","",""
"dual-task","null","null","null","","arctic","arctic","697.3999999994412","","G","null","77","77","1","arctic-dual-task","","G","uppercase","632000","0","2","12c7beb5af1a3f6b367c07823a731c102468ffd68d9dcda7d71a17e663bbae52","632003.7000000002","697.3999999994412","77","1","arctic","","","","",""
"dual-task","null","null","null","","arctic","arctic","582.8000000007451","","t","null","88","88","1","arctic-dual-task","","t","lowercase","644000","0","2","12c7beb5af1a3f6b367c07823a731c102468ffd68d9dcda7d71a17e663bbae52","644004.3999999994","582.8000000007451","88","1","arctic","","","","",""
"dual-task","null","null","null","","arctic","arctic","566.5999999996275","","n","null","88","88","1","arctic-dual-task","","n","lowercase","654000","0","2","12c7beb5af1a3f6b367c07823a731c102468ffd68d9dcda7d71a17e663bbae52","654000.7000000002","566.5999999996275","88","1","arctic","","","","",""
"dual-task","null","null","null","","arctic","arctic","526.2000000001863","","n","null","88","88","1","arctic-dual-task","","n","lowercase","664000","0","2","12c7beb5af1a3f6b367c07823a731c102468ffd68d9dcda7d71a17e663bbae52","664007.8999999994","526.2000000001863","88","1","arctic","","","","",""
"dual-task","null","null","null","","arctic","arctic","658.7000000001863","","A","null","77","77","1","arctic-dual-task","","A","uppercase","672000","0","2","12c7beb5af1a3f6b367c07823a731c102468ffd68d9dcda7d71a17e663bbae52","672008","658.7000000001863","77","1","arctic","","","","",""
"dual-task","null","null","null","","arctic","arctic","602.2000000001863","","d","null","88","88","1","arctic-dual-task","","d","lowercase","678000","0","2","12c7beb5af1a3f6b367c07823a731c102468ffd68d9dcda7d71a17e663bbae52","678013.2999999998","602.2000000001863","88","1","arctic","","","","",""
"dual-task","null","null","null","","arctic","arctic","549.5","","g","null","88","88","1","arctic-dual-task","","g","lowercase","686000","0","2","12c7beb5af1a3f6b367c07823a731c102468ffd68d9dcda7d71a17e663bbae52","686013.7999999998","549.5","88","1","arctic","","","","",""
"dual-task","null","null","null","","arctic","arctic","620.5","","T","null","77","77","1","arctic-dual-task","","T","uppercase","698000","0","2","12c7beb5af1a3f6b367c07823a731c102468ffd68d9dcda7d71a17e663bbae52","698004.3999999994","620.5","77","1","arctic","","","","",""
"dual-task","null","null","null","","arctic","arctic","641.9000000003725","","e","null","88","88","1","arctic-dual-task","","e","lowercase","712000","0","2","12c7beb5af1a3f6b367c07823a731c102468ffd68d9dcda7d71a17e663bbae52","712014.3999999994","641.9000000003725","88","1","arctic","","","","",""
"dual-task","null","null","null","","arctic","arctic","706.8999999994412","","R","null","77","77","1","arctic-dual-task","","R","uppercase","718000","0","2","12c7beb5af1a3f6b367c07823a731c102468ffd68d9dcda7d71a17e663bbae52","718000.5","706.8999999994412","77","1","arctic","","","","",""
"dual-task","null","null","null","","arctic","arctic","570.9000000003725","","g","null","88","88","1","arctic-dual-task","","g","lowercase","732000","0","2","12c7beb5af1a3f6b367c07823a731c102468ffd68d9dcda7d71a17e663bbae52","732014","570.9000000003725","88","1","arctic","","","","",""
"dual-task","null","null","null","","arctic","arctic","526.7000000001863","","B","null","77","77","1","arctic-dual-task","","B","uppercase","738000","0","2","12c7beb5af1a3f6b367c07823a731c102468ffd68d9dcda7d71a17e663bbae52","738013.5","526.7000000001863","77","1","arctic","","","","",""
"dual-task","null","null","null","","arctic","arctic","593.5","","b","null","88","88","1","arctic-dual-task","","b","lowercase","752000","0","2","12c7beb5af1a3f6b367c07823a731c102468ffd68d9dcda7d71a17e663bbae52","752014.4999999991","593.5","88","1","arctic","","","","",""
"dual-task","null","null","null","","arctic","arctic","507","","F","null","77","77","1","arctic-dual-task","","F","uppercase","760000","0","2","12c7beb5af1a3f6b367c07823a731c102468ffd68d9dcda7d71a17e663bbae52","760007.8999999994","507","77","1","arctic","","","","",""
"dual-task","null","null","null","","arctic","arctic","539","","q","null","88","88","1","arctic-dual-task","","q","lowercase","768000","0","2","12c7beb5af1a3f6b367c07823a731c102468ffd68d9dcda7d71a17e663bbae52","768012.3999999994","539","88","1","arctic","","","","",""
"dual-task","null","null","null","","arctic","arctic","595.5","","B","null","77","77","1","arctic-dual-task","","B","uppercase","780000","0","2","12c7beb5af1a3f6b367c07823a731c102468ffd68d9dcda7d71a17e663bbae52","780002.8999999994","595.5","77","1","arctic","","","","",""
"audio-keyboard-response","29","945504","0.0-6.0-0.0-1.0","12c7beb5af1a3f6b367c07823a731c102468ffd68d9dcda7d71a17e663bbae52","arctic","arctic","null","","audio/story_arctic_scrambled.mp3","","null","","","","","","","","","","","","","","","","","","","",""
"html-button-response","30","953989","0.0-6.0-0.0-2.0","12c7beb5af1a3f6b367c07823a731c102468ffd68d9dcda7d71a17e663bbae52","arctic","arctic","8484","","<p>This concludes the story. Thank you for listening.</p><p>You will now answer some questions about the content of the story.</p>","0","","","","","","","","","","","","","","","","","","","","",""
"survey-multi-choice","31","959998","0.0-6.0-0.0-3.0-0.0","12c7beb5af1a3f6b367c07823a731c102468ffd68d9dcda7d71a17e663bbae52","arctic","arctic","6006","","<b>Which dog on the narrator&#39;s dog team never followed instructions?</b>","","","","1","arctic-comprehension","","","","","","","","","","","","","{""Q0"":""Robert""}","","","",""
"survey-multi-choice","32","965869","0.0-6.0-0.0-3.0-0.1","12c7beb5af1a3f6b367c07823a731c102468ffd68d9dcda7d71a17e663bbae52","arctic","arctic","5618","","<b>How did the narrator prepare for her expedition?</b>","","","","1","arctic-comprehension","","","","","","","","","","","","","{""Q0"":""Trained in Alaska learning how to dogsled""}","","","",""
"survey-multi-choice","33","970395","0.0-6.0-0.0-3.0-0.2","12c7beb5af1a3f6b367c07823a731c102468ffd68d9dcda7d71a17e663bbae52","arctic","arctic","4273","","<b>How many sponsorships did the narrator receive to support her expedition?</b>","","","","1","arctic-comprehension","","","","","","","","","","","","","{""Q0"":""None""}","","","",""
"survey-multi-choice","34","980257","0.0-6.0-0.0-3.0-0.3","12c7beb5af1a3f6b367c07823a731c102468ffd68d9dcda7d71a17e663bbae52","arctic","arctic","9607","","<b>How did the narrator&#39;s encounter with the polar bears end?</b>","","","","1","arctic-comprehension","","","","","","","","","","","","","{""Q0"":""The bears walked back to their den.""}","","","",""
"survey-multi-choice","35","995463","0.0-6.0-0.0-3.0-0.4","12c7beb5af1a3f6b367c07823a731c102468ffd68d9dcda7d71a17e663bbae52","arctic","arctic","14953","","<b>What were the weather conditions in the Arctic like the winter of the narrator&#39;s expedition?</b>","","","","0","arctic-comprehension","","","","","","","","","","","","","{""Q0"":""It was the warmest winter in recorded history.""}","","","",""
"survey-multi-choice","36","999981","0.0-6.0-0.0-3.0-0.5","12c7beb5af1a3f6b367c07823a731c102468ffd68d9dcda7d71a17e663bbae52","arctic","arctic","4266","","<b>What was the objective of the narrator&#39;s expedition?</b>","","","","1","arctic-comprehension","","","","","","","","","","","","","{""Q0"":""Dogsled across Arctic America""}","","","",""
"survey-multi-choice","37","1007913","0.0-6.0-0.0-3.0-0.6","12c7beb5af1a3f6b367c07823a731c102468ffd68d9dcda7d71a17e663bbae52","arctic","arctic","7679","","<b>How did the narrator&#39;s neighbour respond when she told him about her expedition?</b>","","","","1","arctic-comprehension","","","","","","","","","","","","","{""Q0"":""He said she was going to fail.""}","","","",""
"survey-multi-choice","38","1013754","0.0-6.0-0.0-3.0-0.7","12c7beb5af1a3f6b367c07823a731c102468ffd68d9dcda7d71a17e663bbae52","arctic","arctic","5587","","<b>What is the name of the narrator&#39;s neighbour?</b>","","","","1","arctic-comprehension","","","","","","","","","","","","","{""Q0"":""Dave""}","","","",""
"survey-multi-choice","39","1017879","0.0-6.0-0.0-3.0-0.8","12c7beb5af1a3f6b367c07823a731c102468ffd68d9dcda7d71a17e663bbae52","arctic","arctic","3872","","<b>What did the narrator do for leisure while in her tent?</b>","","","","1","arctic-comprehension","","","","","","","","","","","","","{""Q0"":""Read""}","","","",""
"survey-multi-choice","40","1023093","0.0-6.0-0.0-3.0-0.9","12c7beb5af1a3f6b367c07823a731c102468ffd68d9dcda7d71a17e663bbae52","arctic","arctic","4962","","<b>How did the dogs respond when they saw the bears?</b>","","","","0","arctic-comprehension","","","","","","","","","","","","","{""Q0"":""Barked aggressively""}","","","",""
"html-button-response","41","1025449","0.0-6.0-0.0-4.0","12c7beb5af1a3f6b367c07823a731c102468ffd68d9dcda7d71a17e663bbae52","arctic","arctic","2103","","<p>Thank you for your responses.</p><p>You will now answer some questions about your impressions of the story.</p>","0","","","","","","","","","","","","","","","","","","","","",""
"html-button-response","42","1028597","0.0-6.0-0.0-5.0-0.0","12c7beb5af1a3f6b367c07823a731c102468ffd68d9dcda7d71a17e663bbae52","arctic","arctic","3148","","A1","0","","","","arctic-engagement","","","","","","","","","","","","","","1","absorption","",""
"html-button-response","43","1033053","0.0-6.0-0.0-5.0-0.1","12c7beb5af1a3f6b367c07823a731c102468ffd68d9dcda7d71a17e663bbae52","arctic","arctic","4203","","A2","4","","","","arctic-engagement","","","","","","","","","","","","","","5","absorption","",""
"html-button-response","44","1035825","0.0-6.0-0.0-5.0-0.2","12c7beb5af1a3f6b367c07823a731c102468ffd68d9dcda7d71a17e663bbae52","arctic","arctic","2520","","E7","2","","","","arctic-engagement","","","","","","","","","","","","","","3","enjoyment","",""
"html-button-response","45","1038271","0.0-6.0-0.0-5.0-0.3","12c7beb5af1a3f6b367c07823a731c102468ffd68d9dcda7d71a17e663bbae52","arctic","arctic","2194","","EE2","4","","","","arctic-engagement","","","","","","","","","","","","","","5","emo-engage","",""
"html-button-response","46","1042517","0.0-6.0-0.0-5.0-0.4","12c7beb5af1a3f6b367c07823a731c102468ffd68d9dcda7d71a17e663bbae52","arctic","arctic","3994","","MS2","5","","","","arctic-engagement","","","","","","","","","","","","","","6","mental-sim","",""
"html-button-response","47","1045609","0.0-6.0-0.0-5.0-0.5","12c7beb5af1a3f6b367c07823a731c102468ffd68d9dcda7d71a17e663bbae52","arctic","arctic","2842","","A5","0","","","","arctic-engagement","","","","","","","","","","","","","","1","absorption","",""
"html-button-response","48","1046875","0.0-6.0-0.0-5.0-0.6","12c7beb5af1a3f6b367c07823a731c102468ffd68d9dcda7d71a17e663bbae52","arctic","arctic","1013","","E6","0","","","","arctic-engagement","","","","","","","","","","","","","","1","enjoyment","",""
"html-button-response","49","1049903","0.0-6.0-0.0-5.0-0.7","12c7beb5af1a3f6b367c07823a731c102468ffd68d9dcda7d71a17e663bbae52","arctic","arctic","2777","","EE3","1","","","","arctic-engagement","","","","","","","","","","","","","","2","emo-engage","",""
"html-button-response","50","1053659","0.0-6.0-0.0-5.0-0.8","12c7beb5af1a3f6b367c07823a731c102468ffd68d9dcda7d71a17e663bbae52","arctic","arctic","3502","","E10","0","","","","arctic-engagement","","","","","","","","","","","","","","1","enjoyment","",""
"html-button-response","51","1057217","0.0-6.0-0.0-5.0-0.9","12c7beb5af1a3f6b367c07823a731c102468ffd68d9dcda7d71a17e663bbae52","arctic","arctic","3306","","A3","0","","","","arctic-engagement","","","","","","","","","","","","","","1","absorption","",""
"html-button-response","52","1059755","0.0-6.0-0.0-5.0-0.10","12c7beb5af1a3f6b367c07823a731c102468ffd68d9dcda7d71a17e663bbae52","arctic","arctic","2286","","MS3","4","","","","arctic-engagement","","","","","","","","","","","","","","5","mental-sim","",""
"html-button-response","53","1062295","0.0-6.0-0.0-5.0-0.11","12c7beb5af1a3f6b367c07823a731c102468ffd68d9dcda7d71a17e663bbae52","arctic","arctic","2287","","EE5","3","","","","arctic-engagement","","","","","","","","","","","","","","4","emo-engage","",""
"html-button-response","54","1064401","0.0-6.0-0.0-5.0-0.12","12c7beb5af1a3f6b367c07823a731c102468ffd68d9dcda7d71a17e663bbae52","arctic","arctic","1854","","A4","0","","","","arctic-engagement","","","","","","","","","","","","","","1","absorption","",""
"html-button-response","55","1069561","0.0-6.0-0.0-5.0-0.13","12c7beb5af1a3f6b367c07823a731c102468ffd68d9dcda7d71a17e663bbae52","arctic","arctic","4909","","EE1","3","","","","arctic-engagement","","","","","","","","","","","","","","4","emo-engage","",""
"html-button-response","56","1071781","0.0-6.0-0.0-5.0-0.14","12c7beb5af1a3f6b367c07823a731c102468ffd68d9dcda7d71a17e663bbae52","arctic","arctic","1968","","E1","0","","","","arctic-engagement","","","","","","","","","","","","","","1","enjoyment","",""
"html-button-response","57","1075346","0.0-6.0-0.0-5.0-0.15","12c7beb5af1a3f6b367c07823a731c102468ffd68d9dcda7d71a17e663bbae52","arctic","arctic","3314","","EE4","1","","","","arctic-engagement","","","","","","","","","","","","","","2","emo-engage","",""
"html-button-response","58","1077527","0.0-6.0-0.0-5.0-0.16","12c7beb5af1a3f6b367c07823a731c102468ffd68d9dcda7d71a17e663bbae52","arctic","arctic","1930","","E8","0","","","","arctic-engagement","","","","","","","","","","","","","","1","enjoyment","",""
"html-button-response","59","1081173","0.0-6.0-0.0-5.0-0.17","12c7beb5af1a3f6b367c07823a731c102468ffd68d9dcda7d71a17e663bbae52","arctic","arctic","3393","","MS1","2","","","","arctic-engagement","","","","","","","","","","","","","","3","mental-sim","",""
"html-keyboard-response","60","1086666","0.0-6.0-1.0","12c7beb5af1a3f6b367c07823a731c102468ffd68d9dcda7d71a17e663bbae52","arctic","arctic","5241","","<p>Thank you for your responses. You will now listen to the second story.</p><p>Remember, as you listen to the story you will see letters appear on the screen.</br>As quickly as possible, press <b>&lt;x&gt;</b> if the letter is lowercase and <b>&lt;m&gt;</b> if the letter is uppercase.</p><p>Press <b>&lt;x&gt;</b> or <b>&lt;m&gt;</b> to begin listening!</p>","","77","","","","","","","","","","","","","","","","","","","",""
"html-keyboard-response","61","1087167","0.0-6.0-2.0-0.0","12c7beb5af1a3f6b367c07823a731c102468ffd68d9dcda7d71a17e663bbae52","arctic","arctic","null","","<div style=""font-size:60px;"" tabindex=""0"">+</div>","","null","","","","","","","","","","","","","","","","","","","",""
"dual-task","null","null","null","","arctic","arctic","NA","","h","null","NA","88","0","swim-dual-task","","h","lowercase","12000","1","2","12c7beb5af1a3f6b367c07823a731c102468ffd68d9dcda7d71a17e663bbae52","12012.900000000373","NA","NA","0","swim","","","","",""
"dual-task","null","null","null","","arctic","arctic","540.8000000007451","","G","null","77","77","1","swim-dual-task","","G","uppercase","24000","0","2","12c7beb5af1a3f6b367c07823a731c102468ffd68d9dcda7d71a17e663bbae52","24007.200000001118","540.8000000007451","77","1","swim","","","","",""
"dual-task","null","null","null","","arctic","arctic","547.8000000007451","","e","null","88","88","1","swim-dual-task","","e","lowercase","34000","0","2","12c7beb5af1a3f6b367c07823a731c102468ffd68d9dcda7d71a17e663bbae52","34007.70000000112","547.8000000007451","88","1","swim","","","","",""
"dual-task","null","null","null","","arctic","arctic","536.5","","a","null","88","88","1","swim-dual-task","","a","lowercase","42000","0","2","12c7beb5af1a3f6b367c07823a731c102468ffd68d9dcda7d71a17e663bbae52","42001.40000000037","536.5","88","1","swim","","","","",""
"dual-task","null","null","null","","arctic","arctic","611.1000000014901","","Q","null","77","77","1","swim-dual-task","","Q","uppercase","50000","0","2","12c7beb5af1a3f6b367c07823a731c102468ffd68d9dcda7d71a17e663bbae52","50011","611.1000000014901","77","1","swim","","","","",""
"dual-task","null","null","null","","arctic","arctic","497.40000000037253","","F","null","77","77","1","swim-dual-task","","F","uppercase","58000","0","2","12c7beb5af1a3f6b367c07823a731c102468ffd68d9dcda7d71a17e663bbae52","58010.90000000037","497.40000000037253","77","1","swim","","","","",""
"dual-task","null","null","null","","arctic","arctic","490","","B","null","77","77","1","swim-dual-task","","B","uppercase","68000","0","2","12c7beb5af1a3f6b367c07823a731c102468ffd68d9dcda7d71a17e663bbae52","68012.40000000037","490","77","1","swim","","","","",""
"dual-task","null","null","null","","arctic","arctic","591.0999999996275","","a","null","88","88","1","swim-dual-task","","a","lowercase","78000","0","2","12c7beb5af1a3f6b367c07823a731c102468ffd68d9dcda7d71a17e663bbae52","78014.60000000149","591.0999999996275","88","1","swim","","","","",""
"dual-task","null","null","null","","arctic","arctic","485","","r","null","88","88","1","swim-dual-task","","r","lowercase","86000","0","2","12c7beb5af1a3f6b367c07823a731c102468ffd68d9dcda7d71a17e663bbae52","86002","485","88","1","swim","","","","",""
"dual-task","null","null","null","","arctic","arctic","562.7999999988824","","q","null","88","88","1","swim-dual-task","","q","lowercase","98000","0","2","12c7beb5af1a3f6b367c07823a731c102468ffd68d9dcda7d71a17e663bbae52","98011.5","562.7999999988824","88","1","swim","","","","",""
"dual-task","null","null","null","","arctic","arctic","540.7000000011176","","q","null","88","88","1","swim-dual-task","","q","lowercase","110000","0","2","12c7beb5af1a3f6b367c07823a731c102468ffd68d9dcda7d71a17e663bbae52","110012.90000000037","540.7000000011176","88","1","swim","","","","",""
"dual-task","null","null","null","","arctic","arctic","580.7000000011176","","g","null","88","88","1","swim-dual-task","","g","lowercase","118000","0","2","12c7beb5af1a3f6b367c07823a731c102468ffd68d9dcda7d71a17e663bbae52","118003.5","580.7000000011176","88","1","swim","","","","",""
"dual-task","null","null","null","","arctic","arctic","599.5999999996275","","D","null","77","77","1","swim-dual-task","","D","uppercase","132000","0","2","12c7beb5af1a3f6b367c07823a731c102468ffd68d9dcda7d71a17e663bbae52","132003.40000000037","599.5999999996275","77","1","swim","","","","",""
"dual-task","null","null","null","","arctic","arctic","593.3000000007451","","N","null","77","77","1","swim-dual-task","","N","uppercase","146000","0","2","12c7beb5af1a3f6b367c07823a731c102468ffd68d9dcda7d71a17e663bbae52","146001.30000000075","593.3000000007451","77","1","swim","","","","",""
"dual-task","null","null","null","","arctic","arctic","531.9000000003725","","n","null","88","88","1","swim-dual-task","","n","lowercase","154000","0","2","12c7beb5af1a3f6b367c07823a731c102468ffd68d9dcda7d71a17e663bbae52","154005.40000000037","531.9000000003725","88","1","swim","","","","",""
"dual-task","null","null","null","","arctic","arctic","554.9000000003725","","Q","null","77","77","1","swim-dual-task","","Q","uppercase","160000","0","2","12c7beb5af1a3f6b367c07823a731c102468ffd68d9dcda7d71a17e663bbae52","160004.90000000037","554.9000000003725","77","1","swim","","","","",""
"dual-task","null","null","null","","arctic","arctic","518","","A","null","88","77","0","swim-dual-task","","A","uppercase","170000","0","2","12c7beb5af1a3f6b367c07823a731c102468ffd68d9dcda7d71a17e663bbae52","170002.6000000015","518","88","0","swim","","","","",""
"dual-task","null","null","null","","arctic","arctic","548.3999999985099","","A","null","77","77","1","swim-dual-task","","A","uppercase","182000","0","2","12c7beb5af1a3f6b367c07823a731c102468ffd68d9dcda7d71a17e663bbae52","182006.1000000015","548.3999999985099","77","1","swim","","","","",""
"dual-task","null","null","null","","arctic","arctic","554.2999999988824","","f","null","88","88","1","swim-dual-task","","f","lowercase","190000","0","2","12c7beb5af1a3f6b367c07823a731c102468ffd68d9dcda7d71a17e663bbae52","190009.6000000015","554.2999999988824","88","1","swim","","","","",""
"dual-task","null","null","null","","arctic","arctic","449.30000000074506","","G","null","77","77","1","swim-dual-task","","G","uppercase","202000","0","2","12c7beb5af1a3f6b367c07823a731c102468ffd68d9dcda7d71a17e663bbae52","202012.40000000037","449.30000000074506","77","1","swim","","","","",""
"dual-task","null","null","null","","arctic","arctic","512.0999999996275","","T","null","77","77","1","swim-dual-task","","T","uppercase","214000","0","2","12c7beb5af1a3f6b367c07823a731c102468ffd68d9dcda7d71a17e663bbae52","214003.6000000015","512.0999999996275","77","1","swim","","","","",""
"dual-task","null","null","null","","arctic","arctic","466.30000000074506","","F","null","77","77","1","swim-dual-task","","F","uppercase","226000","0","2","12c7beb5af1a3f6b367c07823a731c102468ffd68d9dcda7d71a17e663bbae52","226002.5","466.30000000074506","77","1","swim","","","","",""
"dual-task","null","null","null","","arctic","arctic","668.0999999996275","","g","null","88","88","1","swim-dual-task","","g","lowercase","234000","0","2","12c7beb5af1a3f6b367c07823a731c102468ffd68d9dcda7d71a17e663bbae52","234000.1000000015","668.0999999996275","88","1","swim","","","","",""
"dual-task","null","null","null","","arctic","arctic","508.80000000074506","","E","null","77","77","1","swim-dual-task","","E","uppercase","242000","0","2","12c7beb5af1a3f6b367c07823a731c102468ffd68d9dcda7d71a17e663bbae52","242004.40000000037","508.80000000074506","77","1","swim","","","","",""
"dual-task","null","null","null","","arctic","arctic","587.2999999988824","","q","null","88","88","1","swim-dual-task","","q","lowercase","248000","0","2","12c7beb5af1a3f6b367c07823a731c102468ffd68d9dcda7d71a17e663bbae52","248011.70000000112","587.2999999988824","88","1","swim","","","","",""
"dual-task","null","null","null","","arctic","arctic","570.5","","r","null","88","88","1","swim-dual-task","","r","lowercase","256000","0","2","12c7beb5af1a3f6b367c07823a731c102468ffd68d9dcda7d71a17e663bbae52","256009.90000000037","570.5","88","1","swim","","","","",""
"dual-task","null","null","null","","arctic","arctic","471.1000000014901","","a","null","88","88","1","swim-dual-task","","a","lowercase","264000","0","2","12c7beb5af1a3f6b367c07823a731c102468ffd68d9dcda7d71a17e663bbae52","264009.9000000004","471.1000000014901","88","1","swim","","","","",""
"dual-task","null","null","null","","arctic","arctic","1333.9000000003725","","F","null","77","77","1","swim-dual-task","","F","uppercase","270000","0","2","12c7beb5af1a3f6b367c07823a731c102468ffd68d9dcda7d71a17e663bbae52","270004.30000000075","1333.9000000003725","77","1","swim","","","","",""
"dual-task","null","null","null","","arctic","arctic","671.3000000007451","","f","null","88","88","1","swim-dual-task","","f","lowercase","280000","0","2","12c7beb5af1a3f6b367c07823a731c102468ffd68d9dcda7d71a17e663bbae52","280011","671.3000000007451","88","1","swim","","","","",""
"dual-task","null","null","null","","arctic","arctic","525.5","","n","null","88","88","1","swim-dual-task","","n","lowercase","286000","0","2","12c7beb5af1a3f6b367c07823a731c102468ffd68d9dcda7d71a17e663bbae52","286004","525.5","88","1","swim","","","","",""
"dual-task","null","null","null","","arctic","arctic","470.59999999962747","","b","null","88","88","1","swim-dual-task","","b","lowercase","294000","0","2","12c7beb5af1a3f6b367c07823a731c102468ffd68d9dcda7d71a17e663bbae52","294014.1000000015","470.59999999962747","88","1","swim","","","","",""
"dual-task","null","null","null","","arctic","arctic","564.2999999988824","","E","null","77","77","1","swim-dual-task","","E","uppercase","306000","0","2","12c7beb5af1a3f6b367c07823a731c102468ffd68d9dcda7d71a17e663bbae52","306002.5","564.2999999988824","77","1","swim","","","","",""
"dual-task","null","null","null","","arctic","arctic","550","","R","null","77","77","1","swim-dual-task","","R","uppercase","314000","0","2","12c7beb5af1a3f6b367c07823a731c102468ffd68d9dcda7d71a17e663bbae52","314011.1000000015","550","77","1","swim","","","","",""
"dual-task","null","null","null","","arctic","arctic","533","","G","null","77","77","1","swim-dual-task","","G","uppercase","326000","0","2","12c7beb5af1a3f6b367c07823a731c102468ffd68d9dcda7d71a17e663bbae52","326015.1000000015","533","77","1","swim","","","","",""
"dual-task","null","null","null","","arctic","arctic","538","","h","null","88","88","1","swim-dual-task","","h","lowercase","338000","0","2","12c7beb5af1a3f6b367c07823a731c102468ffd68d9dcda7d71a17e663bbae52","338003.30000000075","538","88","1","swim","","","","",""
"dual-task","null","null","null","","arctic","arctic","586","","Q","null","77","77","1","swim-dual-task","","Q","uppercase","348000","0","2","12c7beb5af1a3f6b367c07823a731c102468ffd68d9dcda7d71a17e663bbae52","348010.7000000011","586","77","1","swim","","","","",""
"dual-task","null","null","null","","arctic","arctic","589.1000000014901","","e","null","88","88","1","swim-dual-task","","e","lowercase","356000","0","2","12c7beb5af1a3f6b367c07823a731c102468ffd68d9dcda7d71a17e663bbae52","356010.5","589.1000000014901","88","1","swim","","","","",""
"dual-task","null","null","null","","arctic","arctic","569.5","","A","null","77","77","1","swim-dual-task","","A","uppercase","364000","0","2","12c7beb5af1a3f6b367c07823a731c102468ffd68d9dcda7d71a17e663bbae52","364010.9000000004","569.5","77","1","swim","","","","",""
"dual-task","null","null","null","","arctic","arctic","620.5","","A","null","77","77","1","swim-dual-task","","A","uppercase","376000","0","2","12c7beb5af1a3f6b367c07823a731c102468ffd68d9dcda7d71a17e663bbae52","376007.80000000075","620.5","77","1","swim","","","","",""
"dual-task","null","null","null","","arctic","arctic","563.1999999992549","","q","null","88","88","1","swim-dual-task","","q","lowercase","384000","0","2","12c7beb5af1a3f6b367c07823a731c102468ffd68d9dcda7d71a17e663bbae52","384006.1000000015","563.1999999992549","88","1","swim","","","","",""
"dual-task","null","null","null","","arctic","arctic","539","","N","null","77","77","1","swim-dual-task","","N","uppercase","394000","0","2","12c7beb5af1a3f6b367c07823a731c102468ffd68d9dcda7d71a17e663bbae52","394011.6000000015","539","77","1","swim","","","","",""
"dual-task","null","null","null","","arctic","arctic","621.6999999992549","","T","null","77","77","1","swim-dual-task","","T","uppercase","404000","0","2","12c7beb5af1a3f6b367c07823a731c102468ffd68d9dcda7d71a17e663bbae52","404011.6000000015","621.6999999992549","77","1","swim","","","","",""
"dual-task","null","null","null","","arctic","arctic","479.30000000074506","","f","null","77","88","0","swim-dual-task","","f","lowercase","410000","0","2","12c7beb5af1a3f6b367c07823a731c102468ffd68d9dcda7d71a17e663bbae52","410015.2000000011","479.30000000074506","77","0","swim","","","","",""
"dual-task","null","null","null","","arctic","arctic","571.9000000003725","","e","null","88","88","1","swim-dual-task","","e","lowercase","420000","0","2","12c7beb5af1a3f6b367c07823a731c102468ffd68d9dcda7d71a17e663bbae52","420011.80000000075","571.9000000003725","88","1","swim","","","","",""
"dual-task","null","null","null","","arctic","arctic","514.5999999996275","","G","null","77","77","1","swim-dual-task","","G","uppercase","430000","0","2","12c7beb5af1a3f6b367c07823a731c102468ffd68d9dcda7d71a17e663bbae52","430001.80000000075","514.5999999996275","77","1","swim","","","","",""
"dual-task","null","null","null","","arctic","arctic","657","","h","null","88","88","1","swim-dual-task","","h","lowercase","436000","0","2","12c7beb5af1a3f6b367c07823a731c102468ffd68d9dcda7d71a17e663bbae52","436012.5","657","88","1","swim","","","","",""
"dual-task","null","null","null","","arctic","arctic","663.6000000014901","","H","null","77","77","1","swim-dual-task","","H","uppercase","442000","0","2","12c7beb5af1a3f6b367c07823a731c102468ffd68d9dcda7d71a17e663bbae52","442015.9000000004","663.6000000014901","77","1","swim","","","","",""
"dual-task","null","null","null","","arctic","arctic","581.7999999988824","","h","null","88","88","1","swim-dual-task","","h","lowercase","454000","0","2","12c7beb5af1a3f6b367c07823a731c102468ffd68d9dcda7d71a17e663bbae52","454010.1000000015","581.7999999988824","88","1","swim","","","","",""
"dual-task","null","null","null","","arctic","arctic","536.5","","H","null","77","77","1","swim-dual-task","","H","uppercase","462000","0","2","12c7beb5af1a3f6b367c07823a731c102468ffd68d9dcda7d71a17e663bbae52","462002.6000000015","536.5","77","1","swim","","","","",""
"dual-task","null","null","null","","arctic","arctic","606.2000000011176","","d","null","88","88","1","swim-dual-task","","d","lowercase","476000","0","2","12c7beb5af1a3f6b367c07823a731c102468ffd68d9dcda7d71a17e663bbae52","476013","606.2000000011176","88","1","swim","","","","",""
"dual-task","null","null","null","","arctic","arctic","596.1999999992549","","H","null","77","77","1","swim-dual-task","","H","uppercase","490000","0","2","12c7beb5af1a3f6b367c07823a731c102468ffd68d9dcda7d71a17e663bbae52","490003.30000000075","596.1999999992549","77","1","swim","","","","",""
"dual-task","null","null","null","","arctic","arctic","544.1999999992549","","d","null","88","88","1","swim-dual-task","","d","lowercase","496000","0","2","12c7beb5af1a3f6b367c07823a731c102468ffd68d9dcda7d71a17e663bbae52","496003.30000000075","544.1999999992549","88","1","swim","","","","",""
"dual-task","null","null","null","","arctic","arctic","598.5","","t","null","88","88","1","swim-dual-task","","t","lowercase","510000","0","2","12c7beb5af1a3f6b367c07823a731c102468ffd68d9dcda7d71a17e663bbae52","510009.30000000075","598.5","88","1","swim","","","","",""
"dual-task","null","null","null","","arctic","arctic","520.4000000003725","","B","null","77","77","1","swim-dual-task","","B","uppercase","520000","0","2","12c7beb5af1a3f6b367c07823a731c102468ffd68d9dcda7d71a17e663bbae52","520015.2000000011","520.4000000003725","77","1","swim","","","","",""
"dual-task","null","null","null","","arctic","arctic","453.5","","B","null","77","77","1","swim-dual-task","","B","uppercase","528000","0","2","12c7beb5af1a3f6b367c07823a731c102468ffd68d9dcda7d71a17e663bbae52","528007.7000000011","453.5","77","1","swim","","","","",""
"dual-task","null","null","null","","arctic","arctic","563","","f","null","88","88","1","swim-dual-task","","f","lowercase","540000","0","2","12c7beb5af1a3f6b367c07823a731c102468ffd68d9dcda7d71a17e663bbae52","540014.9000000004","563","88","1","swim","","","","",""
"dual-task","null","null","null","","arctic","arctic","754.5","","e","null","88","88","1","swim-dual-task","","e","lowercase","546000","0","2","12c7beb5af1a3f6b367c07823a731c102468ffd68d9dcda7d71a17e663bbae52","546008.7000000011","754.5","88","1","swim","","","","",""
"dual-task","null","null","null","","arctic","arctic","553.4000000003725","","b","null","88","88","1","swim-dual-task","","b","lowercase","554000","0","2","12c7beb5af1a3f6b367c07823a731c102468ffd68d9dcda7d71a17e663bbae52","554015.7000000011","553.4000000003725","88","1","swim","","","","",""
"dual-task","null","null","null","","arctic","arctic","655.8000000007451","","D","null","77","77","1","swim-dual-task","","D","uppercase","566000","0","2","12c7beb5af1a3f6b367c07823a731c102468ffd68d9dcda7d71a17e663bbae52","566016.3000000007","655.8000000007451","77","1","swim","","","","",""
"dual-task","null","null","null","","arctic","arctic","554.7000000011176","","R","null","77","77","1","swim-dual-task","","R","uppercase","578000","0","2","12c7beb5af1a3f6b367c07823a731c102468ffd68d9dcda7d71a17e663bbae52","578008","554.7000000011176","77","1","swim","","","","",""
"dual-task","null","null","null","","arctic","arctic","555.5","","a","null","88","88","1","swim-dual-task","","a","lowercase","588000","0","2","12c7beb5af1a3f6b367c07823a731c102468ffd68d9dcda7d71a17e663bbae52","588014.7000000011","555.5","88","1","swim","","","","",""
"dual-task","null","null","null","","arctic","arctic","694.1000000014901","","r","null","88","88","1","swim-dual-task","","r","lowercase","600000","0","2","12c7beb5af1a3f6b367c07823a731c102468ffd68d9dcda7d71a17e663bbae52","600013.4000000004","694.1000000014901","88","1","swim","","","","",""
"dual-task","null","null","null","","arctic","arctic","705","","n","null","88","88","1","swim-dual-task","","n","lowercase","610000","0","2","12c7beb5af1a3f6b367c07823a731c102468ffd68d9dcda7d71a17e663bbae52","610009.4000000004","705","88","1","swim","","","","",""
"dual-task","null","null","null","","arctic","arctic","629.1999999992549","","H","null","77","77","1","swim-dual-task","","H","uppercase","622000","0","2","12c7beb5af1a3f6b367c07823a731c102468ffd68d9dcda7d71a17e663bbae52","622010","629.1999999992549","77","1","swim","","","","",""
"dual-task","null","null","null","","arctic","arctic","530.5","","N","null","77","77","1","swim-dual-task","","N","uppercase","634000","0","2","12c7beb5af1a3f6b367c07823a731c102468ffd68d9dcda7d71a17e663bbae52","634013.6000000015","530.5","77","1","swim","","","","",""
"dual-task","null","null","null","","arctic","arctic","570.1999999992549","","N","null","77","77","1","swim-dual-task","","N","uppercase","640000","0","2","12c7beb5af1a3f6b367c07823a731c102468ffd68d9dcda7d71a17e663bbae52","640011.7000000011","570.1999999992549","77","1","swim","","","","",""
"dual-task","null","null","null","","arctic","arctic","599.7999999988824","","t","null","88","88","1","swim-dual-task","","t","lowercase","652000","0","2","12c7beb5af1a3f6b367c07823a731c102468ffd68d9dcda7d71a17e663bbae52","652016.7000000011","599.7999999988824","88","1","swim","","","","",""
"dual-task","null","null","null","","arctic","arctic","762.5","","D","null","77","77","1","swim-dual-task","","D","uppercase","662000","0","2","12c7beb5af1a3f6b367c07823a731c102468ffd68d9dcda7d71a17e663bbae52","662003.4000000004","762.5","77","1","swim","","","","",""
"dual-task","null","null","null","","arctic","arctic","611.6999999992549","","R","null","77","77","1","swim-dual-task","","R","uppercase","672000","0","2","12c7beb5af1a3f6b367c07823a731c102468ffd68d9dcda7d71a17e663bbae52","672000.7000000011","611.6999999992549","77","1","swim","","","","",""
"dual-task","null","null","null","","arctic","arctic","1491.0999999996275","","E","null","77","77","1","swim-dual-task","","E","uppercase","682000","0","2","12c7beb5af1a3f6b367c07823a731c102468ffd68d9dcda7d71a17e663bbae52","682009.4000000004","1491.0999999996275","77","1","swim","","","","",""
"dual-task","null","null","null","","arctic","arctic","654.9000000003725","","D","null","77","77","1","swim-dual-task","","D","uppercase","690000","0","2","12c7beb5af1a3f6b367c07823a731c102468ffd68d9dcda7d71a17e663bbae52","690001","654.9000000003725","77","1","swim","","","","",""
"dual-task","null","null","null","","arctic","arctic","715.0999999996275","","b","null","77","88","0","swim-dual-task","","b","lowercase","700000","0","2","12c7beb5af1a3f6b367c07823a731c102468ffd68d9dcda7d71a17e663bbae52","700009.4000000004","715.0999999996275","77","0","swim","","","","",""
"dual-task","null","null","null","","arctic","arctic","574.9000000003725","","d","null","88","88","1","swim-dual-task","","d","lowercase","708000","0","2","12c7beb5af1a3f6b367c07823a731c102468ffd68d9dcda7d71a17e663bbae52","708009.4000000004","574.9000000003725","88","1","swim","","","","",""
"dual-task","null","null","null","","arctic","arctic","527.5999999996275","","b","null","88","88","1","swim-dual-task","","b","lowercase","716000","0","2","12c7beb5af1a3f6b367c07823a731c102468ffd68d9dcda7d71a17e663bbae52","716011.7000000011","527.5999999996275","88","1","swim","","","","",""
"dual-task","null","null","null","","arctic","arctic","628.4000000003725","","t","null","88","88","1","swim-dual-task","","t","lowercase","724000","0","2","12c7beb5af1a3f6b367c07823a731c102468ffd68d9dcda7d71a17e663bbae52","724000.7000000011","628.4000000003725","88","1","swim","","","","",""
"dual-task","null","null","null","","arctic","arctic","686.2000000011176","","R","null","77","77","1","swim-dual-task","","R","uppercase","736000","0","2","12c7beb5af1a3f6b367c07823a731c102468ffd68d9dcda7d71a17e663bbae52","736011.5","686.2000000011176","77","1","swim","","","","",""
"dual-task","null","null","null","","arctic","arctic","648","","T","null","77","77","1","swim-dual-task","","T","uppercase","744000","0","2","12c7beb5af1a3f6b367c07823a731c102468ffd68d9dcda7d71a17e663bbae52","744004.4000000004","648","77","1","swim","","","","",""
"dual-task","null","null","null","","arctic","arctic","836.3000000007451","","g","null","88","88","1","swim-dual-task","","g","lowercase","756000","0","2","12c7beb5af1a3f6b367c07823a731c102468ffd68d9dcda7d71a17e663bbae52","756005.8000000007","836.3000000007451","88","1","swim","","","","",""
"dual-task","null","null","null","","arctic","arctic","582","","n","null","88","88","1","swim-dual-task","","n","lowercase","768000","0","2","12c7beb5af1a3f6b367c07823a731c102468ffd68d9dcda7d71a17e663bbae52","768009.4000000004","582","88","1","swim","","","","",""
"dual-task","null","null","null","","arctic","arctic","639.6999999992549","","d","null","88","88","1","swim-dual-task","","d","lowercase","782000","0","2","12c7beb5af1a3f6b367c07823a731c102468ffd68d9dcda7d71a17e663bbae52","782004.7000000011","639.6999999992549","88","1","swim","","","","",""
"dual-task","null","null","null","","arctic","arctic","577.5","","Q","null","77","77","1","swim-dual-task","","Q","uppercase","790000","0","2","12c7beb5af1a3f6b367c07823a731c102468ffd68d9dcda7d71a17e663bbae52","790014.3000000007","577.5","77","1","swim","","","","",""
"audio-keyboard-response","62","1897247","0.0-6.0-2.0-1.0","12c7beb5af1a3f6b367c07823a731c102468ffd68d9dcda7d71a17e663bbae52","arctic","arctic","null","","audio/story_swim.mp3","","null","","","","","","","","","","","","","","","","","","","",""
"html-button-response","63","1902201","0.0-6.0-2.0-2.0","12c7beb5af1a3f6b367c07823a731c102468ffd68d9dcda7d71a17e663bbae52","arctic","arctic","4953","","<p>This concludes the story. Thank you for listening.</p><p>You will now answer some questions about the content of the story.</p>","0","","","","","","","","","","","","","","","","","","","","",""
"survey-multi-choice","64","1907672","0.0-6.0-2.0-3.0-0.0","12c7beb5af1a3f6b367c07823a731c102468ffd68d9dcda7d71a17e663bbae52","arctic","arctic","5470","","<b>How many times did the astronaut candidates have to complete the final exercise to pass?</b>","","","","1","swim-comprehension","","","","","","","","","","","","","{""Q0"":""Two""}","","","",""
"survey-multi-choice","65","1921004","0.0-6.0-2.0-3.0-0.1","12c7beb5af1a3f6b367c07823a731c102468ffd68d9dcda7d71a17e663bbae52","arctic","arctic","13077","","<b>How did the narrator train for his swim test?</b>","","","","0","swim-comprehension","","","","","","","","","","","","","{""Q0"":""Swam at the lake every day""}","","","",""
"survey-multi-choice","66","1924298","0.0-6.0-2.0-3.0-0.2","12c7beb5af1a3f6b367c07823a731c102468ffd68d9dcda7d71a17e663bbae52","arctic","arctic","3040","","<b>Where is the home of naval aviation?</b>","","","","1","swim-comprehension","","","","","","","","","","","","","{""Q0"":""Pensacola""}","","","",""
"survey-multi-choice","67","1932348","0.0-6.0-2.0-3.0-0.3","12c7beb5af1a3f6b367c07823a731c102468ffd68d9dcda7d71a17e663bbae52","arctic","arctic","7782","","<b>What gave the narrator his greatest feeling of accomplishment?</b>","","","","1","swim-comprehension","","","","","","","","","","","","","{""Q0"":""Passing the water survival course""}","","","",""
"survey-multi-choice","68","1936289","0.0-6.0-2.0-3.0-0.4","12c7beb5af1a3f6b367c07823a731c102468ffd68d9dcda7d71a17e663bbae52","arctic","arctic","3686","","<b>How often does the narrator swim, now that he is a good swimmer?</b>","","","","1","swim-comprehension","","","","","","","","","","","","","{""Q0"":""Never swam again in his life""}","","","",""
"survey-multi-choice","69","1939629","0.0-6.0-2.0-3.0-0.5","12c7beb5af1a3f6b367c07823a731c102468ffd68d9dcda7d71a17e663bbae52","arctic","arctic","3087","","<b>What is the narrator afraid of, aside from the water?</b>","","","","1","swim-comprehension","","","","","","","","","","","","","{""Q0"":""Heights""}","","","",""
"survey-multi-choice","70","1944981","0.0-6.0-2.0-3.0-0.6","12c7beb5af1a3f6b367c07823a731c102468ffd68d9dcda7d71a17e663bbae52","arctic","arctic","5099","","<b>What were the astronaut candidates trained to do at the naval air station?</b>","","","","1","swim-comprehension","","","","","","","","","","","","","{""Q0"":""Eject out of aircraft and survive in water long enough to be rescued""}","","","",""
"survey-multi-choice","71","1948417","0.0-6.0-2.0-3.0-0.7","12c7beb5af1a3f6b367c07823a731c102468ffd68d9dcda7d71a17e663bbae52","arctic","arctic","3184","","<b>How many astronaut candidates passed the first swim test?</b>","","","","1","swim-comprehension","","","","","","","","","","","","","{""Q0"":""All of them""}","","","",""
"survey-multi-choice","72","1952363","0.0-6.0-2.0-3.0-0.8","12c7beb5af1a3f6b367c07823a731c102468ffd68d9dcda7d71a17e663bbae52","arctic","arctic","3693","","<b>What was the final step of the first swim test in the pool?</b>","","","","1","swim-comprehension","","","","","","","","","","","","","{""Q0"":""Tread water with hands above the water""}","","","",""
"survey-multi-choice","73","1957157","0.0-6.0-2.0-3.0-0.9","12c7beb5af1a3f6b367c07823a731c102468ffd68d9dcda7d71a17e663bbae52","arctic","arctic","4541","","<b>How many astronaut candidates reported for duty at the Johnson Space Center?</b>","","","","1","swim-comprehension","","","","","","","","","","","","","{""Q0"":""Forty-four""}","","","",""
"html-button-response","74","1958759","0.0-6.0-2.0-4.0","12c7beb5af1a3f6b367c07823a731c102468ffd68d9dcda7d71a17e663bbae52","arctic","arctic","1352","","<p>Thank you for your responses.</p><p>You will now answer some questions about your impressions of the story.</p>","0","","","","","","","","","","","","","","","","","","","","",""
"html-button-response","75","1961259","0.0-6.0-2.0-5.0-0.0","12c7beb5af1a3f6b367c07823a731c102468ffd68d9dcda7d71a17e663bbae52","arctic","arctic","2499","","E8","3","","","","swim-engagement","","","","","","","","","","","","","","4","enjoyment","",""
"html-button-response","76","1963623","0.0-6.0-2.0-5.0-0.1","12c7beb5af1a3f6b367c07823a731c102468ffd68d9dcda7d71a17e663bbae52","arctic","arctic","2110","","EE2","4","","","","swim-engagement","","","","","","","","","","","","","","5","emo-engage","",""
"html-button-response","77","1965385","0.0-6.0-2.0-5.0-0.2","12c7beb5af1a3f6b367c07823a731c102468ffd68d9dcda7d71a17e663bbae52","arctic","arctic","1510","","E7","3","","","","swim-engagement","","","","","","","","","","","","","","4","enjoyment","",""
"html-button-response","78","1966571","0.0-6.0-2.0-5.0-0.3","12c7beb5af1a3f6b367c07823a731c102468ffd68d9dcda7d71a17e663bbae52","arctic","arctic","933","","A3","3","","","","swim-engagement","","","","","","","","","","","","","","4","absorption","",""
"html-button-response","79","1968413","0.0-6.0-2.0-5.0-0.4","12c7beb5af1a3f6b367c07823a731c102468ffd68d9dcda7d71a17e663bbae52","arctic","arctic","1590","","E6","2","","","","swim-engagement","","","","","","","","","","","","","","3","enjoyment","",""
"html-button-response","80","1971723","0.0-6.0-2.0-5.0-0.5","12c7beb5af1a3f6b367c07823a731c102468ffd68d9dcda7d71a17e663bbae52","arctic","arctic","3059","","E10","3","","","","swim-engagement","","","","","","","","","","","","","","4","enjoyment","",""
"html-button-response","81","1974376","0.0-6.0-2.0-5.0-0.6","12c7beb5af1a3f6b367c07823a731c102468ffd68d9dcda7d71a17e663bbae52","arctic","arctic","2400","","A4","1","","","","swim-engagement","","","","","","","","","","","","","","2","absorption","",""
"html-button-response","82","1976329","0.0-6.0-2.0-5.0-0.7","12c7beb5af1a3f6b367c07823a731c102468ffd68d9dcda7d71a17e663bbae52","arctic","arctic","1701","","EE3","2","","","","swim-engagement","","","","","","","","","","","","","","3","emo-engage","",""
"html-button-response","83","1978349","0.0-6.0-2.0-5.0-0.8","12c7beb5af1a3f6b367c07823a731c102468ffd68d9dcda7d71a17e663bbae52","arctic","arctic","1768","","EE4","3","","","","swim-engagement","","","","","","","","","","","","","","4","emo-engage","",""
"html-button-response","84","1980191","0.0-6.0-2.0-5.0-0.9","12c7beb5af1a3f6b367c07823a731c102468ffd68d9dcda7d71a17e663bbae52","arctic","arctic","1590","","E1","1","","","","swim-engagement","","","","","","","","","","","","","","2","enjoyment","",""
"html-button-response","85","1981763","0.0-6.0-2.0-5.0-0.10","12c7beb5af1a3f6b367c07823a731c102468ffd68d9dcda7d71a17e663bbae52","arctic","arctic","1321","","EE5","3","","","","swim-engagement","","","","","","","","","","","","","","4","emo-engage","",""
"html-button-response","86","1984639","0.0-6.0-2.0-5.0-0.11","12c7beb5af1a3f6b367c07823a731c102468ffd68d9dcda7d71a17e663bbae52","arctic","arctic","2625","","MS3","4","","","","swim-engagement","","","","","","","","","","","","","","5","mental-sim","",""
"html-button-response","87","1986931","0.0-6.0-2.0-5.0-0.12","12c7beb5af1a3f6b367c07823a731c102468ffd68d9dcda7d71a17e663bbae52","arctic","arctic","2041","","A2","4","","","","swim-engagement","","","","","","","","","","","","","","5","absorption","",""
"html-button-response","88","1989365","0.0-6.0-2.0-5.0-0.13","12c7beb5af1a3f6b367c07823a731c102468ffd68d9dcda7d71a17e663bbae52","arctic","arctic","2183","","A1","0","","","","swim-engagement","","","","","","","","","","","","","","1","absorption","",""
"html-button-response","89","1993139","0.0-6.0-2.0-5.0-0.14","12c7beb5af1a3f6b367c07823a731c102468ffd68d9dcda7d71a17e663bbae52","arctic","arctic","3521","","MS2","3","","","","swim-engagement","","","","","","","","","","","","","","4","mental-sim","",""
"html-button-response","90","1995623","0.0-6.0-2.0-5.0-0.15","12c7beb5af1a3f6b367c07823a731c102468ffd68d9dcda7d71a17e663bbae52","arctic","arctic","2231","","A5","1","","","","swim-engagement","","","","","","","","","","","","","","2","absorption","",""
"html-button-response","91","1997801","0.0-6.0-2.0-5.0-0.16","12c7beb5af1a3f6b367c07823a731c102468ffd68d9dcda7d71a17e663bbae52","arctic","arctic","1926","","MS1","4","","","","swim-engagement","","","","","","","","","","","","","","5","mental-sim","",""
"html-button-response","92","1999797","0.0-6.0-2.0-5.0-0.17","12c7beb5af1a3f6b367c07823a731c102468ffd68d9dcda7d71a17e663bbae52","arctic","arctic","1744","","EE1","4","","","","swim-engagement","","","","","","","","","","","","","","5","emo-engage","",""
"html-button-response","93","2001028","0.0-8.0","12c7beb5af1a3f6b367c07823a731c102468ffd68d9dcda7d71a17e663bbae52","arctic","arctic","980","","<p>Thank you for your responses.</p><p>You will now answer some demographic, hearing, and general health questions.</p>","0","","","","","","","","","","","","","","","","","","","","",""
"survey-multi-choice","94","2003449","0.0-9.0-0.0","12c7beb5af1a3f6b367c07823a731c102468ffd68d9dcda7d71a17e663bbae52","arctic","arctic","2419","","","","","","","survey","","","","","","","","","","","","","{""Q0"":""Chrome""}","","","browser",""
"survey-text","95","2007413","0.0-9.0-1.0","12c7beb5af1a3f6b367c07823a731c102468ffd68d9dcda7d71a17e663bbae52","arctic","arctic","3711.5","","","","","","","survey","","","","","","","","","","","","","{""AGE"":""34""}","","","age","34"
"survey-multi-choice","96","2009483","0.0-9.0-2.0","12c7beb5af1a3f6b367c07823a731c102468ffd68d9dcda7d71a17e663bbae52","arctic","arctic","1818","","","","","","","survey","","","","","","","","","","","","","{""Q0"":""Male""}","","","gender","Male"
"survey-multi-choice","97","2011613","0.0-9.0-4.0","12c7beb5af1a3f6b367c07823a731c102468ffd68d9dcda7d71a17e663bbae52","arctic","arctic","1876","","","","","","","survey","","","","","","","","","","","","","{""Q0"":""Right""}","","","handedness","Right"
"survey-multi-choice","98","2013969","0.0-9.0-5.0","12c7beb5af1a3f6b367c07823a731c102468ffd68d9dcda7d71a17e663bbae52","arctic","arctic","2104","","","","","","","survey","","","","","","","","","","","","","{""Q0"":""Bachelor's Degree""}","","","education","Bachelor's Degree"
"survey-text","99","2019635","0.0-10.0-0.0","12c7beb5af1a3f6b367c07823a731c102468ffd68d9dcda7d71a17e663bbae52","arctic","arctic","5413.4000000003725","","","","","","","survey","","","","","","","","","","","","","{""L1"":""English""}","","","first-language","English"
"survey-text","100","2024340","0.0-10.0-1.0","12c7beb5af1a3f6b367c07823a731c102468ffd68d9dcda7d71a17e663bbae52","arctic","arctic","4449.9000000003725","","","","","","","survey","","","","","","","","","","","","","{""L2name"":"""",""L2fluency"":"""",""L3name"":"""",""L3fluency"":"""",""L4name"":"""",""L4fluency"":""""}","","","additional-languages","{""L2name"":"""",""L2fluency"":"""",""L3name"":"""",""L3fluency"":"""",""L4name"":"""",""L4fluency"":""""}"
"survey-multi-choice","101","2026637","0.0-10.0-2.0","12c7beb5af1a3f6b367c07823a731c102468ffd68d9dcda7d71a17e663bbae52","arctic","arctic","2045","","","","","","","survey","","","","","","","","","","","","","{""Q0"":""No""}","","","hearing-aid","No"
"survey-multi-choice","102","2029289","0.0-10.0-3.0","12c7beb5af1a3f6b367c07823a731c102468ffd68d9dcda7d71a17e663bbae52","arctic","arctic","2400","","","","","","","survey","","","","","","","","","","","","","{""Q0"":""Never""}","","","ringing-ears","Never"
"survey-multi-choice","103","2031737","0.0-10.0-5.0","12c7beb5af1a3f6b367c07823a731c102468ffd68d9dcda7d71a17e663bbae52","arctic","arctic","2195","","","","","","","survey","","","","","","","","","","","","","{""Q0"":""No""}","","","neuro-disease","No"
"survey-multi-choice","104","2034733","0.0-10.0-7.0","12c7beb5af1a3f6b367c07823a731c102468ffd68d9dcda7d71a17e663bbae52","arctic","arctic","2743","","","","","","","survey","","","","","","","","","","","","","{""Q0"":""No""}","","","take-meds","No"
"survey-text","105","2037401","0.0-10.0-9.0","12c7beb5af1a3f6b367c07823a731c102468ffd68d9dcda7d71a17e663bbae52","arctic","arctic","2408.4000000003725","","","","","","","survey","","","","","","","","","","","","","{""HC"":""""}","","","health-concerns",""
"html-button-response","106","2039228","0.0-11.0-0.0","12c7beb5af1a3f6b367c07823a731c102468ffd68d9dcda7d71a17e663bbae52","arctic","arctic","1575","","<p>How would you describe your musical skills/experiences?</p>","5","","","","survey","","","","","","","","","","","","","","","","music-skill","6"
"survey-multi-choice","107","2041325","0.0-11.0-1.0","12c7beb5af1a3f6b367c07823a731c102468ffd68d9dcda7d71a17e663bbae52","arctic","arctic","1846","","","","","","","survey","","","","","","","","","","","","","{""Q0"":""Yes""}","","","music-instrument","Yes"
"survey-text","108","2051451","0.0-11.0-2.0-0.0","12c7beb5af1a3f6b367c07823a731c102468ffd68d9dcda7d71a17e663bbae52","arctic","arctic","9873.199999999255","","","","","","","survey","","","","","","","","","","","","","{""MEXP"":""20""}","","","music-training-yrs","20"
"html-button-response","109","2053405","0.0-12.0-0.0","12c7beb5af1a3f6b367c07823a731c102468ffd68d9dcda7d71a17e663bbae52","arctic","arctic","1702","","<p>How would you describe your general hearing abilities?</p>","5","","","","survey","","","","","","","","","","","","","","","","ssq-01","6"
"html-button-response","110","2060933","0.0-12.0-1.0","12c7beb5af1a3f6b367c07823a731c102468ffd68d9dcda7d71a17e663bbae52","arctic","arctic","7276","","<p>When you talk with someone at a place that strongly reverberates/echoes (e.g., in a church or train station),</br>can you understand what the person says?</p>","10","","","","survey","","","","","","","","","","","","","","","","ssq-02","10"
"html-button-response","111","2063465","0.0-12.0-2.0","12c7beb5af1a3f6b367c07823a731c102468ffd68d9dcda7d71a17e663bbae52","arctic","arctic","2281","","<p>When you are with a group (~5 people) in a lively restaurant, can you follow the group's conversation?</p>","10","","","","survey","","","","","","","","","","","","","","","","ssq-03","10"
"html-button-response","112","2067048","0.0-12.0-3.0","12c7beb5af1a3f6b367c07823a731c102468ffd68d9dcda7d71a17e663bbae52","arctic","arctic","3330","","<p>Based on the sound of a bus or truck, can you tell whether it is moving towards or away from you?</p>","9","","","","survey","","","","","","","","","","","","","","","","ssq-04","9"
"html-button-response","113","2070405","0.0-12.0-4.0","12c7beb5af1a3f6b367c07823a731c102468ffd68d9dcda7d71a17e663bbae52","arctic","arctic","3105","","<p>When you are in an unknown environment, can you tell from which direction a brief sound originates?</p>","10","","","","survey","","","","","","","","","","","","","","","","ssq-05","10"
"html-button-response","114","2074049","0.0-12.0-5.0","12c7beb5af1a3f6b367c07823a731c102468ffd68d9dcda7d71a17e663bbae52","arctic","arctic","3392","","<p>Are you able to ignore distracting sounds when you concentrate on a specific aspect of your acoustic surrounding?</p>","10","","","","survey","","","","","","","","","","","","","","","","ssq-06","10"
"fullscreen","115","2075302","0.0-13.0","12c7beb5af1a3f6b367c07823a731c102468ffd68d9dcda7d71a17e663bbae52","arctic","arctic","","","","","","","","","true","","","","","","","","","","","","","","","",""
