"trial_type","trial_index","time_elapsed","internal_node_id","ParticipantID","firstStory","scramStory","rt","url","stimulus","button_pressed","key_press","correctRESP","correct","designation","success","letterStim","letterType","ONSET","TIMEOUT","CONDITION","Participant","ONSET_ACTUAL","RT","RESP","ACC","STORY","responses","response","type","surveyQuestion","QRESP"
"pavlovia","0","3","0.0-0.0","f526c789a57c8b465d5dfd89a5669627d805487e62e8f7c2bccfdb615d785547","arctic","arctic","","","","","","","","","","","","","","","","","","","","","","","","",""
"external-html","1","34931","0.0-1.0","f526c789a57c8b465d5dfd89a5669627d805487e62e8f7c2bccfdb615d785547","arctic","arctic","34293","consent/consent_updated.html","","","","","","","","","","","","","","","","","","","","","","",""
"html-button-response","2","137248","0.0-2.0-0.0","f526c789a57c8b465d5dfd89a5669627d805487e62e8f7c2bccfdb615d785547","arctic","arctic","102315","","<p>Before we begin the main task, you will complete a short volume calibration and headphone check.</p><p>Please make sure you are in a quiet listening environment, that you are wearing headphones, and that your computer's volume is turned on.<p></p>","0","","","","","","","","","","","","","","","","","","","","",""
"html-button-response","3","140858","0.0-2.0-1.0","f526c789a57c8b465d5dfd89a5669627d805487e62e8f7c2bccfdb615d785547","arctic","arctic","3344","","<p>The volume calibration will be first.</p><p>You will hear a thirty-second noise. Please adjust your computer's volume so that this noise is being presented at a comfortable level.<p></p>","0","","","","","","","","","","","","","","","","","","","","",""
"audio-button-response","4","153709","0.0-2.0-2.0","f526c789a57c8b465d5dfd89a5669627d805487e62e8f7c2bccfdb615d785547","arctic","arctic","12586","","audio/volumetest.mp3","0","","","","","","","","","","","","","","","","","","","","",""
"html-keyboard-response","5","159846","0.0-3.0-0.0","f526c789a57c8b465d5dfd89a5669627d805487e62e8f7c2bccfdb615d785547","arctic","arctic","6136","","<p>You will now complete a short headphone check.</p><p>On each trial, you will hear three tones. One of these tones will be quieter than the others. Your task is to identify whether the quiet tone occurred first, second, or third.</p><p>There are six trials in total.<p></p><p></p>(Press SPACEBAR to begin)","","32","","","","","","","","","","","","","","","","","","","",""
"html-keyboard-response","6","160610","0.0-3.0-1.0-0.0","f526c789a57c8b465d5dfd89a5669627d805487e62e8f7c2bccfdb615d785547","arctic","arctic","null","","<div style=""font-size:60px;"">+</div>","","null","","","","","","","","","","","","","","","","","","","",""
"audio-button-response","7","164208","0.0-3.0-1.0-1.0","f526c789a57c8b465d5dfd89a5669627d805487e62e8f7c2bccfdb615d785547","arctic","arctic","3597","","audio/t2_1.mp3","1","","1","1","headphone-test","","","","","","","","","","","","","","","","",""
"html-keyboard-response","8","164710","0.0-3.0-1.0-2.0","f526c789a57c8b465d5dfd89a5669627d805487e62e8f7c2bccfdb615d785547","arctic","arctic","null","","<p>Correct</p>","","null","","","","","","","","","","","","","","","","","","","",""
"html-keyboard-response","9","165229","0.0-3.0-1.0-0.1","f526c789a57c8b465d5dfd89a5669627d805487e62e8f7c2bccfdb615d785547","arctic","arctic","null","","<div style=""font-size:60px;"">+</div>","","null","","","","","","","","","","","","","","","","","","","",""
"audio-button-response","10","168843","0.0-3.0-1.0-1.1","f526c789a57c8b465d5dfd89a5669627d805487e62e8f7c2bccfdb615d785547","arctic","arctic","3613","","audio/t3_2.mp3","2","","2","1","headphone-test","","","","","","","","","","","","","","","","",""
"html-keyboard-response","11","169350","0.0-3.0-1.0-2.1","f526c789a57c8b465d5dfd89a5669627d805487e62e8f7c2bccfdb615d785547","arctic","arctic","null","","<p>Correct</p>","","null","","","","","","","","","","","","","","","","","","","",""
"html-keyboard-response","12","169851","0.0-3.0-1.0-0.2","f526c789a57c8b465d5dfd89a5669627d805487e62e8f7c2bccfdb615d785547","arctic","arctic","null","","<div style=""font-size:60px;"">+</div>","","null","","","","","","","","","","","","","","","","","","","",""
"audio-button-response","13","173659","0.0-3.0-1.0-1.2","f526c789a57c8b465d5dfd89a5669627d805487e62e8f7c2bccfdb615d785547","arctic","arctic","3807","","audio/t1_1.mp3","0","","0","1","headphone-test","","","","","","","","","","","","","","","","",""
"html-keyboard-response","14","174170","0.0-3.0-1.0-2.2","f526c789a57c8b465d5dfd89a5669627d805487e62e8f7c2bccfdb615d785547","arctic","arctic","null","","<p>Correct</p>","","null","","","","","","","","","","","","","","","","","","","",""
"html-keyboard-response","15","174690","0.0-3.0-1.0-0.3","f526c789a57c8b465d5dfd89a5669627d805487e62e8f7c2bccfdb615d785547","arctic","arctic","null","","<div style=""font-size:60px;"">+</div>","","null","","","","","","","","","","","","","","","","","","","",""
"audio-button-response","16","178331","0.0-3.0-1.0-1.3","f526c789a57c8b465d5dfd89a5669627d805487e62e8f7c2bccfdb615d785547","arctic","arctic","3639","","audio/t1_2.mp3","0","","0","1","headphone-test","","","","","","","","","","","","","","","","",""
"html-keyboard-response","17","178837","0.0-3.0-1.0-2.3","f526c789a57c8b465d5dfd89a5669627d805487e62e8f7c2bccfdb615d785547","arctic","arctic","null","","<p>Correct</p>","","null","","","","","","","","","","","","","","","","","","","",""
"html-keyboard-response","18","179338","0.0-3.0-1.0-0.4","f526c789a57c8b465d5dfd89a5669627d805487e62e8f7c2bccfdb615d785547","arctic","arctic","null","","<div style=""font-size:60px;"">+</div>","","null","","","","","","","","","","","","","","","","","","","",""
"audio-button-response","19","182842","0.0-3.0-1.0-1.4","f526c789a57c8b465d5dfd89a5669627d805487e62e8f7c2bccfdb615d785547","arctic","arctic","3503","","audio/t3_1.mp3","2","","2","1","headphone-test","","","","","","","","","","","","","","","","",""
"html-keyboard-response","20","183343","0.0-3.0-1.0-2.4","f526c789a57c8b465d5dfd89a5669627d805487e62e8f7c2bccfdb615d785547","arctic","arctic","null","","<p>Correct</p>","","null","","","","","","","","","","","","","","","","","","","",""
"html-keyboard-response","21","183860","0.0-3.0-1.0-0.5","f526c789a57c8b465d5dfd89a5669627d805487e62e8f7c2bccfdb615d785547","arctic","arctic","null","","<div style=""font-size:60px;"">+</div>","","null","","","","","","","","","","","","","","","","","","","",""
"audio-button-response","22","185976","0.0-3.0-1.0-1.5","f526c789a57c8b465d5dfd89a5669627d805487e62e8f7c2bccfdb615d785547","arctic","arctic","2116","","audio/t2_2.mp3","1","","1","1","headphone-test","","","","","","","","","","","","","","","","",""
"html-keyboard-response","23","186479","0.0-3.0-1.0-2.5","f526c789a57c8b465d5dfd89a5669627d805487e62e8f7c2bccfdb615d785547","arctic","arctic","null","","<p>Correct</p>","","null","","","","","","","","","","","","","","","","","","","",""
"fullscreen","24","191571","0.0-4.0","f526c789a57c8b465d5dfd89a5669627d805487e62e8f7c2bccfdb615d785547","arctic","arctic","","","","","","","","","true","","","","","","","","","","","","","","","",""
"html-button-response","25","197052","0.0-5.0-0.0","f526c789a57c8b465d5dfd89a5669627d805487e62e8f7c2bccfdb615d785547","arctic","arctic","5480","","<p>There are two blocks to this experiment.</p><p>In each block, you will hear a ~13.5 minute story. One of the stories will be scrambled. Please listen carefully to both stories and understand them as best you can.</p><p>After each story, you will be asked some questions to assess your comprehension.</p>","0","","","","","","","","","","","","","","","","","","","","",""
"html-button-response","26","214678","0.0-5.0-1.0","f526c789a57c8b465d5dfd89a5669627d805487e62e8f7c2bccfdb615d785547","arctic","arctic","17626","","<p>During each story, there will be an additional task.</p><p>A letter will occasionally appear on the screen.</br>Your job is to - as quickly as you can - decide whether the letter is lowercase or uppercase and press one of two keys on the keyboard:</p><p>If the letter is <b>lowercase</b>, press key &lt;<b>x</b>&gt;.</p><p>If the letter is <b>uppercase</b>, press key &lt;<b>m</b>&gt;.</p>","0","","","","","","","","","","","","","","","","","","","","",""
"html-keyboard-response","27","261710","0.0-5.0-2.0","f526c789a57c8b465d5dfd89a5669627d805487e62e8f7c2bccfdb615d785547","arctic","arctic","47031","","<p>Because we want your responses to be as quick as possible, please keep your index fingers over the keys while listening.</p><p>Each block lasts about 20 minutes.</p><p><b>Press &lt;x&gt; or &lt;m&gt; to start the first block!</b></p>","","88","","","","","","","","","","","","","","","","","","","",""
"html-keyboard-response","28","262210","0.0-6.0-0.0-0.0","f526c789a57c8b465d5dfd89a5669627d805487e62e8f7c2bccfdb615d785547","arctic","arctic","null","","<div style=""font-size:60px;"" tabindex=""0"">+</div>","","null","","","","","","","","","","","","","","","","","","","",""
"dual-task","null","null","null","","arctic","arctic","750.0999999046326","","Q","null","77","77","1","arctic-dual-task","","Q","uppercase","16000","0","4","f526c789a57c8b465d5dfd89a5669627d805487e62e8f7c2bccfdb615d785547","16010.200000047684","750.0999999046326","77","1","arctic","","","","",""
"dual-task","null","null","null","","arctic","arctic","399.60000014305115","","F","null","77","77","1","arctic-dual-task","","F","uppercase","22000","0","4","f526c789a57c8b465d5dfd89a5669627d805487e62e8f7c2bccfdb615d785547","22000.5","399.60000014305115","77","1","arctic","","","","",""
"dual-task","null","null","null","","arctic","arctic","361.30000019073486","","q","null","77","88","0","arctic-dual-task","","q","lowercase","30000","0","4","f526c789a57c8b465d5dfd89a5669627d805487e62e8f7c2bccfdb615d785547","29999.700000047684","361.30000019073486","77","0","arctic","","","","",""
"dual-task","null","null","null","","arctic","arctic","568.8999998569489","","b","null","88","88","1","arctic-dual-task","","b","lowercase","40000","0","4","f526c789a57c8b465d5dfd89a5669627d805487e62e8f7c2bccfdb615d785547","40000.09999990463","568.8999998569489","88","1","arctic","","","","",""
"dual-task","null","null","null","","arctic","arctic","551.3000001907349","","d","null","88","88","1","arctic-dual-task","","d","lowercase","52000","0","4","f526c789a57c8b465d5dfd89a5669627d805487e62e8f7c2bccfdb615d785547","52009.700000047684","551.3000001907349","88","1","arctic","","","","",""
"dual-task","null","null","null","","arctic","arctic","552.3999998569489","","R","null","77","77","1","arctic-dual-task","","R","uppercase","60000","0","4","f526c789a57c8b465d5dfd89a5669627d805487e62e8f7c2bccfdb615d785547","60000.09999990463","552.3999998569489","77","1","arctic","","","","",""
"dual-task","null","null","null","","arctic","arctic","477.90000009536743","","q","null","88","88","1","arctic-dual-task","","q","lowercase","66000","0","4","f526c789a57c8b465d5dfd89a5669627d805487e62e8f7c2bccfdb615d785547","66019.70000004768","477.90000009536743","88","1","arctic","","","","",""
"dual-task","null","null","null","","arctic","arctic","582.2999999523163","","t","null","88","88","1","arctic-dual-task","","t","lowercase","74000","0","4","f526c789a57c8b465d5dfd89a5669627d805487e62e8f7c2bccfdb615d785547","74010.29999995232","582.2999999523163","88","1","arctic","","","","",""
"dual-task","null","null","null","","arctic","arctic","1150.5","","T","null","77","77","1","arctic-dual-task","","T","uppercase","80000","0","4","f526c789a57c8b465d5dfd89a5669627d805487e62e8f7c2bccfdb615d785547","80009.59999990463","1150.5","77","1","arctic","","","","",""
"dual-task","null","null","null","","arctic","arctic","408.89999985694885","","e","null","88","88","1","arctic-dual-task","","e","lowercase","94000","0","4","f526c789a57c8b465d5dfd89a5669627d805487e62e8f7c2bccfdb615d785547","94008.59999990463","408.89999985694885","88","1","arctic","","","","",""
"dual-task","null","null","null","","arctic","arctic","558.9000000953674","","g","null","88","88","1","arctic-dual-task","","g","lowercase","106000","0","4","f526c789a57c8b465d5dfd89a5669627d805487e62e8f7c2bccfdb615d785547","106009.89999985695","558.9000000953674","88","1","arctic","","","","",""
"dual-task","null","null","null","","arctic","arctic","519.8999998569489","","E","null","77","77","1","arctic-dual-task","","E","uppercase","118000","0","4","f526c789a57c8b465d5dfd89a5669627d805487e62e8f7c2bccfdb615d785547","118009.59999990463","519.8999998569489","77","1","arctic","","","","",""
"dual-task","null","null","null","","arctic","arctic","436.60000014305115","","r","null","77","88","0","arctic-dual-task","","r","lowercase","130000","0","4","f526c789a57c8b465d5dfd89a5669627d805487e62e8f7c2bccfdb615d785547","130011","436.60000014305115","77","0","arctic","","","","",""
"dual-task","null","null","null","","arctic","arctic","464","","n","null","88","88","1","arctic-dual-task","","n","lowercase","142000","0","4","f526c789a57c8b465d5dfd89a5669627d805487e62e8f7c2bccfdb615d785547","142009.39999985695","464","88","1","arctic","","","","",""
"dual-task","null","null","null","","arctic","arctic","469.2000000476837","","f","null","88","88","1","arctic-dual-task","","f","lowercase","156000","0","4","f526c789a57c8b465d5dfd89a5669627d805487e62e8f7c2bccfdb615d785547","156019.59999990463","469.2000000476837","88","1","arctic","","","","",""
"dual-task","null","null","null","","arctic","arctic","398.89999985694885","","E","null","88","77","0","arctic-dual-task","","E","uppercase","162000","0","4","f526c789a57c8b465d5dfd89a5669627d805487e62e8f7c2bccfdb615d785547","162009.79999995232","398.89999985694885","88","0","arctic","","","","",""
"dual-task","null","null","null","","arctic","arctic","597.7000000476837","","g","null","88","88","1","arctic-dual-task","","g","lowercase","176000","0","4","f526c789a57c8b465d5dfd89a5669627d805487e62e8f7c2bccfdb615d785547","176019.70000004768","597.7000000476837","88","1","arctic","","","","",""
"dual-task","null","null","null","","arctic","arctic","556.5","","B","null","77","77","1","arctic-dual-task","","B","uppercase","184000","0","4","f526c789a57c8b465d5dfd89a5669627d805487e62e8f7c2bccfdb615d785547","184020","556.5","77","1","arctic","","","","",""
"dual-task","null","null","null","","arctic","arctic","485","","Q","null","77","77","1","arctic-dual-task","","Q","uppercase","192000","0","4","f526c789a57c8b465d5dfd89a5669627d805487e62e8f7c2bccfdb615d785547","192019.89999985695","485","77","1","arctic","","","","",""
"dual-task","null","null","null","","arctic","arctic","519.7999999523163","","N","null","77","77","1","arctic-dual-task","","N","uppercase","206000","0","4","f526c789a57c8b465d5dfd89a5669627d805487e62e8f7c2bccfdb615d785547","206009.70000004768","519.7999999523163","77","1","arctic","","","","",""
"dual-task","null","null","null","","arctic","arctic","461.09999990463257","","A","null","77","77","1","arctic-dual-task","","A","uppercase","216000","0","4","f526c789a57c8b465d5dfd89a5669627d805487e62e8f7c2bccfdb615d785547","216019.59999990463","461.09999990463257","77","1","arctic","","","","",""
"dual-task","null","null","null","","arctic","arctic","519","","E","null","77","77","1","arctic-dual-task","","E","uppercase","226000","0","4","f526c789a57c8b465d5dfd89a5669627d805487e62e8f7c2bccfdb615d785547","226010","519","77","1","arctic","","","","",""
"dual-task","null","null","null","","arctic","arctic","429.90000009536743","","D","null","77","77","1","arctic-dual-task","","D","uppercase","238000","0","4","f526c789a57c8b465d5dfd89a5669627d805487e62e8f7c2bccfdb615d785547","238010","429.90000009536743","77","1","arctic","","","","",""
"dual-task","null","null","null","","arctic","arctic","565.5999999046326","","N","null","77","77","1","arctic-dual-task","","N","uppercase","252000","0","4","f526c789a57c8b465d5dfd89a5669627d805487e62e8f7c2bccfdb615d785547","252019.5","565.5999999046326","77","1","arctic","","","","",""
"dual-task","null","null","null","","arctic","arctic","470.7000000476837","","G","null","77","77","1","arctic-dual-task","","G","uppercase","262000","0","4","f526c789a57c8b465d5dfd89a5669627d805487e62e8f7c2bccfdb615d785547","262009.5","470.7000000476837","77","1","arctic","","","","",""
"dual-task","null","null","null","","arctic","arctic","678.8999998569489","","f","null","88","88","1","arctic-dual-task","","f","lowercase","272000","0","4","f526c789a57c8b465d5dfd89a5669627d805487e62e8f7c2bccfdb615d785547","272009.7999999523","678.8999998569489","88","1","arctic","","","","",""
"dual-task","null","null","null","","arctic","arctic","543.5999999046326","","D","null","77","77","1","arctic-dual-task","","D","uppercase","280000","0","4","f526c789a57c8b465d5dfd89a5669627d805487e62e8f7c2bccfdb615d785547","280009.39999985695","543.5999999046326","77","1","arctic","","","","",""
"dual-task","null","null","null","","arctic","arctic","535","","H","null","77","77","1","arctic-dual-task","","H","uppercase","288000","0","4","f526c789a57c8b465d5dfd89a5669627d805487e62e8f7c2bccfdb615d785547","288009.59999990463","535","77","1","arctic","","","","",""
"dual-task","null","null","null","","arctic","arctic","524.6000001430511","","A","null","77","77","1","arctic-dual-task","","A","uppercase","294000","0","4","f526c789a57c8b465d5dfd89a5669627d805487e62e8f7c2bccfdb615d785547","294019.89999985695","524.6000001430511","77","1","arctic","","","","",""
"dual-task","null","null","null","","arctic","arctic","516.7000000476837","","h","null","88","88","1","arctic-dual-task","","h","lowercase","302000","0","4","f526c789a57c8b465d5dfd89a5669627d805487e62e8f7c2bccfdb615d785547","302019.7000000477","516.7000000476837","88","1","arctic","","","","",""
"dual-task","null","null","null","","arctic","arctic","438.60000014305115","","a","null","77","88","0","arctic-dual-task","","a","lowercase","308000","0","4","f526c789a57c8b465d5dfd89a5669627d805487e62e8f7c2bccfdb615d785547","308009.7000000477","438.60000014305115","77","0","arctic","","","","",""
"dual-task","null","null","null","","arctic","arctic","492.59999990463257","","R","null","77","77","1","arctic-dual-task","","R","uppercase","318000","0","4","f526c789a57c8b465d5dfd89a5669627d805487e62e8f7c2bccfdb615d785547","318019.89999985695","492.59999990463257","77","1","arctic","","","","",""
"dual-task","null","null","null","","arctic","arctic","554.7000000476837","","a","null","88","88","1","arctic-dual-task","","a","lowercase","324000","0","4","f526c789a57c8b465d5dfd89a5669627d805487e62e8f7c2bccfdb615d785547","324014.39999985695","554.7000000476837","88","1","arctic","","","","",""
"dual-task","null","null","null","","arctic","arctic","559","","B","null","77","77","1","arctic-dual-task","","B","uppercase","330000","0","4","f526c789a57c8b465d5dfd89a5669627d805487e62e8f7c2bccfdb615d785547","330009.7000000477","559","77","1","arctic","","","","",""
"dual-task","null","null","null","","arctic","arctic","606.6000001430511","","r","null","88","88","1","arctic-dual-task","","r","lowercase","338000","0","4","f526c789a57c8b465d5dfd89a5669627d805487e62e8f7c2bccfdb615d785547","338009.7000000477","606.6000001430511","88","1","arctic","","","","",""
"dual-task","null","null","null","","arctic","arctic","428.90000009536743","","n","null","88","88","1","arctic-dual-task","","n","lowercase","348000","0","4","f526c789a57c8b465d5dfd89a5669627d805487e62e8f7c2bccfdb615d785547","348019.7999999523","428.90000009536743","88","1","arctic","","","","",""
"dual-task","null","null","null","","arctic","arctic","484.7999999523163","","G","null","77","77","1","arctic-dual-task","","G","uppercase","362000","0","4","f526c789a57c8b465d5dfd89a5669627d805487e62e8f7c2bccfdb615d785547","362019.7999999523","484.7999999523163","77","1","arctic","","","","",""
"dual-task","null","null","null","","arctic","arctic","520","","h","null","88","88","1","arctic-dual-task","","h","lowercase","374000","0","4","f526c789a57c8b465d5dfd89a5669627d805487e62e8f7c2bccfdb615d785547","374009.09999990463","520","88","1","arctic","","","","",""
"dual-task","null","null","null","","arctic","arctic","446.7000000476837","","t","null","88","88","1","arctic-dual-task","","t","lowercase","384000","0","4","f526c789a57c8b465d5dfd89a5669627d805487e62e8f7c2bccfdb615d785547","384009.5","446.7000000476837","88","1","arctic","","","","",""
"dual-task","null","null","null","","arctic","arctic","541.1000001430511","","H","null","77","77","1","arctic-dual-task","","H","uppercase","390000","0","4","f526c789a57c8b465d5dfd89a5669627d805487e62e8f7c2bccfdb615d785547","390019.5","541.1000001430511","77","1","arctic","","","","",""
"dual-task","null","null","null","","arctic","arctic","620.5","","q","null","88","88","1","arctic-dual-task","","q","lowercase","402000","0","4","f526c789a57c8b465d5dfd89a5669627d805487e62e8f7c2bccfdb615d785547","402019.59999990463","620.5","88","1","arctic","","","","",""
"dual-task","null","null","null","","arctic","arctic","703.6999998092651","","T","null","88","77","0","arctic-dual-task","","T","uppercase","410000","0","4","f526c789a57c8b465d5dfd89a5669627d805487e62e8f7c2bccfdb615d785547","410009","703.6999998092651","88","0","arctic","","","","",""
"dual-task","null","null","null","","arctic","arctic","823.9000000953674","","d","null","88","88","1","arctic-dual-task","","d","lowercase","416000","0","4","f526c789a57c8b465d5dfd89a5669627d805487e62e8f7c2bccfdb615d785547","416009","823.9000000953674","88","1","arctic","","","","",""
"dual-task","null","null","null","","arctic","arctic","611.9000000953674","","g","null","88","88","1","arctic-dual-task","","g","lowercase","426000","0","4","f526c789a57c8b465d5dfd89a5669627d805487e62e8f7c2bccfdb615d785547","426020","611.9000000953674","88","1","arctic","","","","",""
"dual-task","null","null","null","","arctic","arctic","502.90000009536743","","Q","null","77","77","1","arctic-dual-task","","Q","uppercase","434000","0","4","f526c789a57c8b465d5dfd89a5669627d805487e62e8f7c2bccfdb615d785547","434009.5","502.90000009536743","77","1","arctic","","","","",""
"dual-task","null","null","null","","arctic","arctic","476.89999985694885","","T","null","77","77","1","arctic-dual-task","","T","uppercase","444000","0","4","f526c789a57c8b465d5dfd89a5669627d805487e62e8f7c2bccfdb615d785547","444019.39999985695","476.89999985694885","77","1","arctic","","","","",""
"dual-task","null","null","null","","arctic","arctic","430.2999999523163","","t","null","77","88","0","arctic-dual-task","","t","lowercase","458000","0","4","f526c789a57c8b465d5dfd89a5669627d805487e62e8f7c2bccfdb615d785547","458009.5","430.2999999523163","77","0","arctic","","","","",""
"dual-task","null","null","null","","arctic","arctic","444.2000000476837","","e","null","88","88","1","arctic-dual-task","","e","lowercase","466000","0","4","f526c789a57c8b465d5dfd89a5669627d805487e62e8f7c2bccfdb615d785547","466019.7000000477","444.2000000476837","88","1","arctic","","","","",""
"dual-task","null","null","null","","arctic","arctic","567.6000001430511","","f","null","88","88","1","arctic-dual-task","","f","lowercase","478000","0","4","f526c789a57c8b465d5dfd89a5669627d805487e62e8f7c2bccfdb615d785547","478009.09999990463","567.6000001430511","88","1","arctic","","","","",""
"dual-task","null","null","null","","arctic","arctic","623.3999998569489","","A","null","77","77","1","arctic-dual-task","","A","uppercase","492000","0","4","f526c789a57c8b465d5dfd89a5669627d805487e62e8f7c2bccfdb615d785547","492009.39999985695","623.3999998569489","77","1","arctic","","","","",""
"dual-task","null","null","null","","arctic","arctic","476.60000014305115","","F","null","77","77","1","arctic-dual-task","","F","uppercase","506000","0","4","f526c789a57c8b465d5dfd89a5669627d805487e62e8f7c2bccfdb615d785547","506019.59999990463","476.60000014305115","77","1","arctic","","","","",""
"dual-task","null","null","null","","arctic","arctic","470.7000000476837","","F","null","77","77","1","arctic-dual-task","","F","uppercase","520000","0","4","f526c789a57c8b465d5dfd89a5669627d805487e62e8f7c2bccfdb615d785547","520009.2999999523","470.7000000476837","77","1","arctic","","","","",""
"dual-task","null","null","null","","arctic","arctic","598.7999999523163","","n","null","88","88","1","arctic-dual-task","","n","lowercase","532000","0","4","f526c789a57c8b465d5dfd89a5669627d805487e62e8f7c2bccfdb615d785547","532009.5999999046","598.7999999523163","88","1","arctic","","","","",""
"dual-task","null","null","null","","arctic","arctic","469.69999980926514","","N","null","77","77","1","arctic-dual-task","","N","uppercase","544000","0","4","f526c789a57c8b465d5dfd89a5669627d805487e62e8f7c2bccfdb615d785547","544019","469.69999980926514","77","1","arctic","","","","",""
"dual-task","null","null","null","","arctic","arctic","578.8999998569489","","g","null","88","88","1","arctic-dual-task","","g","lowercase","550000","0","4","f526c789a57c8b465d5dfd89a5669627d805487e62e8f7c2bccfdb615d785547","550014","578.8999998569489","88","1","arctic","","","","",""
"dual-task","null","null","null","","arctic","arctic","495.09999990463257","","R","null","77","77","1","arctic-dual-task","","R","uppercase","558000","0","4","f526c789a57c8b465d5dfd89a5669627d805487e62e8f7c2bccfdb615d785547","558009.2000000477","495.09999990463257","77","1","arctic","","","","",""
"dual-task","null","null","null","","arctic","arctic","445.89999985694885","","Q","null","77","77","1","arctic-dual-task","","Q","uppercase","566000","0","4","f526c789a57c8b465d5dfd89a5669627d805487e62e8f7c2bccfdb615d785547","566018.5999999046","445.89999985694885","77","1","arctic","","","","",""
"dual-task","null","null","null","","arctic","arctic","637.9000000953674","","b","null","88","88","1","arctic-dual-task","","b","lowercase","580000","0","4","f526c789a57c8b465d5dfd89a5669627d805487e62e8f7c2bccfdb615d785547","580018.7999999523","637.9000000953674","88","1","arctic","","","","",""
"dual-task","null","null","null","","arctic","arctic","525.2000000476837","","b","null","88","88","1","arctic-dual-task","","b","lowercase","588000","0","4","f526c789a57c8b465d5dfd89a5669627d805487e62e8f7c2bccfdb615d785547","588019.399999857","525.2000000476837","88","1","arctic","","","","",""
"dual-task","null","null","null","","arctic","arctic","519","","E","null","77","77","1","arctic-dual-task","","E","uppercase","598000","0","4","f526c789a57c8b465d5dfd89a5669627d805487e62e8f7c2bccfdb615d785547","598009.2000000477","519","77","1","arctic","","","","",""
"dual-task","null","null","null","","arctic","arctic","543.7000000476837","","T","null","77","77","1","arctic-dual-task","","T","uppercase","606000","0","4","f526c789a57c8b465d5dfd89a5669627d805487e62e8f7c2bccfdb615d785547","606008.899999857","543.7000000476837","77","1","arctic","","","","",""
"dual-task","null","null","null","","arctic","arctic","500.40000009536743","","q","null","88","88","1","arctic-dual-task","","q","lowercase","616000","0","4","f526c789a57c8b465d5dfd89a5669627d805487e62e8f7c2bccfdb615d785547","616019.2000000477","500.40000009536743","88","1","arctic","","","","",""
"dual-task","null","null","null","","arctic","arctic","486.7999999523163","","N","null","77","77","1","arctic-dual-task","","N","uppercase","630000","0","4","f526c789a57c8b465d5dfd89a5669627d805487e62e8f7c2bccfdb615d785547","630009.399999857","486.7999999523163","77","1","arctic","","","","",""
"dual-task","null","null","null","","arctic","arctic","533.4000000953674","","a","null","77","88","0","arctic-dual-task","","a","lowercase","640000","0","4","f526c789a57c8b465d5dfd89a5669627d805487e62e8f7c2bccfdb615d785547","640019.2999999523","533.4000000953674","77","0","arctic","","","","",""
"dual-task","null","null","null","","arctic","arctic","543.2000000476837","","r","null","88","88","1","arctic-dual-task","","r","lowercase","652000","0","4","f526c789a57c8b465d5dfd89a5669627d805487e62e8f7c2bccfdb615d785547","652008.899999857","543.2000000476837","88","1","arctic","","","","",""
"dual-task","null","null","null","","arctic","arctic","511.2000000476837","","e","null","88","88","1","arctic-dual-task","","e","lowercase","666000","0","4","f526c789a57c8b465d5dfd89a5669627d805487e62e8f7c2bccfdb615d785547","666009","511.2000000476837","88","1","arctic","","","","",""
"dual-task","null","null","null","","arctic","arctic","621.0999999046326","","f","null","88","88","1","arctic-dual-task","","f","lowercase","676000","0","4","f526c789a57c8b465d5dfd89a5669627d805487e62e8f7c2bccfdb615d785547","676009.2000000477","621.0999999046326","88","1","arctic","","","","",""
"dual-task","null","null","null","","arctic","arctic","1879.3999998569489","","A","null","88","77","0","arctic-dual-task","","A","uppercase","684000","0","4","f526c789a57c8b465d5dfd89a5669627d805487e62e8f7c2bccfdb615d785547","684008.899999857","1879.3999998569489","88","0","arctic","","","","",""
"dual-task","null","null","null","","arctic","arctic","NA","","d","null","NA","88","0","arctic-dual-task","","d","lowercase","694000","1","4","f526c789a57c8b465d5dfd89a5669627d805487e62e8f7c2bccfdb615d785547","694019","NA","NA","0","arctic","","","","",""
"dual-task","null","null","null","","arctic","arctic","550.5999999046326","","b","null","88","88","1","arctic-dual-task","","b","lowercase","706000","0","4","f526c789a57c8b465d5dfd89a5669627d805487e62e8f7c2bccfdb615d785547","706009.2999999523","550.5999999046326","88","1","arctic","","","","",""
"dual-task","null","null","null","","arctic","arctic","1020.9000000953674","","d","null","88","88","1","arctic-dual-task","","d","lowercase","714000","0","4","f526c789a57c8b465d5dfd89a5669627d805487e62e8f7c2bccfdb615d785547","714018.7000000477","1020.9000000953674","88","1","arctic","","","","",""
"dual-task","null","null","null","","arctic","arctic","644.8000001907349","","B","null","88","77","0","arctic-dual-task","","B","uppercase","728000","0","4","f526c789a57c8b465d5dfd89a5669627d805487e62e8f7c2bccfdb615d785547","728003.7999999523","644.8000001907349","88","0","arctic","","","","",""
"dual-task","null","null","null","","arctic","arctic","536.5999999046326","","G","null","77","77","1","arctic-dual-task","","G","uppercase","742000","0","4","f526c789a57c8b465d5dfd89a5669627d805487e62e8f7c2bccfdb615d785547","742016","536.5999999046326","77","1","arctic","","","","",""
"dual-task","null","null","null","","arctic","arctic","612.8999998569489","","n","null","88","88","1","arctic-dual-task","","n","lowercase","756000","0","4","f526c789a57c8b465d5dfd89a5669627d805487e62e8f7c2bccfdb615d785547","756018.7999999523","612.8999998569489","88","1","arctic","","","","",""
"dual-task","null","null","null","","arctic","arctic","581.2000000476837","","G","null","77","77","1","arctic-dual-task","","G","uppercase","762000","0","4","f526c789a57c8b465d5dfd89a5669627d805487e62e8f7c2bccfdb615d785547","762018.399999857","581.2000000476837","77","1","arctic","","","","",""
"dual-task","null","null","null","","arctic","arctic","1094.9000000953674","","F","null","77","77","1","arctic-dual-task","","F","uppercase","770000","0","4","f526c789a57c8b465d5dfd89a5669627d805487e62e8f7c2bccfdb615d785547","770008.899999857","1094.9000000953674","77","1","arctic","","","","",""
"dual-task","null","null","null","","arctic","arctic","407.7999999523163","","h","null","77","88","0","arctic-dual-task","","h","lowercase","776000","0","4","f526c789a57c8b465d5dfd89a5669627d805487e62e8f7c2bccfdb615d785547","776008.399999857","407.7999999523163","77","0","arctic","","","","",""
"dual-task","null","null","null","","arctic","arctic","596.9000000953674","","B","null","77","77","1","arctic-dual-task","","B","uppercase","784000","0","4","f526c789a57c8b465d5dfd89a5669627d805487e62e8f7c2bccfdb615d785547","784018.899999857","596.9000000953674","77","1","arctic","","","","",""
"audio-keyboard-response","29","1060871","0.0-6.0-0.0-1.0","f526c789a57c8b465d5dfd89a5669627d805487e62e8f7c2bccfdb615d785547","arctic","arctic","null","","audio/story_arctic_scrambled.mp3","","null","","","","","","","","","","","","","","","","","","","",""
"html-button-response","30","1064055","0.0-6.0-0.0-2.0","f526c789a57c8b465d5dfd89a5669627d805487e62e8f7c2bccfdb615d785547","arctic","arctic","3184","","<p>This concludes the story. Thank you for listening.</p><p>You will now answer some questions about the content of the story.</p>","0","","","","","","","","","","","","","","","","","","","","",""
"survey-multi-choice","31","1073855","0.0-6.0-0.0-3.0-0.0","f526c789a57c8b465d5dfd89a5669627d805487e62e8f7c2bccfdb615d785547","arctic","arctic","9796","","<b>How did the narrator&#39;s neighbour respond when she told him about her expedition?</b>","","","","1","arctic-comprehension","","","","","","","","","","","","","{""Q0"":""He said she was going to fail.""}","","","",""
"survey-multi-choice","32","1079864","0.0-6.0-0.0-3.0-0.1","f526c789a57c8b465d5dfd89a5669627d805487e62e8f7c2bccfdb615d785547","arctic","arctic","5755","","<b>What did the narrator do for leisure while in her tent?</b>","","","","1","arctic-comprehension","","","","","","","","","","","","","{""Q0"":""Read""}","","","",""
"survey-multi-choice","33","1084644","0.0-6.0-0.0-3.0-0.2","f526c789a57c8b465d5dfd89a5669627d805487e62e8f7c2bccfdb615d785547","arctic","arctic","4525","","<b>What is the name of the narrator&#39;s neighbour?</b>","","","","1","arctic-comprehension","","","","","","","","","","","","","{""Q0"":""Dave""}","","","",""
"survey-multi-choice","34","1089098","0.0-6.0-0.0-3.0-0.3","f526c789a57c8b465d5dfd89a5669627d805487e62e8f7c2bccfdb615d785547","arctic","arctic","4193","","<b>What was the objective of the narrator&#39;s expedition?</b>","","","","1","arctic-comprehension","","","","","","","","","","","","","{""Q0"":""Dogsled across Arctic America""}","","","",""
"survey-multi-choice","35","1095428","0.0-6.0-0.0-3.0-0.4","f526c789a57c8b465d5dfd89a5669627d805487e62e8f7c2bccfdb615d785547","arctic","arctic","6064","","<b>How did the narrator prepare for her expedition?</b>","","","","1","arctic-comprehension","","","","","","","","","","","","","{""Q0"":""Trained in Alaska learning how to dogsled""}","","","",""
"survey-multi-choice","36","1100045","0.0-6.0-0.0-3.0-0.5","f526c789a57c8b465d5dfd89a5669627d805487e62e8f7c2bccfdb615d785547","arctic","arctic","4361","","<b>How did the dogs respond when they saw the bears?</b>","","","","1","arctic-comprehension","","","","","","","","","","","","","{""Q0"":""Approached them""}","","","",""
"survey-multi-choice","37","1107692","0.0-6.0-0.0-3.0-0.6","f526c789a57c8b465d5dfd89a5669627d805487e62e8f7c2bccfdb615d785547","arctic","arctic","7392","","<b>How did the narrator&#39;s encounter with the polar bears end?</b>","","","","1","arctic-comprehension","","","","","","","","","","","","","{""Q0"":""The bears walked back to their den.""}","","","",""
"survey-multi-choice","38","1113897","0.0-6.0-0.0-3.0-0.7","f526c789a57c8b465d5dfd89a5669627d805487e62e8f7c2bccfdb615d785547","arctic","arctic","5952","","<b>What were the weather conditions in the Arctic like the winter of the narrator&#39;s expedition?</b>","","","","1","arctic-comprehension","","","","","","","","","","","","","{""Q0"":""There were more storms than any other winter in recorded history.""}","","","",""
"survey-multi-choice","39","1118075","0.0-6.0-0.0-3.0-0.8","f526c789a57c8b465d5dfd89a5669627d805487e62e8f7c2bccfdb615d785547","arctic","arctic","3925","","<b>Which dog on the narrator&#39;s dog team never followed instructions?</b>","","","","0","arctic-comprehension","","","","","","","","","","","","","{""Q0"":""Douggie-dog""}","","","",""
"survey-multi-choice","40","1121587","0.0-6.0-0.0-3.0-0.9","f526c789a57c8b465d5dfd89a5669627d805487e62e8f7c2bccfdb615d785547","arctic","arctic","3258","","<b>How many sponsorships did the narrator receive to support her expedition?</b>","","","","1","arctic-comprehension","","","","","","","","","","","","","{""Q0"":""None""}","","","",""
"html-button-response","41","1123664","0.0-6.0-0.0-4.0","f526c789a57c8b465d5dfd89a5669627d805487e62e8f7c2bccfdb615d785547","arctic","arctic","1824","","<p>Thank you for your responses.</p><p>You will now answer some questions about your impressions of the story.</p>","0","","","","","","","","","","","","","","","","","","","","",""
"html-button-response","42","1127138","0.0-6.0-0.0-5.0-0.0","f526c789a57c8b465d5dfd89a5669627d805487e62e8f7c2bccfdb615d785547","arctic","arctic","3473","","A5","2","","","","arctic-engagement","","","","","","","","","","","","","","3","absorption","",""
"html-button-response","43","1130043","0.0-6.0-0.0-5.0-0.1","f526c789a57c8b465d5dfd89a5669627d805487e62e8f7c2bccfdb615d785547","arctic","arctic","2653","","MS1","1","","","","arctic-engagement","","","","","","","","","","","","","","2","mental-sim","",""
"html-button-response","44","1132161","0.0-6.0-0.0-5.0-0.2","f526c789a57c8b465d5dfd89a5669627d805487e62e8f7c2bccfdb615d785547","arctic","arctic","1866","","EE5","2","","","","arctic-engagement","","","","","","","","","","","","","","3","emo-engage","",""
"html-button-response","45","1134198","0.0-6.0-0.0-5.0-0.3","f526c789a57c8b465d5dfd89a5669627d805487e62e8f7c2bccfdb615d785547","arctic","arctic","1785","","EE2","3","","","","arctic-engagement","","","","","","","","","","","","","","4","emo-engage","",""
"html-button-response","46","1137369","0.0-6.0-0.0-5.0-0.4","f526c789a57c8b465d5dfd89a5669627d805487e62e8f7c2bccfdb615d785547","arctic","arctic","2919","","MS3","5","","","","arctic-engagement","","","","","","","","","","","","","","6","mental-sim","",""
"html-button-response","47","1141058","0.0-6.0-0.0-5.0-0.5","f526c789a57c8b465d5dfd89a5669627d805487e62e8f7c2bccfdb615d785547","arctic","arctic","3436","","EE1","4","","","","arctic-engagement","","","","","","","","","","","","","","5","emo-engage","",""
"html-button-response","48","1143231","0.0-6.0-0.0-5.0-0.6","f526c789a57c8b465d5dfd89a5669627d805487e62e8f7c2bccfdb615d785547","arctic","arctic","1921","","E6","0","","","","arctic-engagement","","","","","","","","","","","","","","1","enjoyment","",""
"html-button-response","49","1145759","0.0-6.0-0.0-5.0-0.7","f526c789a57c8b465d5dfd89a5669627d805487e62e8f7c2bccfdb615d785547","arctic","arctic","2277","","A1","0","","","","arctic-engagement","","","","","","","","","","","","","","1","absorption","",""
"html-button-response","50","1148201","0.0-6.0-0.0-5.0-0.8","f526c789a57c8b465d5dfd89a5669627d805487e62e8f7c2bccfdb615d785547","arctic","arctic","2189","","A2","3","","","","arctic-engagement","","","","","","","","","","","","","","4","absorption","",""
"html-button-response","51","1152128","0.0-6.0-0.0-5.0-0.9","f526c789a57c8b465d5dfd89a5669627d805487e62e8f7c2bccfdb615d785547","arctic","arctic","3675","","EE4","1","","","","arctic-engagement","","","","","","","","","","","","","","2","emo-engage","",""
"html-button-response","52","1153990","0.0-6.0-0.0-5.0-0.10","f526c789a57c8b465d5dfd89a5669627d805487e62e8f7c2bccfdb615d785547","arctic","arctic","1609","","E10","0","","","","arctic-engagement","","","","","","","","","","","","","","1","enjoyment","",""
"html-button-response","53","1155958","0.0-6.0-0.0-5.0-0.11","f526c789a57c8b465d5dfd89a5669627d805487e62e8f7c2bccfdb615d785547","arctic","arctic","1716","","E1","0","","","","arctic-engagement","","","","","","","","","","","","","","1","enjoyment","",""
"html-button-response","54","1158602","0.0-6.0-0.0-5.0-0.12","f526c789a57c8b465d5dfd89a5669627d805487e62e8f7c2bccfdb615d785547","arctic","arctic","2390","","A4","0","","","","arctic-engagement","","","","","","","","","","","","","","1","absorption","",""
"html-button-response","55","1163323","0.0-6.0-0.0-5.0-0.13","f526c789a57c8b465d5dfd89a5669627d805487e62e8f7c2bccfdb615d785547","arctic","arctic","4468","","MS2","2","","","","arctic-engagement","","","","","","","","","","","","","","3","mental-sim","",""
"html-button-response","56","1165134","0.0-6.0-0.0-5.0-0.14","f526c789a57c8b465d5dfd89a5669627d805487e62e8f7c2bccfdb615d785547","arctic","arctic","1559","","E8","0","","","","arctic-engagement","","","","","","","","","","","","","","1","enjoyment","",""
"html-button-response","57","1166241","0.0-6.0-0.0-5.0-0.15","f526c789a57c8b465d5dfd89a5669627d805487e62e8f7c2bccfdb615d785547","arctic","arctic","854","","A3","0","","","","arctic-engagement","","","","","","","","","","","","","","1","absorption","",""
"html-button-response","58","1168116","0.0-6.0-0.0-5.0-0.16","f526c789a57c8b465d5dfd89a5669627d805487e62e8f7c2bccfdb615d785547","arctic","arctic","1624","","EE3","0","","","","arctic-engagement","","","","","","","","","","","","","","1","emo-engage","",""
"html-button-response","59","1169793","0.0-6.0-0.0-5.0-0.17","f526c789a57c8b465d5dfd89a5669627d805487e62e8f7c2bccfdb615d785547","arctic","arctic","1424","","E7","1","","","","arctic-engagement","","","","","","","","","","","","","","2","enjoyment","",""
"html-keyboard-response","60","1176300","0.0-6.0-1.0","f526c789a57c8b465d5dfd89a5669627d805487e62e8f7c2bccfdb615d785547","arctic","arctic","6256","","<p>Thank you for your responses. You will now listen to the second story.</p><p>Remember, as you listen to the story you will see letters appear on the screen.</br>As quickly as possible, press <b>&lt;x&gt;</b> if the letter is lowercase and <b>&lt;m&gt;</b> if the letter is uppercase.</p><p>Press <b>&lt;x&gt;</b> or <b>&lt;m&gt;</b> to begin listening!</p>","","77","","","","","","","","","","","","","","","","","","","",""
"html-keyboard-response","61","1176802","0.0-6.0-2.0-0.0","f526c789a57c8b465d5dfd89a5669627d805487e62e8f7c2bccfdb615d785547","arctic","arctic","null","","<div style=""font-size:60px;"" tabindex=""0"">+</div>","","null","","","","","","","","","","","","","","","","","","","",""
"dual-task","null","null","null","","arctic","arctic","1121.9000000953674","","t","null","88","88","1","swim-dual-task","","t","lowercase","16000","0","4","f526c789a57c8b465d5dfd89a5669627d805487e62e8f7c2bccfdb615d785547","16005.200000047684","1121.9000000953674","88","1","swim","","","","",""
"dual-task","null","null","null","","arctic","arctic","448.59999990463257","","Q","null","77","77","1","swim-dual-task","","Q","uppercase","22000","0","4","f526c789a57c8b465d5dfd89a5669627d805487e62e8f7c2bccfdb615d785547","22014.60000014305","448.59999990463257","77","1","swim","","","","",""
"dual-task","null","null","null","","arctic","arctic","525","","d","null","88","88","1","swim-dual-task","","d","lowercase","36000","0","4","f526c789a57c8b465d5dfd89a5669627d805487e62e8f7c2bccfdb615d785547","36003","525","88","1","swim","","","","",""
"dual-task","null","null","null","","arctic","arctic","408.60000014305115","","h","null","88","88","1","swim-dual-task","","h","lowercase","46000","0","4","f526c789a57c8b465d5dfd89a5669627d805487e62e8f7c2bccfdb615d785547","46014.700000047684","408.60000014305115","88","1","swim","","","","",""
"dual-task","null","null","null","","arctic","arctic","466.90000009536743","","e","null","88","88","1","swim-dual-task","","e","lowercase","52000","0","4","f526c789a57c8b465d5dfd89a5669627d805487e62e8f7c2bccfdb615d785547","52004.60000014305","466.90000009536743","88","1","swim","","","","",""
"dual-task","null","null","null","","arctic","arctic","488.7000000476837","","q","null","88","88","1","swim-dual-task","","q","lowercase","60000","0","4","f526c789a57c8b465d5dfd89a5669627d805487e62e8f7c2bccfdb615d785547","60014.5","488.7000000476837","88","1","swim","","","","",""
"dual-task","null","null","null","","arctic","arctic","480.40000009536743","","G","null","77","77","1","swim-dual-task","","G","uppercase","70000","0","4","f526c789a57c8b465d5dfd89a5669627d805487e62e8f7c2bccfdb615d785547","70014.40000009537","480.40000009536743","77","1","swim","","","","",""
"dual-task","null","null","null","","arctic","arctic","378.59999990463257","","D","null","88","77","0","swim-dual-task","","D","uppercase","84000","0","4","f526c789a57c8b465d5dfd89a5669627d805487e62e8f7c2bccfdb615d785547","84004.79999995232","378.59999990463257","88","0","swim","","","","",""
"dual-task","null","null","null","","arctic","arctic","504.39999985694885","","h","null","77","88","0","swim-dual-task","","h","lowercase","90000","0","4","f526c789a57c8b465d5dfd89a5669627d805487e62e8f7c2bccfdb615d785547","90014.70000004768","504.39999985694885","77","0","swim","","","","",""
"dual-task","null","null","null","","arctic","arctic","539.6000001430511","","n","null","88","88","1","swim-dual-task","","n","lowercase","102000","0","4","f526c789a57c8b465d5dfd89a5669627d805487e62e8f7c2bccfdb615d785547","102003.79999995232","539.6000001430511","88","1","swim","","","","",""
"dual-task","null","null","null","","arctic","arctic","680.2000000476837","","A","null","77","77","1","swim-dual-task","","A","uppercase","114000","0","4","f526c789a57c8b465d5dfd89a5669627d805487e62e8f7c2bccfdb615d785547","114014.70000004768","680.2000000476837","77","1","swim","","","","",""
"dual-task","null","null","null","","arctic","arctic","608.5","","Q","null","77","77","1","swim-dual-task","","Q","uppercase","122000","0","4","f526c789a57c8b465d5dfd89a5669627d805487e62e8f7c2bccfdb615d785547","122014.60000014305","608.5","77","1","swim","","","","",""
"dual-task","null","null","null","","arctic","arctic","466.7000000476837","","R","null","77","77","1","swim-dual-task","","R","uppercase","130000","0","4","f526c789a57c8b465d5dfd89a5669627d805487e62e8f7c2bccfdb615d785547","130004.70000004768","466.7000000476837","77","1","swim","","","","",""
"dual-task","null","null","null","","arctic","arctic","610.3999998569489","","e","null","88","88","1","swim-dual-task","","e","lowercase","142000","0","4","f526c789a57c8b465d5dfd89a5669627d805487e62e8f7c2bccfdb615d785547","142004.40000009537","610.3999998569489","88","1","swim","","","","",""
"dual-task","null","null","null","","arctic","arctic","552.5","","f","null","88","88","1","swim-dual-task","","f","lowercase","148000","0","4","f526c789a57c8b465d5dfd89a5669627d805487e62e8f7c2bccfdb615d785547","148014.40000009537","552.5","88","1","swim","","","","",""
"dual-task","null","null","null","","arctic","arctic","482.39999985694885","","r","null","88","88","1","swim-dual-task","","r","lowercase","158000","0","4","f526c789a57c8b465d5dfd89a5669627d805487e62e8f7c2bccfdb615d785547","158004.60000014305","482.39999985694885","88","1","swim","","","","",""
"dual-task","null","null","null","","arctic","arctic","578.4000000953674","","N","null","77","77","1","swim-dual-task","","N","uppercase","166000","0","4","f526c789a57c8b465d5dfd89a5669627d805487e62e8f7c2bccfdb615d785547","166004.40000009537","578.4000000953674","77","1","swim","","","","",""
"dual-task","null","null","null","","arctic","arctic","648.1000001430511","","A","null","77","77","1","swim-dual-task","","A","uppercase","180000","0","4","f526c789a57c8b465d5dfd89a5669627d805487e62e8f7c2bccfdb615d785547","180014.90000009537","648.1000001430511","77","1","swim","","","","",""
"dual-task","null","null","null","","arctic","arctic","490.40000009536743","","a","null","88","88","1","swim-dual-task","","a","lowercase","192000","0","4","f526c789a57c8b465d5dfd89a5669627d805487e62e8f7c2bccfdb615d785547","192004.29999995232","490.40000009536743","88","1","swim","","","","",""
"dual-task","null","null","null","","arctic","arctic","552.6000001430511","","T","null","77","77","1","swim-dual-task","","T","uppercase","200000","0","4","f526c789a57c8b465d5dfd89a5669627d805487e62e8f7c2bccfdb615d785547","200014.5","552.6000001430511","77","1","swim","","","","",""
"dual-task","null","null","null","","arctic","arctic","556.2000000476837","","F","null","77","77","1","swim-dual-task","","F","uppercase","206000","0","4","f526c789a57c8b465d5dfd89a5669627d805487e62e8f7c2bccfdb615d785547","206002.90000009537","556.2000000476837","77","1","swim","","","","",""
"dual-task","null","null","null","","arctic","arctic","536.5","","T","null","77","77","1","swim-dual-task","","T","uppercase","216000","0","4","f526c789a57c8b465d5dfd89a5669627d805487e62e8f7c2bccfdb615d785547","216014.29999995232","536.5","77","1","swim","","","","",""
"dual-task","null","null","null","","arctic","arctic","506.69999980926514","","r","null","88","88","1","swim-dual-task","","r","lowercase","222000","0","4","f526c789a57c8b465d5dfd89a5669627d805487e62e8f7c2bccfdb615d785547","222004.40000009537","506.69999980926514","88","1","swim","","","","",""
"dual-task","null","null","null","","arctic","arctic","570","","T","null","77","77","1","swim-dual-task","","T","uppercase","232000","0","4","f526c789a57c8b465d5dfd89a5669627d805487e62e8f7c2bccfdb615d785547","232004.40000009537","570","77","1","swim","","","","",""
"dual-task","null","null","null","","arctic","arctic","843.0999999046326","","n","null","88","88","1","swim-dual-task","","n","lowercase","244000","0","4","f526c789a57c8b465d5dfd89a5669627d805487e62e8f7c2bccfdb615d785547","244012.10000014305","843.0999999046326","88","1","swim","","","","",""
"dual-task","null","null","null","","arctic","arctic","456.39999985694885","","N","null","77","77","1","swim-dual-task","","N","uppercase","250000","0","4","f526c789a57c8b465d5dfd89a5669627d805487e62e8f7c2bccfdb615d785547","250014.40000009537","456.39999985694885","77","1","swim","","","","",""
"dual-task","null","null","null","","arctic","arctic","666.5","","a","null","88","88","1","swim-dual-task","","a","lowercase","262000","0","4","f526c789a57c8b465d5dfd89a5669627d805487e62e8f7c2bccfdb615d785547","262004.5","666.5","88","1","swim","","","","",""
"dual-task","null","null","null","","arctic","arctic","705.2000000476837","","n","null","88","88","1","swim-dual-task","","n","lowercase","272000","0","4","f526c789a57c8b465d5dfd89a5669627d805487e62e8f7c2bccfdb615d785547","272013.90000009537","705.2000000476837","88","1","swim","","","","",""
"dual-task","null","null","null","","arctic","arctic","450.30000019073486","","g","null","88","88","1","swim-dual-task","","g","lowercase","278000","0","4","f526c789a57c8b465d5dfd89a5669627d805487e62e8f7c2bccfdb615d785547","278004.10000014305","450.30000019073486","88","1","swim","","","","",""
"dual-task","null","null","null","","arctic","arctic","552.3999998569489","","g","null","88","88","1","swim-dual-task","","g","lowercase","292000","0","4","f526c789a57c8b465d5dfd89a5669627d805487e62e8f7c2bccfdb615d785547","292014.40000009537","552.3999998569489","88","1","swim","","","","",""
"dual-task","null","null","null","","arctic","arctic","634.5","","r","null","88","88","1","swim-dual-task","","r","lowercase","304000","0","4","f526c789a57c8b465d5dfd89a5669627d805487e62e8f7c2bccfdb615d785547","304004.2999999523","634.5","88","1","swim","","","","",""
"dual-task","null","null","null","","arctic","arctic","688.2999999523163","","E","null","77","77","1","swim-dual-task","","E","uppercase","316000","0","4","f526c789a57c8b465d5dfd89a5669627d805487e62e8f7c2bccfdb615d785547","316015.10000014305","688.2999999523163","77","1","swim","","","","",""
"dual-task","null","null","null","","arctic","arctic","546","","R","null","77","77","1","swim-dual-task","","R","uppercase","324000","0","4","f526c789a57c8b465d5dfd89a5669627d805487e62e8f7c2bccfdb615d785547","324004.7000000477","546","77","1","swim","","","","",""
"dual-task","null","null","null","","arctic","arctic","548.1000001430511","","b","null","88","88","1","swim-dual-task","","b","lowercase","336000","0","4","f526c789a57c8b465d5dfd89a5669627d805487e62e8f7c2bccfdb615d785547","336003.2000000477","548.1000001430511","88","1","swim","","","","",""
"dual-task","null","null","null","","arctic","arctic","478.89999985694885","","d","null","88","88","1","swim-dual-task","","d","lowercase","346000","0","4","f526c789a57c8b465d5dfd89a5669627d805487e62e8f7c2bccfdb615d785547","346000.5","478.89999985694885","88","1","swim","","","","",""
"dual-task","null","null","null","","arctic","arctic","618.5","","F","null","77","77","1","swim-dual-task","","F","uppercase","360000","0","4","f526c789a57c8b465d5dfd89a5669627d805487e62e8f7c2bccfdb615d785547","360004.40000009537","618.5","77","1","swim","","","","",""
"dual-task","null","null","null","","arctic","arctic","530","","a","null","88","88","1","swim-dual-task","","a","lowercase","368000","0","4","f526c789a57c8b465d5dfd89a5669627d805487e62e8f7c2bccfdb615d785547","368004.2000000477","530","88","1","swim","","","","",""
"dual-task","null","null","null","","arctic","arctic","530.5","","t","null","88","88","1","swim-dual-task","","t","lowercase","378000","0","4","f526c789a57c8b465d5dfd89a5669627d805487e62e8f7c2bccfdb615d785547","378003.90000009537","530.5","88","1","swim","","","","",""
"dual-task","null","null","null","","arctic","arctic","554.2999999523163","","g","null","88","88","1","swim-dual-task","","g","lowercase","386000","0","4","f526c789a57c8b465d5dfd89a5669627d805487e62e8f7c2bccfdb615d785547","386004.2999999523","554.2999999523163","88","1","swim","","","","",""
"dual-task","null","null","null","","arctic","arctic","579","","d","null","77","88","0","swim-dual-task","","d","lowercase","398000","0","4","f526c789a57c8b465d5dfd89a5669627d805487e62e8f7c2bccfdb615d785547","398004","579","77","0","swim","","","","",""
"dual-task","null","null","null","","arctic","arctic","512.1999998092651","","G","null","77","77","1","swim-dual-task","","G","uppercase","408000","0","4","f526c789a57c8b465d5dfd89a5669627d805487e62e8f7c2bccfdb615d785547","408014.5","512.1999998092651","77","1","swim","","","","",""
"dual-task","null","null","null","","arctic","arctic","562.7999999523163","","G","null","77","77","1","swim-dual-task","","G","uppercase","418000","0","4","f526c789a57c8b465d5dfd89a5669627d805487e62e8f7c2bccfdb615d785547","418004","562.7999999523163","77","1","swim","","","","",""
"dual-task","null","null","null","","arctic","arctic","552","","t","null","88","88","1","swim-dual-task","","t","lowercase","426000","0","4","f526c789a57c8b465d5dfd89a5669627d805487e62e8f7c2bccfdb615d785547","426014.5","552","88","1","swim","","","","",""
"dual-task","null","null","null","","arctic","arctic","456.89999985694885","","F","null","77","77","1","swim-dual-task","","F","uppercase","432000","0","4","f526c789a57c8b465d5dfd89a5669627d805487e62e8f7c2bccfdb615d785547","432013.90000009537","456.89999985694885","77","1","swim","","","","",""
"dual-task","null","null","null","","arctic","arctic","1592.3000001907349","","q","null","88","88","1","swim-dual-task","","q","lowercase","440000","0","4","f526c789a57c8b465d5dfd89a5669627d805487e62e8f7c2bccfdb615d785547","440014.10000014305","1592.3000001907349","88","1","swim","","","","",""
"dual-task","null","null","null","","arctic","arctic","554.7000000476837","","e","null","88","88","1","swim-dual-task","","e","lowercase","448000","0","4","f526c789a57c8b465d5dfd89a5669627d805487e62e8f7c2bccfdb615d785547","448004","554.7000000476837","88","1","swim","","","","",""
"dual-task","null","null","null","","arctic","arctic","632.5999999046326","","f","null","88","88","1","swim-dual-task","","f","lowercase","458000","0","4","f526c789a57c8b465d5dfd89a5669627d805487e62e8f7c2bccfdb615d785547","458014","632.5999999046326","88","1","swim","","","","",""
"dual-task","null","null","null","","arctic","arctic","618.7999999523163","","F","null","77","77","1","swim-dual-task","","F","uppercase","472000","0","4","f526c789a57c8b465d5dfd89a5669627d805487e62e8f7c2bccfdb615d785547","472003.7999999523","618.7999999523163","77","1","swim","","","","",""
"dual-task","null","null","null","","arctic","arctic","536.9000000953674","","g","null","88","88","1","swim-dual-task","","g","lowercase","484000","0","4","f526c789a57c8b465d5dfd89a5669627d805487e62e8f7c2bccfdb615d785547","484013.7999999523","536.9000000953674","88","1","swim","","","","",""
"dual-task","null","null","null","","arctic","arctic","536.5999999046326","","f","null","88","88","1","swim-dual-task","","f","lowercase","492000","0","4","f526c789a57c8b465d5dfd89a5669627d805487e62e8f7c2bccfdb615d785547","492014","536.5999999046326","88","1","swim","","","","",""
"dual-task","null","null","null","","arctic","arctic","554.6999998092651","","t","null","88","88","1","swim-dual-task","","t","lowercase","502000","0","4","f526c789a57c8b465d5dfd89a5669627d805487e62e8f7c2bccfdb615d785547","502003.90000009537","554.6999998092651","88","1","swim","","","","",""
"dual-task","null","null","null","","arctic","arctic","522.9000000953674","","T","null","77","77","1","swim-dual-task","","T","uppercase","514000","0","4","f526c789a57c8b465d5dfd89a5669627d805487e62e8f7c2bccfdb615d785547","514003.7000000477","522.9000000953674","77","1","swim","","","","",""
"dual-task","null","null","null","","arctic","arctic","490.19999980926514","","A","null","77","77","1","swim-dual-task","","A","uppercase","526000","0","4","f526c789a57c8b465d5dfd89a5669627d805487e62e8f7c2bccfdb615d785547","526004","490.19999980926514","77","1","swim","","","","",""
"dual-task","null","null","null","","arctic","arctic","472.60000014305115","","B","null","77","77","1","swim-dual-task","","B","uppercase","538000","0","4","f526c789a57c8b465d5dfd89a5669627d805487e62e8f7c2bccfdb615d785547","538013.7999999523","472.60000014305115","77","1","swim","","","","",""
"dual-task","null","null","null","","arctic","arctic","594.9000000953674","","d","null","88","88","1","swim-dual-task","","d","lowercase","548000","0","4","f526c789a57c8b465d5dfd89a5669627d805487e62e8f7c2bccfdb615d785547","548003.7000000477","594.9000000953674","88","1","swim","","","","",""
"dual-task","null","null","null","","arctic","arctic","528.7999999523163","","D","null","77","77","1","swim-dual-task","","D","uppercase","560000","0","4","f526c789a57c8b465d5dfd89a5669627d805487e62e8f7c2bccfdb615d785547","560013.7999999523","528.7999999523163","77","1","swim","","","","",""
"dual-task","null","null","null","","arctic","arctic","442.5","","D","null","77","77","1","swim-dual-task","","D","uppercase","570000","0","4","f526c789a57c8b465d5dfd89a5669627d805487e62e8f7c2bccfdb615d785547","570003.7000000477","442.5","77","1","swim","","","","",""
"dual-task","null","null","null","","arctic","arctic","467.5","","G","null","77","77","1","swim-dual-task","","G","uppercase","576000","0","4","f526c789a57c8b465d5dfd89a5669627d805487e62e8f7c2bccfdb615d785547","576003.600000143","467.5","77","1","swim","","","","",""
"dual-task","null","null","null","","arctic","arctic","536.5","","E","null","77","77","1","swim-dual-task","","E","uppercase","584000","0","4","f526c789a57c8b465d5dfd89a5669627d805487e62e8f7c2bccfdb615d785547","584013.7999999523","536.5","77","1","swim","","","","",""
"dual-task","null","null","null","","arctic","arctic","600.5","","N","null","77","77","1","swim-dual-task","","N","uppercase","596000","0","4","f526c789a57c8b465d5dfd89a5669627d805487e62e8f7c2bccfdb615d785547","596013.600000143","600.5","77","1","swim","","","","",""
"dual-task","null","null","null","","arctic","arctic","448.40000009536743","","H","null","77","77","1","swim-dual-task","","H","uppercase","608000","0","4","f526c789a57c8b465d5dfd89a5669627d805487e62e8f7c2bccfdb615d785547","608014.100000143","448.40000009536743","77","1","swim","","","","",""
"dual-task","null","null","null","","arctic","arctic","650.5999999046326","","b","null","88","88","1","swim-dual-task","","b","lowercase","618000","0","4","f526c789a57c8b465d5dfd89a5669627d805487e62e8f7c2bccfdb615d785547","618003.5","650.5999999046326","88","1","swim","","","","",""
"dual-task","null","null","null","","arctic","arctic","530.0999999046326","","H","null","77","77","1","swim-dual-task","","H","uppercase","626000","0","4","f526c789a57c8b465d5dfd89a5669627d805487e62e8f7c2bccfdb615d785547","626003.600000143","530.0999999046326","77","1","swim","","","","",""
"dual-task","null","null","null","","arctic","arctic","569","","h","null","88","88","1","swim-dual-task","","h","lowercase","638000","0","4","f526c789a57c8b465d5dfd89a5669627d805487e62e8f7c2bccfdb615d785547","638013.600000143","569","88","1","swim","","","","",""
"dual-task","null","null","null","","arctic","arctic","514.6000001430511","","H","null","77","77","1","swim-dual-task","","H","uppercase","644000","0","4","f526c789a57c8b465d5dfd89a5669627d805487e62e8f7c2bccfdb615d785547","644003.7000000477","514.6000001430511","77","1","swim","","","","",""
"dual-task","null","null","null","","arctic","arctic","602.7000000476837","","H","null","77","77","1","swim-dual-task","","H","uppercase","658000","0","4","f526c789a57c8b465d5dfd89a5669627d805487e62e8f7c2bccfdb615d785547","658003.5","602.7000000476837","77","1","swim","","","","",""
"dual-task","null","null","null","","arctic","arctic","576.6000001430511","","r","null","88","88","1","swim-dual-task","","r","lowercase","668000","0","4","f526c789a57c8b465d5dfd89a5669627d805487e62e8f7c2bccfdb615d785547","668013.7000000477","576.6000001430511","88","1","swim","","","","",""
"dual-task","null","null","null","","arctic","arctic","512.7000000476837","","b","null","88","88","1","swim-dual-task","","b","lowercase","678000","0","4","f526c789a57c8b465d5dfd89a5669627d805487e62e8f7c2bccfdb615d785547","678013.600000143","512.7000000476837","88","1","swim","","","","",""
"dual-task","null","null","null","","arctic","arctic","520","","D","null","77","77","1","swim-dual-task","","D","uppercase","686000","0","4","f526c789a57c8b465d5dfd89a5669627d805487e62e8f7c2bccfdb615d785547","686013.600000143","520","77","1","swim","","","","",""
"dual-task","null","null","null","","arctic","arctic","493","","e","null","88","88","1","swim-dual-task","","e","lowercase","698000","0","4","f526c789a57c8b465d5dfd89a5669627d805487e62e8f7c2bccfdb615d785547","698009.2999999523","493","88","1","swim","","","","",""
"dual-task","null","null","null","","arctic","arctic","472.2000000476837","","Q","null","77","77","1","swim-dual-task","","Q","uppercase","706000","0","4","f526c789a57c8b465d5dfd89a5669627d805487e62e8f7c2bccfdb615d785547","706013.7999999523","472.2000000476837","77","1","swim","","","","",""
"dual-task","null","null","null","","arctic","arctic","426.40000009536743","","B","null","77","77","1","swim-dual-task","","B","uppercase","714000","0","4","f526c789a57c8b465d5dfd89a5669627d805487e62e8f7c2bccfdb615d785547","714003.7999999523","426.40000009536743","77","1","swim","","","","",""
"dual-task","null","null","null","","arctic","arctic","530.2999999523163","","q","null","88","88","1","swim-dual-task","","q","lowercase","728000","0","4","f526c789a57c8b465d5dfd89a5669627d805487e62e8f7c2bccfdb615d785547","728003.600000143","530.2999999523163","88","1","swim","","","","",""
"dual-task","null","null","null","","arctic","arctic","528.7000000476837","","B","null","77","77","1","swim-dual-task","","B","uppercase","738000","0","4","f526c789a57c8b465d5dfd89a5669627d805487e62e8f7c2bccfdb615d785547","738013.7000000477","528.7000000476837","77","1","swim","","","","",""
"dual-task","null","null","null","","arctic","arctic","736.9000000953674","","E","null","77","77","1","swim-dual-task","","E","uppercase","750000","0","4","f526c789a57c8b465d5dfd89a5669627d805487e62e8f7c2bccfdb615d785547","750013.2999999523","736.9000000953674","77","1","swim","","","","",""
"dual-task","null","null","null","","arctic","arctic","450.09999990463257","","R","null","77","77","1","swim-dual-task","","R","uppercase","758000","0","4","f526c789a57c8b465d5dfd89a5669627d805487e62e8f7c2bccfdb615d785547","758003.600000143","450.09999990463257","77","1","swim","","","","",""
"dual-task","null","null","null","","arctic","arctic","658.2999999523163","","h","null","88","88","1","swim-dual-task","","h","lowercase","764000","0","4","f526c789a57c8b465d5dfd89a5669627d805487e62e8f7c2bccfdb615d785547","764003.7999999523","658.2999999523163","88","1","swim","","","","",""
"dual-task","null","null","null","","arctic","arctic","439.5","","n","null","77","88","0","swim-dual-task","","n","lowercase","774000","0","4","f526c789a57c8b465d5dfd89a5669627d805487e62e8f7c2bccfdb615d785547","774013.7999999523","439.5","77","0","swim","","","","",""
"dual-task","null","null","null","","arctic","arctic","514.7999999523163","","Q","null","77","77","1","swim-dual-task","","Q","uppercase","780000","0","4","f526c789a57c8b465d5dfd89a5669627d805487e62e8f7c2bccfdb615d785547","780003.4000000954","514.7999999523163","77","1","swim","","","","",""
"dual-task","null","null","null","","arctic","arctic","616.7999999523163","","A","null","77","77","1","swim-dual-task","","A","uppercase","786000","0","4","f526c789a57c8b465d5dfd89a5669627d805487e62e8f7c2bccfdb615d785547","786013.2999999523","616.7999999523163","77","1","swim","","","","",""
"dual-task","null","null","null","","arctic","arctic","498.2000000476837","","E","null","88","77","0","swim-dual-task","","E","uppercase","796000","0","4","f526c789a57c8b465d5dfd89a5669627d805487e62e8f7c2bccfdb615d785547","796003.2999999523","498.2000000476837","88","0","swim","","","","",""
"audio-keyboard-response","62","1987498","0.0-6.0-2.0-1.0","f526c789a57c8b465d5dfd89a5669627d805487e62e8f7c2bccfdb615d785547","arctic","arctic","null","","audio/story_swim.mp3","","null","","","","","","","","","","","","","","","","","","","",""
"html-button-response","63","1990043","0.0-6.0-2.0-2.0","f526c789a57c8b465d5dfd89a5669627d805487e62e8f7c2bccfdb615d785547","arctic","arctic","2544","","<p>This concludes the story. Thank you for listening.</p><p>You will now answer some questions about the content of the story.</p>","0","","","","","","","","","","","","","","","","","","","","",""
"survey-multi-choice","64","1993053","0.0-6.0-2.0-3.0-0.0","f526c789a57c8b465d5dfd89a5669627d805487e62e8f7c2bccfdb615d785547","arctic","arctic","3007","","<b>Where is the home of naval aviation?</b>","","","","1","swim-comprehension","","","","","","","","","","","","","{""Q0"":""Pensacola""}","","","",""
"survey-multi-choice","65","1996639","0.0-6.0-2.0-3.0-0.1","f526c789a57c8b465d5dfd89a5669627d805487e62e8f7c2bccfdb615d785547","arctic","arctic","3329","","<b>What is the narrator afraid of, aside from the water?</b>","","","","1","swim-comprehension","","","","","","","","","","","","","{""Q0"":""Heights""}","","","",""
"survey-multi-choice","66","2001435","0.0-6.0-2.0-3.0-0.2","f526c789a57c8b465d5dfd89a5669627d805487e62e8f7c2bccfdb615d785547","arctic","arctic","4536","","<b>How many times did the astronaut candidates have to complete the final exercise to pass?</b>","","","","1","swim-comprehension","","","","","","","","","","","","","{""Q0"":""Two""}","","","",""
"survey-multi-choice","67","2007368","0.0-6.0-2.0-3.0-0.3","f526c789a57c8b465d5dfd89a5669627d805487e62e8f7c2bccfdb615d785547","arctic","arctic","5669","","<b>What was the final step of the first swim test in the pool?</b>","","","","1","swim-comprehension","","","","","","","","","","","","","{""Q0"":""Tread water with hands above the water""}","","","",""
"survey-multi-choice","68","2013586","0.0-6.0-2.0-3.0-0.4","f526c789a57c8b465d5dfd89a5669627d805487e62e8f7c2bccfdb615d785547","arctic","arctic","5947","","<b>How often does the narrator swim, now that he is a good swimmer?</b>","","","","1","swim-comprehension","","","","","","","","","","","","","{""Q0"":""Never swam again in his life""}","","","",""
"survey-multi-choice","69","2024404","0.0-6.0-2.0-3.0-0.5","f526c789a57c8b465d5dfd89a5669627d805487e62e8f7c2bccfdb615d785547","arctic","arctic","10545","","<b>What were the astronaut candidates trained to do at the naval air station?</b>","","","","1","swim-comprehension","","","","","","","","","","","","","{""Q0"":""Eject out of aircraft and survive in water long enough to be rescued""}","","","",""
"survey-multi-choice","70","2029587","0.0-6.0-2.0-3.0-0.6","f526c789a57c8b465d5dfd89a5669627d805487e62e8f7c2bccfdb615d785547","arctic","arctic","4929","","<b>What gave the narrator his greatest feeling of accomplishment?</b>","","","","1","swim-comprehension","","","","","","","","","","","","","{""Q0"":""Passing the water survival course""}","","","",""
"survey-multi-choice","71","2033318","0.0-6.0-2.0-3.0-0.7","f526c789a57c8b465d5dfd89a5669627d805487e62e8f7c2bccfdb615d785547","arctic","arctic","3476","","<b>How many astronaut candidates reported for duty at the Johnson Space Center?</b>","","","","1","swim-comprehension","","","","","","","","","","","","","{""Q0"":""Forty-four""}","","","",""
"survey-multi-choice","72","2036538","0.0-6.0-2.0-3.0-0.8","f526c789a57c8b465d5dfd89a5669627d805487e62e8f7c2bccfdb615d785547","arctic","arctic","2967","","<b>How many astronaut candidates passed the first swim test?</b>","","","","1","swim-comprehension","","","","","","","","","","","","","{""Q0"":""All of them""}","","","",""
"survey-multi-choice","73","2041314","0.0-6.0-2.0-3.0-0.9","f526c789a57c8b465d5dfd89a5669627d805487e62e8f7c2bccfdb615d785547","arctic","arctic","4523","","<b>How did the narrator train for his swim test?</b>","","","","1","swim-comprehension","","","","","","","","","","","","","{""Q0"":""Took his kids to the pool every day""}","","","",""
"html-button-response","74","2042623","0.0-6.0-2.0-4.0","f526c789a57c8b465d5dfd89a5669627d805487e62e8f7c2bccfdb615d785547","arctic","arctic","1057","","<p>Thank you for your responses.</p><p>You will now answer some questions about your impressions of the story.</p>","0","","","","","","","","","","","","","","","","","","","","",""
"html-button-response","75","2045783","0.0-6.0-2.0-5.0-0.0","f526c789a57c8b465d5dfd89a5669627d805487e62e8f7c2bccfdb615d785547","arctic","arctic","3159","","EE3","1","","","","swim-engagement","","","","","","","","","","","","","","2","emo-engage","",""
"html-button-response","76","2047849","0.0-6.0-2.0-5.0-0.1","f526c789a57c8b465d5dfd89a5669627d805487e62e8f7c2bccfdb615d785547","arctic","arctic","1814","","E8","2","","","","swim-engagement","","","","","","","","","","","","","","3","enjoyment","",""
"html-button-response","77","2051147","0.0-6.0-2.0-5.0-0.2","f526c789a57c8b465d5dfd89a5669627d805487e62e8f7c2bccfdb615d785547","arctic","arctic","3046","","MS2","5","","","","swim-engagement","","","","","","","","","","","","","","6","mental-sim","",""
"html-button-response","78","2055041","0.0-6.0-2.0-5.0-0.3","f526c789a57c8b465d5dfd89a5669627d805487e62e8f7c2bccfdb615d785547","arctic","arctic","3641","","EE1","1","","","","swim-engagement","","","","","","","","","","","","","","2","emo-engage","",""
"html-button-response","79","2057720","0.0-6.0-2.0-5.0-0.4","f526c789a57c8b465d5dfd89a5669627d805487e62e8f7c2bccfdb615d785547","arctic","arctic","2427","","EE5","1","","","","swim-engagement","","","","","","","","","","","","","","2","emo-engage","",""
"html-button-response","80","2060721","0.0-6.0-2.0-5.0-0.5","f526c789a57c8b465d5dfd89a5669627d805487e62e8f7c2bccfdb615d785547","arctic","arctic","2749","","A1","0","","","","swim-engagement","","","","","","","","","","","","","","1","absorption","",""
"html-button-response","81","2063363","0.0-6.0-2.0-5.0-0.6","f526c789a57c8b465d5dfd89a5669627d805487e62e8f7c2bccfdb615d785547","arctic","arctic","2390","","MS1","0","","","","swim-engagement","","","","","","","","","","","","","","1","mental-sim","",""
"html-button-response","82","2065408","0.0-6.0-2.0-5.0-0.7","f526c789a57c8b465d5dfd89a5669627d805487e62e8f7c2bccfdb615d785547","arctic","arctic","1794","","E6","0","","","","swim-engagement","","","","","","","","","","","","","","1","enjoyment","",""
"html-button-response","83","2067416","0.0-6.0-2.0-5.0-0.8","f526c789a57c8b465d5dfd89a5669627d805487e62e8f7c2bccfdb615d785547","arctic","arctic","1756","","E10","1","","","","swim-engagement","","","","","","","","","","","","","","2","enjoyment","",""
"html-button-response","84","2070089","0.0-6.0-2.0-5.0-0.9","f526c789a57c8b465d5dfd89a5669627d805487e62e8f7c2bccfdb615d785547","arctic","arctic","2422","","A2","4","","","","swim-engagement","","","","","","","","","","","","","","5","absorption","",""
"html-button-response","85","2073558","0.0-6.0-2.0-5.0-0.10","f526c789a57c8b465d5dfd89a5669627d805487e62e8f7c2bccfdb615d785547","arctic","arctic","3216","","A5","2","","","","swim-engagement","","","","","","","","","","","","","","3","absorption","",""
"html-button-response","86","2075351","0.0-6.0-2.0-5.0-0.11","f526c789a57c8b465d5dfd89a5669627d805487e62e8f7c2bccfdb615d785547","arctic","arctic","1539","","A3","1","","","","swim-engagement","","","","","","","","","","","","","","2","absorption","",""
"html-button-response","87","2079465","0.0-6.0-2.0-5.0-0.12","f526c789a57c8b465d5dfd89a5669627d805487e62e8f7c2bccfdb615d785547","arctic","arctic","3862","","A4","2","","","","swim-engagement","","","","","","","","","","","","","","3","absorption","",""
"html-button-response","88","2082231","0.0-6.0-2.0-5.0-0.13","f526c789a57c8b465d5dfd89a5669627d805487e62e8f7c2bccfdb615d785547","arctic","arctic","2513","","MS3","4","","","","swim-engagement","","","","","","","","","","","","","","5","mental-sim","",""
"html-button-response","89","2084041","0.0-6.0-2.0-5.0-0.14","f526c789a57c8b465d5dfd89a5669627d805487e62e8f7c2bccfdb615d785547","arctic","arctic","1554","","EE2","2","","","","swim-engagement","","","","","","","","","","","","","","3","emo-engage","",""
"html-button-response","90","2085883","0.0-6.0-2.0-5.0-0.15","f526c789a57c8b465d5dfd89a5669627d805487e62e8f7c2bccfdb615d785547","arctic","arctic","1589","","E1","0","","","","swim-engagement","","","","","","","","","","","","","","1","enjoyment","",""
"html-button-response","91","2088073","0.0-6.0-2.0-5.0-0.16","f526c789a57c8b465d5dfd89a5669627d805487e62e8f7c2bccfdb615d785547","arctic","arctic","1939","","E7","1","","","","swim-engagement","","","","","","","","","","","","","","2","enjoyment","",""
"html-button-response","92","2090295","0.0-6.0-2.0-5.0-0.17","f526c789a57c8b465d5dfd89a5669627d805487e62e8f7c2bccfdb615d785547","arctic","arctic","1970","","EE4","0","","","","swim-engagement","","","","","","","","","","","","","","1","emo-engage","",""
"html-button-response","93","2091689","0.0-8.0","f526c789a57c8b465d5dfd89a5669627d805487e62e8f7c2bccfdb615d785547","arctic","arctic","1142","","<p>Thank you for your responses.</p><p>You will now answer some demographic, hearing, and general health questions.</p>","0","","","","","","","","","","","","","","","","","","","","",""
"survey-multi-choice","94","2093960","0.0-9.0-0.0","f526c789a57c8b465d5dfd89a5669627d805487e62e8f7c2bccfdb615d785547","arctic","arctic","2269","","","","","","","survey","","","","","","","","","","","","","{""Q0"":""Chrome""}","","","browser",""
"survey-text","95","2096660","0.0-9.0-1.0","f526c789a57c8b465d5dfd89a5669627d805487e62e8f7c2bccfdb615d785547","arctic","arctic","2446.899999856949","","","","","","","survey","","","","","","","","","","","","","{""AGE"":""33""}","","","age","33"
"survey-multi-choice","96","2099865","0.0-9.0-2.0","f526c789a57c8b465d5dfd89a5669627d805487e62e8f7c2bccfdb615d785547","arctic","arctic","2952","","","","","","","survey","","","","","","","","","","","","","{""Q0"":""Male""}","","","gender","Male"
"survey-multi-choice","97","2102221","0.0-9.0-4.0","f526c789a57c8b465d5dfd89a5669627d805487e62e8f7c2bccfdb615d785547","arctic","arctic","2103","","","","","","","survey","","","","","","","","","","","","","{""Q0"":""Right""}","","","handedness","Right"
"survey-multi-choice","98","2106794","0.0-9.0-5.0","f526c789a57c8b465d5dfd89a5669627d805487e62e8f7c2bccfdb615d785547","arctic","arctic","4319","","","","","","","survey","","","","","","","","","","","","","{""Q0"":""Some university undergraduate schooling""}","","","education","Some university undergraduate schooling"
"survey-text","99","2110624","0.0-10.0-0.0","f526c789a57c8b465d5dfd89a5669627d805487e62e8f7c2bccfdb615d785547","arctic","arctic","3577.199999809265","","","","","","","survey","","","","","","","","","","","","","{""L1"":""English""}","","","first-language","English"
"survey-text","100","2115473","0.0-10.0-1.0","f526c789a57c8b465d5dfd89a5669627d805487e62e8f7c2bccfdb615d785547","arctic","arctic","4593.699999809265","","","","","","","survey","","","","","","","","","","","","","{""L2name"":"""",""L2fluency"":"""",""L3name"":"""",""L3fluency"":"""",""L4name"":"""",""L4fluency"":""""}","","","additional-languages","{""L2name"":"""",""L2fluency"":"""",""L3name"":"""",""L3fluency"":"""",""L4name"":"""",""L4fluency"":""""}"
"survey-multi-choice","101","2118656","0.0-10.0-2.0","f526c789a57c8b465d5dfd89a5669627d805487e62e8f7c2bccfdb615d785547","arctic","arctic","2930","","","","","","","survey","","","","","","","","","","","","","{""Q0"":""No""}","","","hearing-aid","No"
"survey-multi-choice","102","2123723","0.0-10.0-3.0","f526c789a57c8b465d5dfd89a5669627d805487e62e8f7c2bccfdb615d785547","arctic","arctic","4810","","","","","","","survey","","","","","","","","","","","","","{""Q0"":""Never""}","","","ringing-ears","Never"
"survey-multi-choice","103","2127408","0.0-10.0-5.0","f526c789a57c8b465d5dfd89a5669627d805487e62e8f7c2bccfdb615d785547","arctic","arctic","3431","","","","","","","survey","","","","","","","","","","","","","{""Q0"":""No""}","","","neuro-disease","No"
"survey-multi-choice","104","2131015","0.0-10.0-7.0","f526c789a57c8b465d5dfd89a5669627d805487e62e8f7c2bccfdb615d785547","arctic","arctic","3354","","","","","","","survey","","","","","","","","","","","","","{""Q0"":""Yes""}","","","take-meds","Yes"
"survey-text","105","2143447","0.0-10.0-8.0-0.0","f526c789a57c8b465d5dfd89a5669627d805487e62e8f7c2bccfdb615d785547","arctic","arctic","12178.799999952316","","","","","","","survey","","","","","","","","","","","","","{""MED"":""Depacot""}","","","take-meds-clarify","Depacot"
"survey-text","106","2146253","0.0-10.0-9.0","f526c789a57c8b465d5dfd89a5669627d805487e62e8f7c2bccfdb615d785547","arctic","arctic","2535.0999999046326","","","","","","","survey","","","","","","","","","","","","","{""HC"":""""}","","","health-concerns",""
"html-button-response","107","2149391","0.0-11.0-0.0","f526c789a57c8b465d5dfd89a5669627d805487e62e8f7c2bccfdb615d785547","arctic","arctic","2885","","<p>How would you describe your musical skills/experiences?</p>","1","","","","survey","","","","","","","","","","","","","","","","music-skill","2"
"survey-multi-choice","108","2151578","0.0-11.0-1.0","f526c789a57c8b465d5dfd89a5669627d805487e62e8f7c2bccfdb615d785547","arctic","arctic","1933","","","","","","","survey","","","","","","","","","","","","","{""Q0"":""No""}","","","music-instrument","No"
"html-button-response","109","2153609","0.0-12.0-0.0","f526c789a57c8b465d5dfd89a5669627d805487e62e8f7c2bccfdb615d785547","arctic","arctic","1779","","<p>How would you describe your general hearing abilities?</p>","4","","","","survey","","","","","","","","","","","","","","","","ssq-01","5"
"html-button-response","110","2163738","0.0-12.0-1.0","f526c789a57c8b465d5dfd89a5669627d805487e62e8f7c2bccfdb615d785547","arctic","arctic","9878","","<p>When you talk with someone at a place that strongly reverberates/echoes (e.g., in a church or train station),</br>can you understand what the person says?</p>","8","","","","survey","","","","","","","","","","","","","","","","ssq-02","8"
"html-button-response","111","2166915","0.0-12.0-2.0","f526c789a57c8b465d5dfd89a5669627d805487e62e8f7c2bccfdb615d785547","arctic","arctic","2925","","<p>When you are with a group (~5 people) in a lively restaurant, can you follow the group's conversation?</p>","6","","","","survey","","","","","","","","","","","","","","","","ssq-03","6"
"html-button-response","112","2172184","0.0-12.0-3.0","f526c789a57c8b465d5dfd89a5669627d805487e62e8f7c2bccfdb615d785547","arctic","arctic","5018","","<p>Based on the sound of a bus or truck, can you tell whether it is moving towards or away from you?</p>","9","","","","survey","","","","","","","","","","","","","","","","ssq-04","9"
"html-button-response","113","2175836","0.0-12.0-4.0","f526c789a57c8b465d5dfd89a5669627d805487e62e8f7c2bccfdb615d785547","arctic","arctic","3400","","<p>When you are in an unknown environment, can you tell from which direction a brief sound originates?</p>","4","","","","survey","","","","","","","","","","","","","","","","ssq-05","4"
"html-button-response","114","2179000","0.0-12.0-5.0","f526c789a57c8b465d5dfd89a5669627d805487e62e8f7c2bccfdb615d785547","arctic","arctic","2913","","<p>Are you able to ignore distracting sounds when you concentrate on a specific aspect of your acoustic surrounding?</p>","2","","","","survey","","","","","","","","","","","","","","","","ssq-06","2"
"fullscreen","115","2180251","0.0-13.0","f526c789a57c8b465d5dfd89a5669627d805487e62e8f7c2bccfdb615d785547","arctic","arctic","","","","","","","","","true","","","","","","","","","","","","","","","",""
