"trial_type","trial_index","time_elapsed","internal_node_id","ParticipantID","firstStory","scramStory","rt","url","stimulus","button_pressed","key_press","correctRESP","correct","designation","success","letterStim","letterType","ONSET","TIMEOUT","CONDITION","Participant","ONSET_ACTUAL","RT","RESP","ACC","STORY","responses","response","type","surveyQuestion","QRESP"
"pavlovia","0","4","0.0-0.0","01d92d17ed0ea9d99d2bac6381808c7ee69318be66dd3daf29c6bf4568786f8d","swim","swim","","","","","","","","","","","","","","","","","","","","","","","","",""
"external-html","1","3962","0.0-1.0","01d92d17ed0ea9d99d2bac6381808c7ee69318be66dd3daf29c6bf4568786f8d","swim","swim","3824","consent/consent_updated.html","","","","","","","","","","","","","","","","","","","","","","",""
"html-button-response","2","6672","0.0-2.0-0.0","01d92d17ed0ea9d99d2bac6381808c7ee69318be66dd3daf29c6bf4568786f8d","swim","swim","2710","","<p>Before we begin the main task, you will complete a short volume calibration and headphone check.</p><p>Please make sure you are in a quiet listening environment, that you are wearing headphones, and that your computer's volume is turned on.<p></p>","0","","","","","","","","","","","","","","","","","","","","",""
"html-button-response","3","8888","0.0-2.0-1.0","01d92d17ed0ea9d99d2bac6381808c7ee69318be66dd3daf29c6bf4568786f8d","swim","swim","1957","","<p>The volume calibration will be first.</p><p>You will hear a thirty-second noise. Please adjust your computer's volume so that this noise is being presented at a comfortable level.<p></p>","0","","","","","","","","","","","","","","","","","","","","",""
"audio-button-response","4","17719","0.0-2.0-2.0","01d92d17ed0ea9d99d2bac6381808c7ee69318be66dd3daf29c6bf4568786f8d","swim","swim","8580","","audio/volumetest.mp3","0","","","","","","","","","","","","","","","","","","","","",""
"html-keyboard-response","5","22369","0.0-3.0-0.0","01d92d17ed0ea9d99d2bac6381808c7ee69318be66dd3daf29c6bf4568786f8d","swim","swim","4649","","<p>You will now complete a short headphone check.</p><p>On each trial, you will hear three tones. One of these tones will be quieter than the others. Your task is to identify whether the quiet tone occurred first, second, or third.</p><p>There are six trials in total.<p></p><p></p>(Press SPACEBAR to begin)","","32","","","","","","","","","","","","","","","","","","","",""
"html-keyboard-response","6","23131","0.0-3.0-1.0-0.0","01d92d17ed0ea9d99d2bac6381808c7ee69318be66dd3daf29c6bf4568786f8d","swim","swim","null","","<div style=""font-size:60px;"">+</div>","","null","","","","","","","","","","","","","","","","","","","",""
"audio-button-response","7","27540","0.0-3.0-1.0-1.0","01d92d17ed0ea9d99d2bac6381808c7ee69318be66dd3daf29c6bf4568786f8d","swim","swim","4407","","audio/t3_2.mp3","2","","2","1","headphone-test","","","","","","","","","","","","","","","","",""
"html-keyboard-response","8","28042","0.0-3.0-1.0-2.0","01d92d17ed0ea9d99d2bac6381808c7ee69318be66dd3daf29c6bf4568786f8d","swim","swim","null","","<p>Correct</p>","","null","","","","","","","","","","","","","","","","","","","",""
"html-keyboard-response","9","28550","0.0-3.0-1.0-0.1","01d92d17ed0ea9d99d2bac6381808c7ee69318be66dd3daf29c6bf4568786f8d","swim","swim","null","","<div style=""font-size:60px;"">+</div>","","null","","","","","","","","","","","","","","","","","","","",""
"audio-button-response","10","32726","0.0-3.0-1.0-1.1","01d92d17ed0ea9d99d2bac6381808c7ee69318be66dd3daf29c6bf4568786f8d","swim","swim","4176","","audio/t2_2.mp3","1","","1","1","headphone-test","","","","","","","","","","","","","","","","",""
"html-keyboard-response","11","33228","0.0-3.0-1.0-2.1","01d92d17ed0ea9d99d2bac6381808c7ee69318be66dd3daf29c6bf4568786f8d","swim","swim","null","","<p>Correct</p>","","null","","","","","","","","","","","","","","","","","","","",""
"html-keyboard-response","12","33736","0.0-3.0-1.0-0.2","01d92d17ed0ea9d99d2bac6381808c7ee69318be66dd3daf29c6bf4568786f8d","swim","swim","null","","<div style=""font-size:60px;"">+</div>","","null","","","","","","","","","","","","","","","","","","","",""
"audio-button-response","13","37867","0.0-3.0-1.0-1.2","01d92d17ed0ea9d99d2bac6381808c7ee69318be66dd3daf29c6bf4568786f8d","swim","swim","4130","","audio/t3_1.mp3","2","","2","1","headphone-test","","","","","","","","","","","","","","","","",""
"html-keyboard-response","14","38369","0.0-3.0-1.0-2.2","01d92d17ed0ea9d99d2bac6381808c7ee69318be66dd3daf29c6bf4568786f8d","swim","swim","null","","<p>Correct</p>","","null","","","","","","","","","","","","","","","","","","","",""
"html-keyboard-response","15","38870","0.0-3.0-1.0-0.3","01d92d17ed0ea9d99d2bac6381808c7ee69318be66dd3daf29c6bf4568786f8d","swim","swim","null","","<div style=""font-size:60px;"">+</div>","","null","","","","","","","","","","","","","","","","","","","",""
"audio-button-response","16","43133","0.0-3.0-1.0-1.3","01d92d17ed0ea9d99d2bac6381808c7ee69318be66dd3daf29c6bf4568786f8d","swim","swim","4261","","audio/t1_1.mp3","0","","0","1","headphone-test","","","","","","","","","","","","","","","","",""
"html-keyboard-response","17","43635","0.0-3.0-1.0-2.3","01d92d17ed0ea9d99d2bac6381808c7ee69318be66dd3daf29c6bf4568786f8d","swim","swim","null","","<p>Correct</p>","","null","","","","","","","","","","","","","","","","","","","",""
"html-keyboard-response","18","44139","0.0-3.0-1.0-0.4","01d92d17ed0ea9d99d2bac6381808c7ee69318be66dd3daf29c6bf4568786f8d","swim","swim","null","","<div style=""font-size:60px;"">+</div>","","null","","","","","","","","","","","","","","","","","","","",""
"audio-button-response","19","48359","0.0-3.0-1.0-1.4","01d92d17ed0ea9d99d2bac6381808c7ee69318be66dd3daf29c6bf4568786f8d","swim","swim","4220","","audio/t2_1.mp3","1","","1","1","headphone-test","","","","","","","","","","","","","","","","",""
"html-keyboard-response","20","48869","0.0-3.0-1.0-2.4","01d92d17ed0ea9d99d2bac6381808c7ee69318be66dd3daf29c6bf4568786f8d","swim","swim","null","","<p>Correct</p>","","null","","","","","","","","","","","","","","","","","","","",""
"html-keyboard-response","21","49374","0.0-3.0-1.0-0.5","01d92d17ed0ea9d99d2bac6381808c7ee69318be66dd3daf29c6bf4568786f8d","swim","swim","null","","<div style=""font-size:60px;"">+</div>","","null","","","","","","","","","","","","","","","","","","","",""
"audio-button-response","22","53786","0.0-3.0-1.0-1.5","01d92d17ed0ea9d99d2bac6381808c7ee69318be66dd3daf29c6bf4568786f8d","swim","swim","4409","","audio/t1_2.mp3","0","","0","1","headphone-test","","","","","","","","","","","","","","","","",""
"html-keyboard-response","23","54288","0.0-3.0-1.0-2.5","01d92d17ed0ea9d99d2bac6381808c7ee69318be66dd3daf29c6bf4568786f8d","swim","swim","null","","<p>Correct</p>","","null","","","","","","","","","","","","","","","","","","","",""
"fullscreen","24","56458","0.0-4.0","01d92d17ed0ea9d99d2bac6381808c7ee69318be66dd3daf29c6bf4568786f8d","swim","swim","","","","","","","","","true","","","","","","","","","","","","","","","",""
"html-button-response","25","65817","0.0-5.0-0.0","01d92d17ed0ea9d99d2bac6381808c7ee69318be66dd3daf29c6bf4568786f8d","swim","swim","9357","","<p>There are two blocks to this experiment.</p><p>In each block, you will hear a ~13.5 minute story. One of the stories will be scrambled. Please listen carefully to both stories and understand them as best you can.</p><p>After each story, you will be asked some questions to assess your comprehension.</p>","0","","","","","","","","","","","","","","","","","","","","",""
"html-button-response","26","85116","0.0-5.0-1.0","01d92d17ed0ea9d99d2bac6381808c7ee69318be66dd3daf29c6bf4568786f8d","swim","swim","19298","","<p>During each story, there will be an additional task.</p><p>A letter will occasionally appear on the screen.</br>Your job is to - as quickly as you can - decide whether the letter is lowercase or uppercase and press one of two keys on the keyboard:</p><p>If the letter is <b>lowercase</b>, press key &lt;<b>x</b>&gt;.</p><p>If the letter is <b>uppercase</b>, press key &lt;<b>m</b>&gt;.</p>","0","","","","","","","","","","","","","","","","","","","","",""
"html-keyboard-response","27","95793","0.0-5.0-2.0","01d92d17ed0ea9d99d2bac6381808c7ee69318be66dd3daf29c6bf4568786f8d","swim","swim","10676","","<p>Because we want your responses to be as quick as possible, please keep your index fingers over the keys while listening.</p><p>Each block lasts about 20 minutes.</p><p><b>Press &lt;x&gt; or &lt;m&gt; to start the first block!</b></p>","","88","","","","","","","","","","","","","","","","","","","",""
"html-keyboard-response","28","96301","0.0-7.0-0.0-0.0","01d92d17ed0ea9d99d2bac6381808c7ee69318be66dd3daf29c6bf4568786f8d","swim","swim","null","","<div style=""font-size:60px;"" tabindex=""0"">+</div>","","null","","","","","","","","","","","","","","","","","","","",""
"dual-task","null","null","null","","swim","swim","1329.1999998092651","","h","null","88","88","1","swim-dual-task","","h","lowercase","16000","0","5","01d92d17ed0ea9d99d2bac6381808c7ee69318be66dd3daf29c6bf4568786f8d","16008.599999904633","1329.1999998092651","88","1","swim","","","","",""
"dual-task","null","null","null","","swim","swim","901.2999999523163","","F","null","77","77","1","swim-dual-task","","F","uppercase","26000","0","5","01d92d17ed0ea9d99d2bac6381808c7ee69318be66dd3daf29c6bf4568786f8d","26007.699999809265","901.2999999523163","77","1","swim","","","","",""
"dual-task","null","null","null","","swim","swim","874.8999998569489","","f","null","88","88","1","swim-dual-task","","f","lowercase","38000","0","5","01d92d17ed0ea9d99d2bac6381808c7ee69318be66dd3daf29c6bf4568786f8d","38011.199999809265","874.8999998569489","88","1","swim","","","","",""
"dual-task","null","null","null","","swim","swim","826.6000001430511","","H","null","77","77","1","swim-dual-task","","H","uppercase","48000","0","5","01d92d17ed0ea9d99d2bac6381808c7ee69318be66dd3daf29c6bf4568786f8d","48009.59999990463","826.6000001430511","77","1","swim","","","","",""
"dual-task","null","null","null","","swim","swim","758.5","","d","null","88","88","1","swim-dual-task","","d","lowercase","54000","0","5","01d92d17ed0ea9d99d2bac6381808c7ee69318be66dd3daf29c6bf4568786f8d","54002.199999809265","758.5","88","1","swim","","","","",""
"dual-task","null","null","null","","swim","swim","1050","","t","null","88","88","1","swim-dual-task","","t","lowercase","64000","0","5","01d92d17ed0ea9d99d2bac6381808c7ee69318be66dd3daf29c6bf4568786f8d","64012.39999985695","1050","88","1","swim","","","","",""
"dual-task","null","null","null","","swim","swim","723.9000000953674","","b","null","88","88","1","swim-dual-task","","b","lowercase","74000","0","5","01d92d17ed0ea9d99d2bac6381808c7ee69318be66dd3daf29c6bf4568786f8d","74010.29999995232","723.9000000953674","88","1","swim","","","","",""
"dual-task","null","null","null","","swim","swim","919.7999999523163","","a","null","88","88","1","swim-dual-task","","a","lowercase","80000","0","5","01d92d17ed0ea9d99d2bac6381808c7ee69318be66dd3daf29c6bf4568786f8d","80014.79999995232","919.7999999523163","88","1","swim","","","","",""
"dual-task","null","null","null","","swim","swim","669.7999999523163","","E","null","77","77","1","swim-dual-task","","E","uppercase","92000","0","5","01d92d17ed0ea9d99d2bac6381808c7ee69318be66dd3daf29c6bf4568786f8d","92014.59999990463","669.7999999523163","77","1","swim","","","","",""
"dual-task","null","null","null","","swim","swim","653.2999999523163","","a","null","88","88","1","swim-dual-task","","a","lowercase","104000","0","5","01d92d17ed0ea9d99d2bac6381808c7ee69318be66dd3daf29c6bf4568786f8d","104006.09999990463","653.2999999523163","88","1","swim","","","","",""
"dual-task","null","null","null","","swim","swim","572","","q","null","88","88","1","swim-dual-task","","q","lowercase","112000","0","5","01d92d17ed0ea9d99d2bac6381808c7ee69318be66dd3daf29c6bf4568786f8d","112010.89999985695","572","88","1","swim","","","","",""
"dual-task","null","null","null","","swim","swim","721.9000000953674","","t","null","88","88","1","swim-dual-task","","t","lowercase","126000","0","5","01d92d17ed0ea9d99d2bac6381808c7ee69318be66dd3daf29c6bf4568786f8d","126012.19999980927","721.9000000953674","88","1","swim","","","","",""
"dual-task","null","null","null","","swim","swim","919.0999999046326","","f","null","88","88","1","swim-dual-task","","f","lowercase","138000","0","5","01d92d17ed0ea9d99d2bac6381808c7ee69318be66dd3daf29c6bf4568786f8d","138012.69999980927","919.0999999046326","88","1","swim","","","","",""
"dual-task","null","null","null","","swim","swim","503.2999999523163","","N","null","77","77","1","swim-dual-task","","N","uppercase","144000","0","5","01d92d17ed0ea9d99d2bac6381808c7ee69318be66dd3daf29c6bf4568786f8d","144004.29999995232","503.2999999523163","77","1","swim","","","","",""
"dual-task","null","null","null","","swim","swim","697.5","","q","null","88","88","1","swim-dual-task","","q","lowercase","156000","0","5","01d92d17ed0ea9d99d2bac6381808c7ee69318be66dd3daf29c6bf4568786f8d","156009.29999995232","697.5","88","1","swim","","","","",""
"dual-task","null","null","null","","swim","swim","628","","b","null","88","88","1","swim-dual-task","","b","lowercase","168000","0","5","01d92d17ed0ea9d99d2bac6381808c7ee69318be66dd3daf29c6bf4568786f8d","168004.19999980927","628","88","1","swim","","","","",""
"dual-task","null","null","null","","swim","swim","752.3000001907349","","F","null","77","77","1","swim-dual-task","","F","uppercase","178000","0","5","01d92d17ed0ea9d99d2bac6381808c7ee69318be66dd3daf29c6bf4568786f8d","178004.69999980927","752.3000001907349","77","1","swim","","","","",""
"dual-task","null","null","null","","swim","swim","649.7999999523163","","G","null","77","77","1","swim-dual-task","","G","uppercase","186000","0","5","01d92d17ed0ea9d99d2bac6381808c7ee69318be66dd3daf29c6bf4568786f8d","186006.19999980927","649.7999999523163","77","1","swim","","","","",""
"dual-task","null","null","null","","swim","swim","919.7000000476837","","t","null","88","88","1","swim-dual-task","","t","lowercase","194000","0","5","01d92d17ed0ea9d99d2bac6381808c7ee69318be66dd3daf29c6bf4568786f8d","194012.29999995232","919.7000000476837","88","1","swim","","","","",""
"dual-task","null","null","null","","swim","swim","927.4000000953674","","D","null","77","77","1","swim-dual-task","","D","uppercase","204000","0","5","01d92d17ed0ea9d99d2bac6381808c7ee69318be66dd3daf29c6bf4568786f8d","204004.19999980927","927.4000000953674","77","1","swim","","","","",""
"dual-task","null","null","null","","swim","swim","625","","A","null","77","77","1","swim-dual-task","","A","uppercase","212000","0","5","01d92d17ed0ea9d99d2bac6381808c7ee69318be66dd3daf29c6bf4568786f8d","212004.5","625","77","1","swim","","","","",""
"dual-task","null","null","null","","swim","swim","577.2999999523163","","n","null","88","88","1","swim-dual-task","","n","lowercase","224000","0","5","01d92d17ed0ea9d99d2bac6381808c7ee69318be66dd3daf29c6bf4568786f8d","224003.39999985695","577.2999999523163","88","1","swim","","","","",""
"dual-task","null","null","null","","swim","swim","504.7999999523163","","T","null","77","77","1","swim-dual-task","","T","uppercase","236000","0","5","01d92d17ed0ea9d99d2bac6381808c7ee69318be66dd3daf29c6bf4568786f8d","236001.29999995232","504.7999999523163","77","1","swim","","","","",""
"dual-task","null","null","null","","swim","swim","752.2999999523163","","H","null","77","77","1","swim-dual-task","","H","uppercase","248000","0","5","01d92d17ed0ea9d99d2bac6381808c7ee69318be66dd3daf29c6bf4568786f8d","248002.09999990463","752.2999999523163","77","1","swim","","","","",""
"dual-task","null","null","null","","swim","swim","551.0999999046326","","Q","null","77","77","1","swim-dual-task","","Q","uppercase","254000","0","5","01d92d17ed0ea9d99d2bac6381808c7ee69318be66dd3daf29c6bf4568786f8d","254002.19999980927","551.0999999046326","77","1","swim","","","","",""
"dual-task","null","null","null","","swim","swim","817.2999999523163","","e","null","88","88","1","swim-dual-task","","e","lowercase","266000","0","5","01d92d17ed0ea9d99d2bac6381808c7ee69318be66dd3daf29c6bf4568786f8d","266010.69999980927","817.2999999523163","88","1","swim","","","","",""
"dual-task","null","null","null","","swim","swim","964.2999999523163","","R","null","77","77","1","swim-dual-task","","R","uppercase","276000","0","5","01d92d17ed0ea9d99d2bac6381808c7ee69318be66dd3daf29c6bf4568786f8d","276014.19999980927","964.2999999523163","77","1","swim","","","","",""
"dual-task","null","null","null","","swim","swim","717.5999999046326","","B","null","77","77","1","swim-dual-task","","B","uppercase","290000","0","5","01d92d17ed0ea9d99d2bac6381808c7ee69318be66dd3daf29c6bf4568786f8d","290010.2999999523","717.5999999046326","77","1","swim","","","","",""
"dual-task","null","null","null","","swim","swim","967.6000001430511","","R","null","77","77","1","swim-dual-task","","R","uppercase","298000","0","5","01d92d17ed0ea9d99d2bac6381808c7ee69318be66dd3daf29c6bf4568786f8d","298009.19999980927","967.6000001430511","77","1","swim","","","","",""
"dual-task","null","null","null","","swim","swim","539.2000000476837","","g","null","88","88","1","swim-dual-task","","g","lowercase","308000","0","5","01d92d17ed0ea9d99d2bac6381808c7ee69318be66dd3daf29c6bf4568786f8d","308013.19999980927","539.2000000476837","88","1","swim","","","","",""
"dual-task","null","null","null","","swim","swim","586.2999999523163","","t","null","88","88","1","swim-dual-task","","t","lowercase","320000","0","5","01d92d17ed0ea9d99d2bac6381808c7ee69318be66dd3daf29c6bf4568786f8d","320015.19999980927","586.2999999523163","88","1","swim","","","","",""
"dual-task","null","null","null","","swim","swim","749.4000000953674","","e","null","88","88","1","swim-dual-task","","e","lowercase","332000","0","5","01d92d17ed0ea9d99d2bac6381808c7ee69318be66dd3daf29c6bf4568786f8d","332003.39999985695","749.4000000953674","88","1","swim","","","","",""
"dual-task","null","null","null","","swim","swim","666.7000000476837","","G","null","77","77","1","swim-dual-task","","G","uppercase","342000","0","5","01d92d17ed0ea9d99d2bac6381808c7ee69318be66dd3daf29c6bf4568786f8d","342008.2999999523","666.7000000476837","77","1","swim","","","","",""
"dual-task","null","null","null","","swim","swim","1218","","n","null","88","88","1","swim-dual-task","","n","lowercase","354000","0","5","01d92d17ed0ea9d99d2bac6381808c7ee69318be66dd3daf29c6bf4568786f8d","354008.59999990463","1218","88","1","swim","","","","",""
"dual-task","null","null","null","","swim","swim","559.2999999523163","","e","null","88","88","1","swim-dual-task","","e","lowercase","362000","0","5","01d92d17ed0ea9d99d2bac6381808c7ee69318be66dd3daf29c6bf4568786f8d","362014.69999980927","559.2999999523163","88","1","swim","","","","",""
"dual-task","null","null","null","","swim","swim","675","","a","null","88","88","1","swim-dual-task","","a","lowercase","370000","0","5","01d92d17ed0ea9d99d2bac6381808c7ee69318be66dd3daf29c6bf4568786f8d","370002.7999999523","675","88","1","swim","","","","",""
"dual-task","null","null","null","","swim","swim","492.69999980926514","","h","null","88","88","1","swim-dual-task","","h","lowercase","380000","0","5","01d92d17ed0ea9d99d2bac6381808c7ee69318be66dd3daf29c6bf4568786f8d","380008.2999999523","492.69999980926514","88","1","swim","","","","",""
"dual-task","null","null","null","","swim","swim","521.2000000476837","","R","null","77","77","1","swim-dual-task","","R","uppercase","388000","0","5","01d92d17ed0ea9d99d2bac6381808c7ee69318be66dd3daf29c6bf4568786f8d","388010.39999985695","521.2000000476837","77","1","swim","","","","",""
"dual-task","null","null","null","","swim","swim","583.6000001430511","","B","null","77","77","1","swim-dual-task","","B","uppercase","402000","0","5","01d92d17ed0ea9d99d2bac6381808c7ee69318be66dd3daf29c6bf4568786f8d","402015.2999999523","583.6000001430511","77","1","swim","","","","",""
"dual-task","null","null","null","","swim","swim","634.6000001430511","","q","null","88","88","1","swim-dual-task","","q","lowercase","412000","0","5","01d92d17ed0ea9d99d2bac6381808c7ee69318be66dd3daf29c6bf4568786f8d","412013.39999985695","634.6000001430511","88","1","swim","","","","",""
"dual-task","null","null","null","","swim","swim","561.7999999523163","","A","null","77","77","1","swim-dual-task","","A","uppercase","422000","0","5","01d92d17ed0ea9d99d2bac6381808c7ee69318be66dd3daf29c6bf4568786f8d","422010.2999999523","561.7999999523163","77","1","swim","","","","",""
"dual-task","null","null","null","","swim","swim","568.7999999523163","","a","null","88","88","1","swim-dual-task","","a","lowercase","432000","0","5","01d92d17ed0ea9d99d2bac6381808c7ee69318be66dd3daf29c6bf4568786f8d","432003.19999980927","568.7999999523163","88","1","swim","","","","",""
"dual-task","null","null","null","","swim","swim","532.1999998092651","","e","null","88","88","1","swim-dual-task","","e","lowercase","444000","0","5","01d92d17ed0ea9d99d2bac6381808c7ee69318be66dd3daf29c6bf4568786f8d","444015.19999980927","532.1999998092651","88","1","swim","","","","",""
"dual-task","null","null","null","","swim","swim","909.2999999523163","","D","null","77","77","1","swim-dual-task","","D","uppercase","450000","0","5","01d92d17ed0ea9d99d2bac6381808c7ee69318be66dd3daf29c6bf4568786f8d","450012.2999999523","909.2999999523163","77","1","swim","","","","",""
"dual-task","null","null","null","","swim","swim","664","","R","null","77","77","1","swim-dual-task","","R","uppercase","464000","0","5","01d92d17ed0ea9d99d2bac6381808c7ee69318be66dd3daf29c6bf4568786f8d","464006.59999990463","664","77","1","swim","","","","",""
"dual-task","null","null","null","","swim","swim","1558.2000000476837","","A","null","77","77","1","swim-dual-task","","A","uppercase","470000","0","5","01d92d17ed0ea9d99d2bac6381808c7ee69318be66dd3daf29c6bf4568786f8d","470011.2999999523","1558.2000000476837","77","1","swim","","","","",""
"dual-task","null","null","null","","swim","swim","515.5999999046326","","D","null","77","77","1","swim-dual-task","","D","uppercase","482000","0","5","01d92d17ed0ea9d99d2bac6381808c7ee69318be66dd3daf29c6bf4568786f8d","482004.59999990463","515.5999999046326","77","1","swim","","","","",""
"dual-task","null","null","null","","swim","swim","530.2000000476837","","E","null","77","77","1","swim-dual-task","","E","uppercase","490000","0","5","01d92d17ed0ea9d99d2bac6381808c7ee69318be66dd3daf29c6bf4568786f8d","490013.59999990463","530.2000000476837","77","1","swim","","","","",""
"dual-task","null","null","null","","swim","swim","679.1000001430511","","F","null","77","77","1","swim-dual-task","","F","uppercase","500000","0","5","01d92d17ed0ea9d99d2bac6381808c7ee69318be66dd3daf29c6bf4568786f8d","500015.69999980927","679.1000001430511","77","1","swim","","","","",""
"dual-task","null","null","null","","swim","swim","714.5","","f","null","88","88","1","swim-dual-task","","f","lowercase","506000","0","5","01d92d17ed0ea9d99d2bac6381808c7ee69318be66dd3daf29c6bf4568786f8d","506004","714.5","88","1","swim","","","","",""
"dual-task","null","null","null","","swim","swim","463.2000000476837","","T","null","77","77","1","swim-dual-task","","T","uppercase","516000","0","5","01d92d17ed0ea9d99d2bac6381808c7ee69318be66dd3daf29c6bf4568786f8d","516005.7999999523","463.2000000476837","77","1","swim","","","","",""
"dual-task","null","null","null","","swim","swim","803.6999998092651","","g","null","88","88","1","swim-dual-task","","g","lowercase","530000","0","5","01d92d17ed0ea9d99d2bac6381808c7ee69318be66dd3daf29c6bf4568786f8d","530014.6999998093","803.6999998092651","88","1","swim","","","","",""
"dual-task","null","null","null","","swim","swim","916.0999999046326","","Q","null","77","77","1","swim-dual-task","","Q","uppercase","542000","0","5","01d92d17ed0ea9d99d2bac6381808c7ee69318be66dd3daf29c6bf4568786f8d","542003","916.0999999046326","77","1","swim","","","","",""
"dual-task","null","null","null","","swim","swim","932.7999999523163","","b","null","88","88","1","swim-dual-task","","b","lowercase","552000","0","5","01d92d17ed0ea9d99d2bac6381808c7ee69318be66dd3daf29c6bf4568786f8d","552010.2999999523","932.7999999523163","88","1","swim","","","","",""
"dual-task","null","null","null","","swim","swim","701.9000000953674","","B","null","77","77","1","swim-dual-task","","B","uppercase","564000","0","5","01d92d17ed0ea9d99d2bac6381808c7ee69318be66dd3daf29c6bf4568786f8d","564008.5999999046","701.9000000953674","77","1","swim","","","","",""
"dual-task","null","null","null","","swim","swim","830.2000000476837","","d","null","88","88","1","swim-dual-task","","d","lowercase","572000","0","5","01d92d17ed0ea9d99d2bac6381808c7ee69318be66dd3daf29c6bf4568786f8d","572010.6999998093","830.2000000476837","88","1","swim","","","","",""
"dual-task","null","null","null","","swim","swim","646.8999998569489","","r","null","88","88","1","swim-dual-task","","r","lowercase","586000","0","5","01d92d17ed0ea9d99d2bac6381808c7ee69318be66dd3daf29c6bf4568786f8d","586015.2999999523","646.8999998569489","88","1","swim","","","","",""
"dual-task","null","null","null","","swim","swim","685.0999999046326","","G","null","77","77","1","swim-dual-task","","G","uppercase","598000","0","5","01d92d17ed0ea9d99d2bac6381808c7ee69318be66dd3daf29c6bf4568786f8d","598006.399999857","685.0999999046326","77","1","swim","","","","",""
"dual-task","null","null","null","","swim","swim","634.1000001430511","","g","null","88","88","1","swim-dual-task","","g","lowercase","610000","0","5","01d92d17ed0ea9d99d2bac6381808c7ee69318be66dd3daf29c6bf4568786f8d","610008.2999999523","634.1000001430511","88","1","swim","","","","",""
"dual-task","null","null","null","","swim","swim","860.5999999046326","","n","null","88","88","1","swim-dual-task","","n","lowercase","616000","0","5","01d92d17ed0ea9d99d2bac6381808c7ee69318be66dd3daf29c6bf4568786f8d","616003.2999999523","860.5999999046326","88","1","swim","","","","",""
"dual-task","null","null","null","","swim","swim","808.3999998569489","","r","null","88","88","1","swim-dual-task","","r","lowercase","630000","0","5","01d92d17ed0ea9d99d2bac6381808c7ee69318be66dd3daf29c6bf4568786f8d","630006.399999857","808.3999998569489","88","1","swim","","","","",""
"dual-task","null","null","null","","swim","swim","750.5","","H","null","77","77","1","swim-dual-task","","H","uppercase","642000","0","5","01d92d17ed0ea9d99d2bac6381808c7ee69318be66dd3daf29c6bf4568786f8d","642014.2999999523","750.5","77","1","swim","","","","",""
"dual-task","null","null","null","","swim","swim","607.5","","A","null","77","77","1","swim-dual-task","","A","uppercase","650000","0","5","01d92d17ed0ea9d99d2bac6381808c7ee69318be66dd3daf29c6bf4568786f8d","650006.2999999523","607.5","77","1","swim","","","","",""
"dual-task","null","null","null","","swim","swim","710.2000000476837","","T","null","77","77","1","swim-dual-task","","T","uppercase","658000","0","5","01d92d17ed0ea9d99d2bac6381808c7ee69318be66dd3daf29c6bf4568786f8d","658003.5","710.2000000476837","77","1","swim","","","","",""
"dual-task","null","null","null","","swim","swim","806.1000001430511","","F","null","77","77","1","swim-dual-task","","F","uppercase","666000","0","5","01d92d17ed0ea9d99d2bac6381808c7ee69318be66dd3daf29c6bf4568786f8d","666006.1999998093","806.1000001430511","77","1","swim","","","","",""
"dual-task","null","null","null","","swim","swim","1159.7999999523163","","h","null","88","88","1","swim-dual-task","","h","lowercase","674000","0","5","01d92d17ed0ea9d99d2bac6381808c7ee69318be66dd3daf29c6bf4568786f8d","674004.399999857","1159.7999999523163","88","1","swim","","","","",""
"dual-task","null","null","null","","swim","swim","654.4000000953674","","N","null","77","77","1","swim-dual-task","","N","uppercase","684000","0","5","01d92d17ed0ea9d99d2bac6381808c7ee69318be66dd3daf29c6bf4568786f8d","684008.1999998093","654.4000000953674","77","1","swim","","","","",""
"dual-task","null","null","null","","swim","swim","607.4000000953674","","r","null","88","88","1","swim-dual-task","","r","lowercase","696000","0","5","01d92d17ed0ea9d99d2bac6381808c7ee69318be66dd3daf29c6bf4568786f8d","696006.1999998093","607.4000000953674","88","1","swim","","","","",""
"dual-task","null","null","null","","swim","swim","1735.2000000476837","","r","null","88","88","1","swim-dual-task","","r","lowercase","702000","0","5","01d92d17ed0ea9d99d2bac6381808c7ee69318be66dd3daf29c6bf4568786f8d","702001.2999999523","1735.2000000476837","88","1","swim","","","","",""
"dual-task","null","null","null","","swim","swim","772.2999999523163","","q","null","88","88","1","swim-dual-task","","q","lowercase","716000","0","5","01d92d17ed0ea9d99d2bac6381808c7ee69318be66dd3daf29c6bf4568786f8d","716014.399999857","772.2999999523163","88","1","swim","","","","",""
"dual-task","null","null","null","","swim","swim","595.7000000476837","","Q","null","77","77","1","swim-dual-task","","Q","uppercase","726000","0","5","01d92d17ed0ea9d99d2bac6381808c7ee69318be66dd3daf29c6bf4568786f8d","726014.399999857","595.7000000476837","77","1","swim","","","","",""
"dual-task","null","null","null","","swim","swim","704.2999999523163","","h","null","88","88","1","swim-dual-task","","h","lowercase","732000","0","5","01d92d17ed0ea9d99d2bac6381808c7ee69318be66dd3daf29c6bf4568786f8d","732006.6999998093","704.2999999523163","88","1","swim","","","","",""
"dual-task","null","null","null","","swim","swim","494","","N","null","77","77","1","swim-dual-task","","N","uppercase","740000","0","5","01d92d17ed0ea9d99d2bac6381808c7ee69318be66dd3daf29c6bf4568786f8d","740016","494","77","1","swim","","","","",""
"dual-task","null","null","null","","swim","swim","541.1000001430511","","E","null","77","77","1","swim-dual-task","","E","uppercase","752000","0","5","01d92d17ed0ea9d99d2bac6381808c7ee69318be66dd3daf29c6bf4568786f8d","752016.399999857","541.1000001430511","77","1","swim","","","","",""
"dual-task","null","null","null","","swim","swim","452.39999985694885","","E","null","77","77","1","swim-dual-task","","E","uppercase","764000","0","5","01d92d17ed0ea9d99d2bac6381808c7ee69318be66dd3daf29c6bf4568786f8d","764008.2999999523","452.39999985694885","77","1","swim","","","","",""
"dual-task","null","null","null","","swim","swim","597.7999999523163","","B","null","77","77","1","swim-dual-task","","B","uppercase","776000","0","5","01d92d17ed0ea9d99d2bac6381808c7ee69318be66dd3daf29c6bf4568786f8d","776012.1999998093","597.7999999523163","77","1","swim","","","","",""
"dual-task","null","null","null","","swim","swim","656.5","","n","null","88","88","1","swim-dual-task","","n","lowercase","786000","0","5","01d92d17ed0ea9d99d2bac6381808c7ee69318be66dd3daf29c6bf4568786f8d","786003.399999857","656.5","88","1","swim","","","","",""
"dual-task","null","null","null","","swim","swim","850.2000000476837","","G","null","77","77","1","swim-dual-task","","G","uppercase","798000","0","5","01d92d17ed0ea9d99d2bac6381808c7ee69318be66dd3daf29c6bf4568786f8d","798008.2999999523","850.2000000476837","77","1","swim","","","","",""
"audio-keyboard-response","29","906297","0.0-7.0-0.0-1.0","01d92d17ed0ea9d99d2bac6381808c7ee69318be66dd3daf29c6bf4568786f8d","swim","swim","null","","audio/story_swim_scrambled.mp3","","null","","","","","","","","","","","","","","","","","","","",""
"html-button-response","30","911180","0.0-7.0-0.0-2.0","01d92d17ed0ea9d99d2bac6381808c7ee69318be66dd3daf29c6bf4568786f8d","swim","swim","4881","","<p>This concludes the story. Thank you for listening.</p><p>You will now answer some questions about the content of the story.</p>","0","","","","","","","","","","","","","","","","","","","","",""
"survey-multi-choice","31","915493","0.0-7.0-0.0-3.0-0.0","01d92d17ed0ea9d99d2bac6381808c7ee69318be66dd3daf29c6bf4568786f8d","swim","swim","4307","","<b>Where is the home of naval aviation?</b>","","","","1","swim-comprehension","","","","","","","","","","","","","{""Q0"":""Pensacola""}","","","",""
"survey-multi-choice","32","920780","0.0-7.0-0.0-3.0-0.1","01d92d17ed0ea9d99d2bac6381808c7ee69318be66dd3daf29c6bf4568786f8d","swim","swim","5016","","<b>What were the astronaut candidates trained to do at the naval air station?</b>","","","","1","swim-comprehension","","","","","","","","","","","","","{""Q0"":""Eject out of aircraft and survive in water long enough to be rescued""}","","","",""
"survey-multi-choice","33","923784","0.0-7.0-0.0-3.0-0.2","01d92d17ed0ea9d99d2bac6381808c7ee69318be66dd3daf29c6bf4568786f8d","swim","swim","2744","","<b>How many astronaut candidates passed the first swim test?</b>","","","","1","swim-comprehension","","","","","","","","","","","","","{""Q0"":""All of them""}","","","",""
"survey-multi-choice","34","937036","0.0-7.0-0.0-3.0-0.3","01d92d17ed0ea9d99d2bac6381808c7ee69318be66dd3daf29c6bf4568786f8d","swim","swim","12988","","<b>How did the narrator train for his swim test?</b>","","","","0","swim-comprehension","","","","","","","","","","","","","{""Q0"":""Signed up for a swim class""}","","","",""
"survey-multi-choice","35","945552","0.0-7.0-0.0-3.0-0.4","01d92d17ed0ea9d99d2bac6381808c7ee69318be66dd3daf29c6bf4568786f8d","swim","swim","8259","","<b>What was the final step of the first swim test in the pool?</b>","","","","1","swim-comprehension","","","","","","","","","","","","","{""Q0"":""Tread water with hands above the water""}","","","",""
"survey-multi-choice","36","955283","0.0-7.0-0.0-3.0-0.5","01d92d17ed0ea9d99d2bac6381808c7ee69318be66dd3daf29c6bf4568786f8d","swim","swim","9474","","<b>How often does the narrator swim, now that he is a good swimmer?</b>","","","","1","swim-comprehension","","","","","","","","","","","","","{""Q0"":""Never swam again in his life""}","","","",""
"survey-multi-choice","37","962134","0.0-7.0-0.0-3.0-0.6","01d92d17ed0ea9d99d2bac6381808c7ee69318be66dd3daf29c6bf4568786f8d","swim","swim","6592","","<b>How many astronaut candidates reported for duty at the Johnson Space Center?</b>","","","","1","swim-comprehension","","","","","","","","","","","","","{""Q0"":""Forty-four""}","","","",""
"survey-multi-choice","38","970008","0.0-7.0-0.0-3.0-0.7","01d92d17ed0ea9d99d2bac6381808c7ee69318be66dd3daf29c6bf4568786f8d","swim","swim","7616","","<b>How many times did the astronaut candidates have to complete the final exercise to pass?</b>","","","","0","swim-comprehension","","","","","","","","","","","","","{""Q0"":""One""}","","","",""
"survey-multi-choice","39","978300","0.0-7.0-0.0-3.0-0.8","01d92d17ed0ea9d99d2bac6381808c7ee69318be66dd3daf29c6bf4568786f8d","swim","swim","8037","","<b>What is the narrator afraid of, aside from the water?</b>","","","","0","swim-comprehension","","","","","","","","","","","","","{""Q0"":""Loud noises""}","","","",""
"survey-multi-choice","40","1043569","0.0-7.0-0.0-3.0-0.9","01d92d17ed0ea9d99d2bac6381808c7ee69318be66dd3daf29c6bf4568786f8d","swim","swim","65016","","<b>What gave the narrator his greatest feeling of accomplishment?</b>","","","","0","swim-comprehension","","","","","","","","","","","","","{""Q0"":""Raising kids""}","","","",""
"html-button-response","41","1133704","0.0-7.0-0.0-4.0","01d92d17ed0ea9d99d2bac6381808c7ee69318be66dd3daf29c6bf4568786f8d","swim","swim","89882","","<p>Thank you for your responses.</p><p>You will now answer some questions about your impressions of the story.</p>","0","","","","","","","","","","","","","","","","","","","","",""
"html-button-response","42","1136020","0.0-7.0-0.0-5.0-0.0","01d92d17ed0ea9d99d2bac6381808c7ee69318be66dd3daf29c6bf4568786f8d","swim","swim","2314","","A1","3","","","","swim-engagement","","","","","","","","","","","","","","4","absorption","",""
"html-button-response","43","1138563","0.0-7.0-0.0-5.0-0.1","01d92d17ed0ea9d99d2bac6381808c7ee69318be66dd3daf29c6bf4568786f8d","swim","swim","2291","","A5","4","","","","swim-engagement","","","","","","","","","","","","","","5","absorption","",""
"html-button-response","44","1140712","0.0-7.0-0.0-5.0-0.2","01d92d17ed0ea9d99d2bac6381808c7ee69318be66dd3daf29c6bf4568786f8d","swim","swim","1896","","MS1","6","","","","swim-engagement","","","","","","","","","","","","","","7","mental-sim","",""
"html-button-response","45","1143140","0.0-7.0-0.0-5.0-0.3","01d92d17ed0ea9d99d2bac6381808c7ee69318be66dd3daf29c6bf4568786f8d","swim","swim","2176","","EE1","5","","","","swim-engagement","","","","","","","","","","","","","","6","emo-engage","",""
"html-button-response","46","1144930","0.0-7.0-0.0-5.0-0.4","01d92d17ed0ea9d99d2bac6381808c7ee69318be66dd3daf29c6bf4568786f8d","swim","swim","1538","","MS2","5","","","","swim-engagement","","","","","","","","","","","","","","6","mental-sim","",""
"html-button-response","47","1147066","0.0-7.0-0.0-5.0-0.5","01d92d17ed0ea9d99d2bac6381808c7ee69318be66dd3daf29c6bf4568786f8d","swim","swim","1883","","E10","3","","","","swim-engagement","","","","","","","","","","","","","","4","enjoyment","",""
"html-button-response","48","1148495","0.0-7.0-0.0-5.0-0.6","01d92d17ed0ea9d99d2bac6381808c7ee69318be66dd3daf29c6bf4568786f8d","swim","swim","1166","","E1","4","","","","swim-engagement","","","","","","","","","","","","","","5","enjoyment","",""
"html-button-response","49","1149833","0.0-7.0-0.0-5.0-0.7","01d92d17ed0ea9d99d2bac6381808c7ee69318be66dd3daf29c6bf4568786f8d","swim","swim","1084","","E8","3","","","","swim-engagement","","","","","","","","","","","","","","4","enjoyment","",""
"html-button-response","50","1151307","0.0-7.0-0.0-5.0-0.8","01d92d17ed0ea9d99d2bac6381808c7ee69318be66dd3daf29c6bf4568786f8d","swim","swim","1221","","EE2","3","","","","swim-engagement","","","","","","","","","","","","","","4","emo-engage","",""
"html-button-response","51","1154222","0.0-7.0-0.0-5.0-0.9","01d92d17ed0ea9d99d2bac6381808c7ee69318be66dd3daf29c6bf4568786f8d","swim","swim","2662","","MS3","6","","","","swim-engagement","","","","","","","","","","","","","","7","mental-sim","",""
"html-button-response","52","1155622","0.0-7.0-0.0-5.0-0.10","01d92d17ed0ea9d99d2bac6381808c7ee69318be66dd3daf29c6bf4568786f8d","swim","swim","1147","","EE4","5","","","","swim-engagement","","","","","","","","","","","","","","6","emo-engage","",""
"html-button-response","53","1158046","0.0-7.0-0.0-5.0-0.11","01d92d17ed0ea9d99d2bac6381808c7ee69318be66dd3daf29c6bf4568786f8d","swim","swim","2171","","A4","3","","","","swim-engagement","","","","","","","","","","","","","","4","absorption","",""
"html-button-response","54","1159384","0.0-7.0-0.0-5.0-0.12","01d92d17ed0ea9d99d2bac6381808c7ee69318be66dd3daf29c6bf4568786f8d","swim","swim","1083","","E7","5","","","","swim-engagement","","","","","","","","","","","","","","6","enjoyment","",""
"html-button-response","55","1160914","0.0-7.0-0.0-5.0-0.13","01d92d17ed0ea9d99d2bac6381808c7ee69318be66dd3daf29c6bf4568786f8d","swim","swim","1276","","EE5","5","","","","swim-engagement","","","","","","","","","","","","","","6","emo-engage","",""
"html-button-response","56","1162512","0.0-7.0-0.0-5.0-0.14","01d92d17ed0ea9d99d2bac6381808c7ee69318be66dd3daf29c6bf4568786f8d","swim","swim","1344","","E6","4","","","","swim-engagement","","","","","","","","","","","","","","5","enjoyment","",""
"html-button-response","57","1164109","0.0-7.0-0.0-5.0-0.15","01d92d17ed0ea9d99d2bac6381808c7ee69318be66dd3daf29c6bf4568786f8d","swim","swim","1344","","A2","6","","","","swim-engagement","","","","","","","","","","","","","","7","absorption","",""
"html-button-response","58","1165684","0.0-7.0-0.0-5.0-0.16","01d92d17ed0ea9d99d2bac6381808c7ee69318be66dd3daf29c6bf4568786f8d","swim","swim","1321","","A3","5","","","","swim-engagement","","","","","","","","","","","","","","6","absorption","",""
"html-button-response","59","1168036","0.0-7.0-0.0-5.0-0.17","01d92d17ed0ea9d99d2bac6381808c7ee69318be66dd3daf29c6bf4568786f8d","swim","swim","2099","","EE3","4","","","","swim-engagement","","","","","","","","","","","","","","5","emo-engage","",""
"html-keyboard-response","60","1173852","0.0-7.0-1.0","01d92d17ed0ea9d99d2bac6381808c7ee69318be66dd3daf29c6bf4568786f8d","swim","swim","5565","","<p>Thank you for your responses. You will now listen to the second story.</p><p>Remember, as you listen to the story you will see letters appear on the screen.</br>As quickly as possible, press <b>&lt;x&gt;</b> if the letter is lowercase and <b>&lt;m&gt;</b> if the letter is uppercase.</p><p>Press <b>&lt;x&gt;</b> or <b>&lt;m&gt;</b> to begin listening!</p>","","88","","","","","","","","","","","","","","","","","","","",""
"html-keyboard-response","61","1174354","0.0-7.0-2.0-0.0","01d92d17ed0ea9d99d2bac6381808c7ee69318be66dd3daf29c6bf4568786f8d","swim","swim","null","","<div style=""font-size:60px;"" tabindex=""0"">+</div>","","null","","","","","","","","","","","","","","","","","","","",""
"dual-task","null","null","null","","swim","swim","1383.8000001907349","","t","null","88","88","1","arctic-dual-task","","t","lowercase","18000","0","5","01d92d17ed0ea9d99d2bac6381808c7ee69318be66dd3daf29c6bf4568786f8d","18011.099999904633","1383.8000001907349","88","1","arctic","","","","",""
"dual-task","null","null","null","","swim","swim","640.7999999523163","","D","null","77","77","1","arctic-dual-task","","D","uppercase","32000","0","5","01d92d17ed0ea9d99d2bac6381808c7ee69318be66dd3daf29c6bf4568786f8d","32003.89999985695","640.7999999523163","77","1","arctic","","","","",""
"dual-task","null","null","null","","swim","swim","1091","","t","null","88","88","1","arctic-dual-task","","t","lowercase","42000","0","5","01d92d17ed0ea9d99d2bac6381808c7ee69318be66dd3daf29c6bf4568786f8d","42002.799999952316","1091","88","1","arctic","","","","",""
"dual-task","null","null","null","","swim","swim","614.7999999523163","","h","null","88","88","1","arctic-dual-task","","h","lowercase","56000","0","5","01d92d17ed0ea9d99d2bac6381808c7ee69318be66dd3daf29c6bf4568786f8d","56004.5","614.7999999523163","88","1","arctic","","","","",""
"dual-task","null","null","null","","swim","swim","605.9000000953674","","b","null","88","88","1","arctic-dual-task","","b","lowercase","68000","0","5","01d92d17ed0ea9d99d2bac6381808c7ee69318be66dd3daf29c6bf4568786f8d","68012.39999985695","605.9000000953674","88","1","arctic","","","","",""
"dual-task","null","null","null","","swim","swim","790.0999999046326","","F","null","77","77","1","arctic-dual-task","","F","uppercase","82000","0","5","01d92d17ed0ea9d99d2bac6381808c7ee69318be66dd3daf29c6bf4568786f8d","82002.59999990463","790.0999999046326","77","1","arctic","","","","",""
"dual-task","null","null","null","","swim","swim","753","","d","null","88","88","1","arctic-dual-task","","d","lowercase","88000","0","5","01d92d17ed0ea9d99d2bac6381808c7ee69318be66dd3daf29c6bf4568786f8d","88013.59999990463","753","88","1","arctic","","","","",""
"dual-task","null","null","null","","swim","swim","534.1000001430511","","D","null","77","77","1","arctic-dual-task","","D","uppercase","100000","0","5","01d92d17ed0ea9d99d2bac6381808c7ee69318be66dd3daf29c6bf4568786f8d","100008.79999995232","534.1000001430511","77","1","arctic","","","","",""
"dual-task","null","null","null","","swim","swim","614.2000000476837","","r","null","88","88","1","arctic-dual-task","","r","lowercase","108000","0","5","01d92d17ed0ea9d99d2bac6381808c7ee69318be66dd3daf29c6bf4568786f8d","108001.19999980927","614.2000000476837","88","1","arctic","","","","",""
"dual-task","null","null","null","","swim","swim","835.9000000953674","","f","null","88","88","1","arctic-dual-task","","f","lowercase","116000","0","5","01d92d17ed0ea9d99d2bac6381808c7ee69318be66dd3daf29c6bf4568786f8d","116005.89999985695","835.9000000953674","88","1","arctic","","","","",""
"dual-task","null","null","null","","swim","swim","551.6000001430511","","N","null","77","77","1","arctic-dual-task","","N","uppercase","124000","0","5","01d92d17ed0ea9d99d2bac6381808c7ee69318be66dd3daf29c6bf4568786f8d","124013.69999980927","551.6000001430511","77","1","arctic","","","","",""
"dual-task","null","null","null","","swim","swim","482.5","","b","null","88","88","1","arctic-dual-task","","b","lowercase","134000","0","5","01d92d17ed0ea9d99d2bac6381808c7ee69318be66dd3daf29c6bf4568786f8d","134009.79999995232","482.5","88","1","arctic","","","","",""
"dual-task","null","null","null","","swim","swim","880.9000000953674","","q","null","88","88","1","arctic-dual-task","","q","lowercase","144000","0","5","01d92d17ed0ea9d99d2bac6381808c7ee69318be66dd3daf29c6bf4568786f8d","144008.89999985695","880.9000000953674","88","1","arctic","","","","",""
"dual-task","null","null","null","","swim","swim","NA","","r","null","NA","88","0","arctic-dual-task","","r","lowercase","150000","1","5","01d92d17ed0ea9d99d2bac6381808c7ee69318be66dd3daf29c6bf4568786f8d","150009.59999990463","NA","NA","0","arctic","","","","",""
"dual-task","null","null","null","","swim","swim","NA","","H","null","NA","77","0","arctic-dual-task","","H","uppercase","160000","1","5","01d92d17ed0ea9d99d2bac6381808c7ee69318be66dd3daf29c6bf4568786f8d","160008","NA","NA","0","arctic","","","","",""
"dual-task","null","null","null","","swim","swim","1034.2999999523163","","d","null","88","88","1","arctic-dual-task","","d","lowercase","170000","0","5","01d92d17ed0ea9d99d2bac6381808c7ee69318be66dd3daf29c6bf4568786f8d","170003.39999985695","1034.2999999523163","88","1","arctic","","","","",""
"dual-task","null","null","null","","swim","swim","1324.3000001907349","","N","null","77","77","1","arctic-dual-task","","N","uppercase","176000","0","5","01d92d17ed0ea9d99d2bac6381808c7ee69318be66dd3daf29c6bf4568786f8d","176014.5","1324.3000001907349","77","1","arctic","","","","",""
"dual-task","null","null","null","","swim","swim","456.19999980926514","","A","null","77","77","1","arctic-dual-task","","A","uppercase","188000","0","5","01d92d17ed0ea9d99d2bac6381808c7ee69318be66dd3daf29c6bf4568786f8d","188008.09999990463","456.19999980926514","77","1","arctic","","","","",""
"dual-task","null","null","null","","swim","swim","1510","","E","null","77","77","1","arctic-dual-task","","E","uppercase","194000","0","5","01d92d17ed0ea9d99d2bac6381808c7ee69318be66dd3daf29c6bf4568786f8d","194003.79999995232","1510","77","1","arctic","","","","",""
"dual-task","null","null","null","","swim","swim","1482.2000000476837","","h","null","88","88","1","arctic-dual-task","","h","lowercase","204000","0","5","01d92d17ed0ea9d99d2bac6381808c7ee69318be66dd3daf29c6bf4568786f8d","204005.79999995232","1482.2000000476837","88","1","arctic","","","","",""
"dual-task","null","null","null","","swim","swim","1454.8999998569489","","f","null","88","88","1","arctic-dual-task","","f","lowercase","214000","0","5","01d92d17ed0ea9d99d2bac6381808c7ee69318be66dd3daf29c6bf4568786f8d","214007.89999985695","1454.8999998569489","88","1","arctic","","","","",""
"dual-task","null","null","null","","swim","swim","897.3000001907349","","R","null","77","77","1","arctic-dual-task","","R","uppercase","224000","0","5","01d92d17ed0ea9d99d2bac6381808c7ee69318be66dd3daf29c6bf4568786f8d","224015.39999985695","897.3000001907349","77","1","arctic","","","","",""
"dual-task","null","null","null","","swim","swim","NA","","Q","null","NA","77","0","arctic-dual-task","","Q","uppercase","230000","1","5","01d92d17ed0ea9d99d2bac6381808c7ee69318be66dd3daf29c6bf4568786f8d","230000.79999995232","NA","NA","0","arctic","","","","",""
"dual-task","null","null","null","","swim","swim","1177","","f","null","88","88","1","arctic-dual-task","","f","lowercase","244000","0","5","01d92d17ed0ea9d99d2bac6381808c7ee69318be66dd3daf29c6bf4568786f8d","244010.09999990463","1177","88","1","arctic","","","","",""
"dual-task","null","null","null","","swim","swim","1503.5","","a","null","88","88","1","arctic-dual-task","","a","lowercase","258000","0","5","01d92d17ed0ea9d99d2bac6381808c7ee69318be66dd3daf29c6bf4568786f8d","258006.5","1503.5","88","1","arctic","","","","",""
"dual-task","null","null","null","","swim","swim","NA","","A","null","NA","77","0","arctic-dual-task","","A","uppercase","266000","1","5","01d92d17ed0ea9d99d2bac6381808c7ee69318be66dd3daf29c6bf4568786f8d","266005.89999985695","NA","NA","0","arctic","","","","",""
"dual-task","null","null","null","","swim","swim","883.2999999523163","","a","null","88","88","1","arctic-dual-task","","a","lowercase","276000","0","5","01d92d17ed0ea9d99d2bac6381808c7ee69318be66dd3daf29c6bf4568786f8d","276002.09999990463","883.2999999523163","88","1","arctic","","","","",""
"dual-task","null","null","null","","swim","swim","555.9000000953674","","g","null","88","88","1","arctic-dual-task","","g","lowercase","290000","0","5","01d92d17ed0ea9d99d2bac6381808c7ee69318be66dd3daf29c6bf4568786f8d","290004.19999980927","555.9000000953674","88","1","arctic","","","","",""
"dual-task","null","null","null","","swim","swim","1648.6999998092651","","h","null","88","88","1","arctic-dual-task","","h","lowercase","298000","0","5","01d92d17ed0ea9d99d2bac6381808c7ee69318be66dd3daf29c6bf4568786f8d","298009.89999985695","1648.6999998092651","88","1","arctic","","","","",""
"dual-task","null","null","null","","swim","swim","1659.7999999523163","","q","null","88","88","1","arctic-dual-task","","q","lowercase","306000","0","5","01d92d17ed0ea9d99d2bac6381808c7ee69318be66dd3daf29c6bf4568786f8d","305999.89999985695","1659.7999999523163","88","1","arctic","","","","",""
"dual-task","null","null","null","","swim","swim","528.2000000476837","","B","null","77","77","1","arctic-dual-task","","B","uppercase","316000","0","5","01d92d17ed0ea9d99d2bac6381808c7ee69318be66dd3daf29c6bf4568786f8d","316005.89999985695","528.2000000476837","77","1","arctic","","","","",""
"dual-task","null","null","null","","swim","swim","647.0999999046326","","Q","null","77","77","1","arctic-dual-task","","Q","uppercase","328000","0","5","01d92d17ed0ea9d99d2bac6381808c7ee69318be66dd3daf29c6bf4568786f8d","328010.59999990463","647.0999999046326","77","1","arctic","","","","",""
"dual-task","null","null","null","","swim","swim","449.2000000476837","","q","null","88","88","1","arctic-dual-task","","q","lowercase","342000","0","5","01d92d17ed0ea9d99d2bac6381808c7ee69318be66dd3daf29c6bf4568786f8d","342009","449.2000000476837","88","1","arctic","","","","",""
"dual-task","null","null","null","","swim","swim","442.7999999523163","","E","null","77","77","1","arctic-dual-task","","E","uppercase","354000","0","5","01d92d17ed0ea9d99d2bac6381808c7ee69318be66dd3daf29c6bf4568786f8d","354014.7999999523","442.7999999523163","77","1","arctic","","","","",""
"dual-task","null","null","null","","swim","swim","892.3999998569489","","r","null","88","88","1","arctic-dual-task","","r","lowercase","364000","0","5","01d92d17ed0ea9d99d2bac6381808c7ee69318be66dd3daf29c6bf4568786f8d","364012.59999990463","892.3999998569489","88","1","arctic","","","","",""
"dual-task","null","null","null","","swim","swim","1273.6000001430511","","e","null","88","88","1","arctic-dual-task","","e","lowercase","372000","0","5","01d92d17ed0ea9d99d2bac6381808c7ee69318be66dd3daf29c6bf4568786f8d","372006.59999990463","1273.6000001430511","88","1","arctic","","","","",""
"dual-task","null","null","null","","swim","swim","604","","n","null","88","88","1","arctic-dual-task","","n","lowercase","378000","0","5","01d92d17ed0ea9d99d2bac6381808c7ee69318be66dd3daf29c6bf4568786f8d","378004","604","88","1","arctic","","","","",""
"dual-task","null","null","null","","swim","swim","573.2999999523163","","Q","null","77","77","1","arctic-dual-task","","Q","uppercase","388000","0","5","01d92d17ed0ea9d99d2bac6381808c7ee69318be66dd3daf29c6bf4568786f8d","388006.7999999523","573.2999999523163","77","1","arctic","","","","",""
"dual-task","null","null","null","","swim","swim","541.5","","F","null","77","77","1","arctic-dual-task","","F","uppercase","394000","0","5","01d92d17ed0ea9d99d2bac6381808c7ee69318be66dd3daf29c6bf4568786f8d","394015.2999999523","541.5","77","1","arctic","","","","",""
"dual-task","null","null","null","","swim","swim","803.5","","e","null","88","88","1","arctic-dual-task","","e","lowercase","406000","0","5","01d92d17ed0ea9d99d2bac6381808c7ee69318be66dd3daf29c6bf4568786f8d","406002","803.5","88","1","arctic","","","","",""
"dual-task","null","null","null","","swim","swim","515.4000000953674","","R","null","77","77","1","arctic-dual-task","","R","uppercase","412000","0","5","01d92d17ed0ea9d99d2bac6381808c7ee69318be66dd3daf29c6bf4568786f8d","412014.19999980927","515.4000000953674","77","1","arctic","","","","",""
"dual-task","null","null","null","","swim","swim","544.1000001430511","","e","null","88","88","1","arctic-dual-task","","e","lowercase","426000","0","5","01d92d17ed0ea9d99d2bac6381808c7ee69318be66dd3daf29c6bf4568786f8d","426010.5","544.1000001430511","88","1","arctic","","","","",""
"dual-task","null","null","null","","swim","swim","939.9000000953674","","F","null","77","77","1","arctic-dual-task","","F","uppercase","438000","0","5","01d92d17ed0ea9d99d2bac6381808c7ee69318be66dd3daf29c6bf4568786f8d","438014.7999999523","939.9000000953674","77","1","arctic","","","","",""
"dual-task","null","null","null","","swim","swim","852.5999999046326","","a","null","88","88","1","arctic-dual-task","","a","lowercase","450000","0","5","01d92d17ed0ea9d99d2bac6381808c7ee69318be66dd3daf29c6bf4568786f8d","450005","852.5999999046326","88","1","arctic","","","","",""
"dual-task","null","null","null","","swim","swim","567.3000001907349","","T","null","77","77","1","arctic-dual-task","","T","uppercase","462000","0","5","01d92d17ed0ea9d99d2bac6381808c7ee69318be66dd3daf29c6bf4568786f8d","462012","567.3000001907349","77","1","arctic","","","","",""
"dual-task","null","null","null","","swim","swim","438.59999990463257","","n","null","88","88","1","arctic-dual-task","","n","lowercase","474000","0","5","01d92d17ed0ea9d99d2bac6381808c7ee69318be66dd3daf29c6bf4568786f8d","474013.5","438.59999990463257","88","1","arctic","","","","",""
"dual-task","null","null","null","","swim","swim","720","","Q","null","77","77","1","arctic-dual-task","","Q","uppercase","482000","0","5","01d92d17ed0ea9d99d2bac6381808c7ee69318be66dd3daf29c6bf4568786f8d","482006.59999990463","720","77","1","arctic","","","","",""
"dual-task","null","null","null","","swim","swim","NA","","T","null","NA","77","0","arctic-dual-task","","T","uppercase","488000","1","5","01d92d17ed0ea9d99d2bac6381808c7ee69318be66dd3daf29c6bf4568786f8d","488015.5","NA","NA","0","arctic","","","","",""
"dual-task","null","null","null","","swim","swim","619.8999998569489","","T","null","77","77","1","arctic-dual-task","","T","uppercase","494000","0","5","01d92d17ed0ea9d99d2bac6381808c7ee69318be66dd3daf29c6bf4568786f8d","494007.2999999523","619.8999998569489","77","1","arctic","","","","",""
"dual-task","null","null","null","","swim","swim","940.2999999523163","","g","null","88","88","1","arctic-dual-task","","g","lowercase","500000","0","5","01d92d17ed0ea9d99d2bac6381808c7ee69318be66dd3daf29c6bf4568786f8d","500010.7999999523","940.2999999523163","88","1","arctic","","","","",""
"dual-task","null","null","null","","swim","swim","595.8999998569489","","H","null","77","77","1","arctic-dual-task","","H","uppercase","508000","0","5","01d92d17ed0ea9d99d2bac6381808c7ee69318be66dd3daf29c6bf4568786f8d","508006","595.8999998569489","77","1","arctic","","","","",""
"dual-task","null","null","null","","swim","swim","489.40000009536743","","N","null","77","77","1","arctic-dual-task","","N","uppercase","522000","0","5","01d92d17ed0ea9d99d2bac6381808c7ee69318be66dd3daf29c6bf4568786f8d","522012.19999980927","489.40000009536743","77","1","arctic","","","","",""
"dual-task","null","null","null","","swim","swim","792.6000001430511","","n","null","88","88","1","arctic-dual-task","","n","lowercase","534000","0","5","01d92d17ed0ea9d99d2bac6381808c7ee69318be66dd3daf29c6bf4568786f8d","534008","792.6000001430511","88","1","arctic","","","","",""
"dual-task","null","null","null","","swim","swim","469.40000009536743","","D","null","77","77","1","arctic-dual-task","","D","uppercase","546000","0","5","01d92d17ed0ea9d99d2bac6381808c7ee69318be66dd3daf29c6bf4568786f8d","546005.899999857","469.40000009536743","77","1","arctic","","","","",""
"dual-task","null","null","null","","swim","swim","544.6999998092651","","R","null","77","77","1","arctic-dual-task","","R","uppercase","560000","0","5","01d92d17ed0ea9d99d2bac6381808c7ee69318be66dd3daf29c6bf4568786f8d","560004.7999999523","544.6999998092651","77","1","arctic","","","","",""
"dual-task","null","null","null","","swim","swim","466.59999990463257","","E","null","77","77","1","arctic-dual-task","","E","uppercase","574000","0","5","01d92d17ed0ea9d99d2bac6381808c7ee69318be66dd3daf29c6bf4568786f8d","574008.2999999523","466.59999990463257","77","1","arctic","","","","",""
"dual-task","null","null","null","","swim","swim","788.7000000476837","","H","null","77","77","1","arctic-dual-task","","H","uppercase","588000","0","5","01d92d17ed0ea9d99d2bac6381808c7ee69318be66dd3daf29c6bf4568786f8d","588010","788.7000000476837","77","1","arctic","","","","",""
"dual-task","null","null","null","","swim","swim","488.7999999523163","","N","null","77","77","1","arctic-dual-task","","N","uppercase","602000","0","5","01d92d17ed0ea9d99d2bac6381808c7ee69318be66dd3daf29c6bf4568786f8d","602009.7999999523","488.7999999523163","77","1","arctic","","","","",""
"dual-task","null","null","null","","swim","swim","611.9000000953674","","F","null","77","77","1","arctic-dual-task","","F","uppercase","610000","0","5","01d92d17ed0ea9d99d2bac6381808c7ee69318be66dd3daf29c6bf4568786f8d","610010.399999857","611.9000000953674","77","1","arctic","","","","",""
"dual-task","null","null","null","","swim","swim","558.4000000953674","","G","null","77","77","1","arctic-dual-task","","G","uppercase","620000","0","5","01d92d17ed0ea9d99d2bac6381808c7ee69318be66dd3daf29c6bf4568786f8d","620014.399999857","558.4000000953674","77","1","arctic","","","","",""
"dual-task","null","null","null","","swim","swim","668.7999999523163","","g","null","88","88","1","arctic-dual-task","","g","lowercase","634000","0","5","01d92d17ed0ea9d99d2bac6381808c7ee69318be66dd3daf29c6bf4568786f8d","634002.6999998093","668.7999999523163","88","1","arctic","","","","",""
"dual-task","null","null","null","","swim","swim","644","","t","null","88","88","1","arctic-dual-task","","t","lowercase","648000","0","5","01d92d17ed0ea9d99d2bac6381808c7ee69318be66dd3daf29c6bf4568786f8d","648002","644","88","1","arctic","","","","",""
"dual-task","null","null","null","","swim","swim","931.1999998092651","","h","null","88","88","1","arctic-dual-task","","h","lowercase","656000","0","5","01d92d17ed0ea9d99d2bac6381808c7ee69318be66dd3daf29c6bf4568786f8d","656014.5999999046","931.1999998092651","88","1","arctic","","","","",""
"dual-task","null","null","null","","swim","swim","609.5","","g","null","88","88","1","arctic-dual-task","","g","lowercase","668000","0","5","01d92d17ed0ea9d99d2bac6381808c7ee69318be66dd3daf29c6bf4568786f8d","668011.2999999523","609.5","88","1","arctic","","","","",""
"dual-task","null","null","null","","swim","swim","905.7000000476837","","B","null","88","77","0","arctic-dual-task","","B","uppercase","676000","0","5","01d92d17ed0ea9d99d2bac6381808c7ee69318be66dd3daf29c6bf4568786f8d","676015","905.7000000476837","88","0","arctic","","","","",""
"dual-task","null","null","null","","swim","swim","820","","a","null","88","88","1","arctic-dual-task","","a","lowercase","690000","0","5","01d92d17ed0ea9d99d2bac6381808c7ee69318be66dd3daf29c6bf4568786f8d","690019","820","88","1","arctic","","","","",""
"dual-task","null","null","null","","swim","swim","729.7000000476837","","b","null","88","88","1","arctic-dual-task","","b","lowercase","700000","0","5","01d92d17ed0ea9d99d2bac6381808c7ee69318be66dd3daf29c6bf4568786f8d","700014.2999999523","729.7000000476837","88","1","arctic","","","","",""
"dual-task","null","null","null","","swim","swim","568.5","","f","null","88","88","1","arctic-dual-task","","f","lowercase","708000","0","5","01d92d17ed0ea9d99d2bac6381808c7ee69318be66dd3daf29c6bf4568786f8d","708001.1999998093","568.5","88","1","arctic","","","","",""
"dual-task","null","null","null","","swim","swim","508.5","","G","null","77","77","1","arctic-dual-task","","G","uppercase","720000","0","5","01d92d17ed0ea9d99d2bac6381808c7ee69318be66dd3daf29c6bf4568786f8d","720009","508.5","77","1","arctic","","","","",""
"dual-task","null","null","null","","swim","swim","1378.4000000953674","","e","null","88","88","1","arctic-dual-task","","e","lowercase","726000","0","5","01d92d17ed0ea9d99d2bac6381808c7ee69318be66dd3daf29c6bf4568786f8d","726014.2999999523","1378.4000000953674","88","1","arctic","","","","",""
"dual-task","null","null","null","","swim","swim","1677.0999999046326","","b","null","88","88","1","arctic-dual-task","","b","lowercase","736000","0","5","01d92d17ed0ea9d99d2bac6381808c7ee69318be66dd3daf29c6bf4568786f8d","736015.6999998093","1677.0999999046326","88","1","arctic","","","","",""
"dual-task","null","null","null","","swim","swim","531.7000000476837","","T","null","77","77","1","arctic-dual-task","","T","uppercase","746000","0","5","01d92d17ed0ea9d99d2bac6381808c7ee69318be66dd3daf29c6bf4568786f8d","746010.5","531.7000000476837","77","1","arctic","","","","",""
"dual-task","null","null","null","","swim","swim","567.0999999046326","","B","null","77","77","1","arctic-dual-task","","B","uppercase","758000","0","5","01d92d17ed0ea9d99d2bac6381808c7ee69318be66dd3daf29c6bf4568786f8d","758001.899999857","567.0999999046326","77","1","arctic","","","","",""
"dual-task","null","null","null","","swim","swim","758.1999998092651","","B","null","77","77","1","arctic-dual-task","","B","uppercase","764000","0","5","01d92d17ed0ea9d99d2bac6381808c7ee69318be66dd3daf29c6bf4568786f8d","764008","758.1999998092651","77","1","arctic","","","","",""
"dual-task","null","null","null","","swim","swim","474.5","","d","null","88","88","1","arctic-dual-task","","d","lowercase","774000","0","5","01d92d17ed0ea9d99d2bac6381808c7ee69318be66dd3daf29c6bf4568786f8d","774014.7999999523","474.5","88","1","arctic","","","","",""
"dual-task","null","null","null","","swim","swim","1186.2000000476837","","t","null","88","88","1","arctic-dual-task","","t","lowercase","786000","0","5","01d92d17ed0ea9d99d2bac6381808c7ee69318be66dd3daf29c6bf4568786f8d","786005.899999857","1186.2000000476837","88","1","arctic","","","","",""
"audio-keyboard-response","62","1972420","0.0-7.0-2.0-1.0","01d92d17ed0ea9d99d2bac6381808c7ee69318be66dd3daf29c6bf4568786f8d","swim","swim","null","","audio/story_arctic.mp3","","null","","","","","","","","","","","","","","","","","","","",""
"html-button-response","63","1975463","0.0-7.0-2.0-2.0","01d92d17ed0ea9d99d2bac6381808c7ee69318be66dd3daf29c6bf4568786f8d","swim","swim","3041","","<p>This concludes the story. Thank you for listening.</p><p>You will now answer some questions about the content of the story.</p>","0","","","","","","","","","","","","","","","","","","","","",""
"survey-multi-choice","64","1978922","0.0-7.0-2.0-3.0-0.0","01d92d17ed0ea9d99d2bac6381808c7ee69318be66dd3daf29c6bf4568786f8d","swim","swim","3454","","<b>How did the dogs respond when they saw the bears?</b>","","","","1","arctic-comprehension","","","","","","","","","","","","","{""Q0"":""Approached them""}","","","",""
"survey-multi-choice","65","1986950","0.0-7.0-2.0-3.0-0.1","01d92d17ed0ea9d99d2bac6381808c7ee69318be66dd3daf29c6bf4568786f8d","swim","swim","7770","","<b>How did the narrator&#39;s neighbour respond when she told him about her expedition?</b>","","","","1","arctic-comprehension","","","","","","","","","","","","","{""Q0"":""He said she was going to fail.""}","","","",""
"survey-multi-choice","66","1990965","0.0-7.0-2.0-3.0-0.2","01d92d17ed0ea9d99d2bac6381808c7ee69318be66dd3daf29c6bf4568786f8d","swim","swim","3758","","<b>What did the narrator do for leisure while in her tent?</b>","","","","1","arctic-comprehension","","","","","","","","","","","","","{""Q0"":""Read""}","","","",""
"survey-multi-choice","67","1996567","0.0-7.0-2.0-3.0-0.3","01d92d17ed0ea9d99d2bac6381808c7ee69318be66dd3daf29c6bf4568786f8d","swim","swim","5337","","<b>What was the objective of the narrator&#39;s expedition?</b>","","","","1","arctic-comprehension","","","","","","","","","","","","","{""Q0"":""Dogsled across Arctic America""}","","","",""
"survey-multi-choice","68","1999863","0.0-7.0-2.0-3.0-0.4","01d92d17ed0ea9d99d2bac6381808c7ee69318be66dd3daf29c6bf4568786f8d","swim","swim","3043","","<b>What is the name of the narrator&#39;s neighbour?</b>","","","","1","arctic-comprehension","","","","","","","","","","","","","{""Q0"":""Dave""}","","","",""
"survey-multi-choice","69","2005027","0.0-7.0-2.0-3.0-0.5","01d92d17ed0ea9d99d2bac6381808c7ee69318be66dd3daf29c6bf4568786f8d","swim","swim","4902","","<b>What were the weather conditions in the Arctic like the winter of the narrator&#39;s expedition?</b>","","","","1","arctic-comprehension","","","","","","","","","","","","","{""Q0"":""There were more storms than any other winter in recorded history.""}","","","",""
"survey-multi-choice","70","2009763","0.0-7.0-2.0-3.0-0.6","01d92d17ed0ea9d99d2bac6381808c7ee69318be66dd3daf29c6bf4568786f8d","swim","swim","4481","","<b>How many sponsorships did the narrator receive to support her expedition?</b>","","","","1","arctic-comprehension","","","","","","","","","","","","","{""Q0"":""None""}","","","",""
"survey-multi-choice","71","2014049","0.0-7.0-2.0-3.0-0.7","01d92d17ed0ea9d99d2bac6381808c7ee69318be66dd3daf29c6bf4568786f8d","swim","swim","4031","","<b>How did the narrator&#39;s encounter with the polar bears end?</b>","","","","1","arctic-comprehension","","","","","","","","","","","","","{""Q0"":""The bears walked back to their den.""}","","","",""
"survey-multi-choice","72","2023409","0.0-7.0-2.0-3.0-0.8","01d92d17ed0ea9d99d2bac6381808c7ee69318be66dd3daf29c6bf4568786f8d","swim","swim","9107","","<b>Which dog on the narrator&#39;s dog team never followed instructions?</b>","","","","0","arctic-comprehension","","","","","","","","","","","","","{""Q0"":""Douggie-dog""}","","","",""
"survey-multi-choice","73","2033062","0.0-7.0-2.0-3.0-0.9","01d92d17ed0ea9d99d2bac6381808c7ee69318be66dd3daf29c6bf4568786f8d","swim","swim","9399","","<b>How did the narrator prepare for her expedition?</b>","","","","0","arctic-comprehension","","","","","","","","","","","","","{""Q0"":""Exercised several hours each day""}","","","",""
"html-button-response","74","2039901","0.0-7.0-2.0-4.0","01d92d17ed0ea9d99d2bac6381808c7ee69318be66dd3daf29c6bf4568786f8d","swim","swim","6587","","<p>Thank you for your responses.</p><p>You will now answer some questions about your impressions of the story.</p>","0","","","","","","","","","","","","","","","","","","","","",""
"html-button-response","75","2041577","0.0-7.0-2.0-5.0-0.0","01d92d17ed0ea9d99d2bac6381808c7ee69318be66dd3daf29c6bf4568786f8d","swim","swim","1674","","A3","4","","","","arctic-engagement","","","","","","","","","","","","","","5","absorption","",""
"html-button-response","76","2042927","0.0-7.0-2.0-5.0-0.1","01d92d17ed0ea9d99d2bac6381808c7ee69318be66dd3daf29c6bf4568786f8d","swim","swim","1098","","MS3","6","","","","arctic-engagement","","","","","","","","","","","","","","7","mental-sim","",""
"html-button-response","77","2044131","0.0-7.0-2.0-5.0-0.2","01d92d17ed0ea9d99d2bac6381808c7ee69318be66dd3daf29c6bf4568786f8d","swim","swim","951","","MS2","5","","","","arctic-engagement","","","","","","","","","","","","","","6","mental-sim","",""
"html-button-response","78","2045447","0.0-7.0-2.0-5.0-0.3","01d92d17ed0ea9d99d2bac6381808c7ee69318be66dd3daf29c6bf4568786f8d","swim","swim","1062","","A5","5","","","","arctic-engagement","","","","","","","","","","","","","","6","absorption","",""
"html-button-response","79","2047100","0.0-7.0-2.0-5.0-0.4","01d92d17ed0ea9d99d2bac6381808c7ee69318be66dd3daf29c6bf4568786f8d","swim","swim","1399","","EE2","3","","","","arctic-engagement","","","","","","","","","","","","","","4","emo-engage","",""
"html-button-response","80","2048654","0.0-7.0-2.0-5.0-0.5","01d92d17ed0ea9d99d2bac6381808c7ee69318be66dd3daf29c6bf4568786f8d","swim","swim","1299","","A2","5","","","","arctic-engagement","","","","","","","","","","","","","","6","absorption","",""
"html-button-response","81","2049755","0.0-7.0-2.0-5.0-0.6","01d92d17ed0ea9d99d2bac6381808c7ee69318be66dd3daf29c6bf4568786f8d","swim","swim","849","","EE4","5","","","","arctic-engagement","","","","","","","","","","","","","","6","emo-engage","",""
"html-button-response","82","2050892","0.0-7.0-2.0-5.0-0.7","01d92d17ed0ea9d99d2bac6381808c7ee69318be66dd3daf29c6bf4568786f8d","swim","swim","883","","EE3","5","","","","arctic-engagement","","","","","","","","","","","","","","6","emo-engage","",""
"html-button-response","83","2052939","0.0-7.0-2.0-5.0-0.8","01d92d17ed0ea9d99d2bac6381808c7ee69318be66dd3daf29c6bf4568786f8d","swim","swim","1794","","A1","3","","","","arctic-engagement","","","","","","","","","","","","","","4","absorption","",""
"html-button-response","84","2054312","0.0-7.0-2.0-5.0-0.9","01d92d17ed0ea9d99d2bac6381808c7ee69318be66dd3daf29c6bf4568786f8d","swim","swim","1119","","E1","4","","","","arctic-engagement","","","","","","","","","","","","","","5","enjoyment","",""
"html-button-response","85","2055504","0.0-7.0-2.0-5.0-0.10","01d92d17ed0ea9d99d2bac6381808c7ee69318be66dd3daf29c6bf4568786f8d","swim","swim","940","","EE5","4","","","","arctic-engagement","","","","","","","","","","","","","","5","emo-engage","",""
"html-button-response","86","2056685","0.0-7.0-2.0-5.0-0.11","01d92d17ed0ea9d99d2bac6381808c7ee69318be66dd3daf29c6bf4568786f8d","swim","swim","929","","E6","5","","","","arctic-engagement","","","","","","","","","","","","","","6","enjoyment","",""
"html-button-response","87","2058271","0.0-7.0-2.0-5.0-0.12","01d92d17ed0ea9d99d2bac6381808c7ee69318be66dd3daf29c6bf4568786f8d","swim","swim","1331","","E8","3","","","","arctic-engagement","","","","","","","","","","","","","","4","enjoyment","",""
"html-button-response","88","2060442","0.0-7.0-2.0-5.0-0.13","01d92d17ed0ea9d99d2bac6381808c7ee69318be66dd3daf29c6bf4568786f8d","swim","swim","1920","","EE1","5","","","","arctic-engagement","","","","","","","","","","","","","","6","emo-engage","",""
"html-button-response","89","2061455","0.0-7.0-2.0-5.0-0.14","01d92d17ed0ea9d99d2bac6381808c7ee69318be66dd3daf29c6bf4568786f8d","swim","swim","759","","E7","5","","","","arctic-engagement","","","","","","","","","","","","","","6","enjoyment","",""
"html-button-response","90","2062726","0.0-7.0-2.0-5.0-0.15","01d92d17ed0ea9d99d2bac6381808c7ee69318be66dd3daf29c6bf4568786f8d","swim","swim","1018","","E10","6","","","","arctic-engagement","","","","","","","","","","","","","","7","enjoyment","",""
"html-button-response","91","2064571","0.0-7.0-2.0-5.0-0.16","01d92d17ed0ea9d99d2bac6381808c7ee69318be66dd3daf29c6bf4568786f8d","swim","swim","1592","","MS1","5","","","","arctic-engagement","","","","","","","","","","","","","","6","mental-sim","",""
"html-button-response","92","2067315","0.0-7.0-2.0-5.0-0.17","01d92d17ed0ea9d99d2bac6381808c7ee69318be66dd3daf29c6bf4568786f8d","swim","swim","2491","","A4","4","","","","arctic-engagement","","","","","","","","","","","","","","5","absorption","",""
"html-button-response","93","2068531","0.0-8.0","01d92d17ed0ea9d99d2bac6381808c7ee69318be66dd3daf29c6bf4568786f8d","swim","swim","964","","<p>Thank you for your responses.</p><p>You will now answer some demographic, hearing, and general health questions.</p>","0","","","","","","","","","","","","","","","","","","","","",""
"survey-multi-choice","94","2070679","0.0-9.0-0.0","01d92d17ed0ea9d99d2bac6381808c7ee69318be66dd3daf29c6bf4568786f8d","swim","swim","2139","","","","","","","survey","","","","","","","","","","","","","{""Q0"":""Chrome""}","","","browser",""
"survey-text","95","2073256","0.0-9.0-1.0","01d92d17ed0ea9d99d2bac6381808c7ee69318be66dd3daf29c6bf4568786f8d","swim","swim","2321.100000143051","","","","","","","survey","","","","","","","","","","","","","{""AGE"":""31""}","","","age","31"
"survey-multi-choice","96","2075587","0.0-9.0-2.0","01d92d17ed0ea9d99d2bac6381808c7ee69318be66dd3daf29c6bf4568786f8d","swim","swim","2075","","","","","","","survey","","","","","","","","","","","","","{""Q0"":""Male""}","","","gender","Male"
"survey-multi-choice","97","2077654","0.0-9.0-4.0","01d92d17ed0ea9d99d2bac6381808c7ee69318be66dd3daf29c6bf4568786f8d","swim","swim","1812","","","","","","","survey","","","","","","","","","","","","","{""Q0"":""Right""}","","","handedness","Right"
"survey-multi-choice","98","2079702","0.0-9.0-5.0","01d92d17ed0ea9d99d2bac6381808c7ee69318be66dd3daf29c6bf4568786f8d","swim","swim","1785","","","","","","","survey","","","","","","","","","","","","","{""Q0"":""Bachelor's Degree""}","","","education","Bachelor's Degree"
"survey-text","99","2083988","0.0-10.0-0.0","01d92d17ed0ea9d99d2bac6381808c7ee69318be66dd3daf29c6bf4568786f8d","swim","swim","4032","","","","","","","survey","","","","","","","","","","","","","{""L1"":""English""}","","","first-language","English"
"survey-text","100","2089275","0.0-10.0-1.0","01d92d17ed0ea9d99d2bac6381808c7ee69318be66dd3daf29c6bf4568786f8d","swim","swim","5015.099999904633","","","","","","","survey","","","","","","","","","","","","","{""L2name"":"""",""L2fluency"":"""",""L3name"":"""",""L3fluency"":"""",""L4name"":"""",""L4fluency"":""""}","","","additional-languages","{""L2name"":"""",""L2fluency"":"""",""L3name"":"""",""L3fluency"":"""",""L4name"":"""",""L4fluency"":""""}"
"survey-multi-choice","101","2091074","0.0-10.0-2.0","01d92d17ed0ea9d99d2bac6381808c7ee69318be66dd3daf29c6bf4568786f8d","swim","swim","1546","","","","","","","survey","","","","","","","","","","","","","{""Q0"":""No""}","","","hearing-aid","No"
"survey-multi-choice","102","2093662","0.0-10.0-3.0","01d92d17ed0ea9d99d2bac6381808c7ee69318be66dd3daf29c6bf4568786f8d","swim","swim","2334","","","","","","","survey","","","","","","","","","","","","","{""Q0"":""Never""}","","","ringing-ears","Never"
"survey-multi-choice","103","2095698","0.0-10.0-5.0","01d92d17ed0ea9d99d2bac6381808c7ee69318be66dd3daf29c6bf4568786f8d","swim","swim","1784","","","","","","","survey","","","","","","","","","","","","","{""Q0"":""No""}","","","neuro-disease","No"
"survey-multi-choice","104","2097959","0.0-10.0-7.0","01d92d17ed0ea9d99d2bac6381808c7ee69318be66dd3daf29c6bf4568786f8d","swim","swim","2009","","","","","","","survey","","","","","","","","","","","","","{""Q0"":""No""}","","","take-meds","No"
"survey-text","105","2100513","0.0-10.0-9.0","01d92d17ed0ea9d99d2bac6381808c7ee69318be66dd3daf29c6bf4568786f8d","swim","swim","2280.5","","","","","","","survey","","","","","","","","","","","","","{""HC"":""""}","","","health-concerns",""
"html-button-response","106","2103000","0.0-11.0-0.0","01d92d17ed0ea9d99d2bac6381808c7ee69318be66dd3daf29c6bf4568786f8d","swim","swim","2234","","<p>How would you describe your musical skills/experiences?</p>","2","","","","survey","","","","","","","","","","","","","","","","music-skill","3"
"survey-multi-choice","107","2104922","0.0-11.0-1.0","01d92d17ed0ea9d99d2bac6381808c7ee69318be66dd3daf29c6bf4568786f8d","swim","swim","1669","","","","","","","survey","","","","","","","","","","","","","{""Q0"":""No""}","","","music-instrument","No"
"html-button-response","108","2107139","0.0-12.0-0.0","01d92d17ed0ea9d99d2bac6381808c7ee69318be66dd3daf29c6bf4568786f8d","swim","swim","1966","","<p>How would you describe your general hearing abilities?</p>","3","","","","survey","","","","","","","","","","","","","","","","ssq-01","4"
"html-button-response","109","2110750","0.0-12.0-1.0","01d92d17ed0ea9d99d2bac6381808c7ee69318be66dd3daf29c6bf4568786f8d","swim","swim","3359","","<p>When you talk with someone at a place that strongly reverberates/echoes (e.g., in a church or train station),</br>can you understand what the person says?</p>","7","","","","survey","","","","","","","","","","","","","","","","ssq-02","7"
"html-button-response","110","2113473","0.0-12.0-2.0","01d92d17ed0ea9d99d2bac6381808c7ee69318be66dd3daf29c6bf4568786f8d","swim","swim","2470","","<p>When you are with a group (~5 people) in a lively restaurant, can you follow the group's conversation?</p>","7","","","","survey","","","","","","","","","","","","","","","","ssq-03","7"
"html-button-response","111","2116567","0.0-12.0-3.0","01d92d17ed0ea9d99d2bac6381808c7ee69318be66dd3daf29c6bf4568786f8d","swim","swim","2842","","<p>Based on the sound of a bus or truck, can you tell whether it is moving towards or away from you?</p>","6","","","","survey","","","","","","","","","","","","","","","","ssq-04","6"
"html-button-response","112","2118490","0.0-12.0-4.0","01d92d17ed0ea9d99d2bac6381808c7ee69318be66dd3daf29c6bf4568786f8d","swim","swim","1671","","<p>When you are in an unknown environment, can you tell from which direction a brief sound originates?</p>","7","","","","survey","","","","","","","","","","","","","","","","ssq-05","7"
"html-button-response","113","2120729","0.0-12.0-5.0","01d92d17ed0ea9d99d2bac6381808c7ee69318be66dd3daf29c6bf4568786f8d","swim","swim","1986","","<p>Are you able to ignore distracting sounds when you concentrate on a specific aspect of your acoustic surrounding?</p>","5","","","","survey","","","","","","","","","","","","","","","","ssq-06","5"
"fullscreen","114","2121981","0.0-13.0","01d92d17ed0ea9d99d2bac6381808c7ee69318be66dd3daf29c6bf4568786f8d","swim","swim","","","","","","","","","true","","","","","","","","","","","","","","","",""
