"trial_type","trial_index","time_elapsed","internal_node_id","ParticipantID","firstStory","scramStory","rt","url","stimulus","button_pressed","key_press","correctRESP","correct","designation","success","letterStim","letterType","ONSET","TIMEOUT","CONDITION","Participant","ONSET_ACTUAL","RT","RESP","ACC","STORY","responses","response","type","surveyQuestion","QRESP"
"pavlovia","0","3","0.0-0.0","01d92d17ed0ea9d99d2bac6381808c7ee69318be66dd3daf29c6bf4568786f8d","arctic","arctic","","","","","","","","","","","","","","","","","","","","","","","","",""
"external-html","1","6612","0.0-1.0","01d92d17ed0ea9d99d2bac6381808c7ee69318be66dd3daf29c6bf4568786f8d","arctic","arctic","6315","consent/consent_updated.html","","","","","","","","","","","","","","","","","","","","","","",""
"html-button-response","2","9552","0.0-2.0-0.0","01d92d17ed0ea9d99d2bac6381808c7ee69318be66dd3daf29c6bf4568786f8d","arctic","arctic","2940","","<p>Before we begin the main task, you will complete a short volume calibration and headphone check.</p><p>Please make sure you are in a quiet listening environment, that you are wearing headphones, and that your computer's volume is turned on.<p></p>","0","","","","","","","","","","","","","","","","","","","","",""
"html-button-response","3","13087","0.0-2.0-1.0","01d92d17ed0ea9d99d2bac6381808c7ee69318be66dd3daf29c6bf4568786f8d","arctic","arctic","3244","","<p>The volume calibration will be first.</p><p>You will hear a thirty-second noise. Please adjust your computer's volume so that this noise is being presented at a comfortable level.<p></p>","0","","","","","","","","","","","","","","","","","","","","",""
"audio-button-response","4","21395","0.0-2.0-2.0","01d92d17ed0ea9d99d2bac6381808c7ee69318be66dd3daf29c6bf4568786f8d","arctic","arctic","8014","","audio/volumetest.mp3","0","","","","","","","","","","","","","","","","","","","","",""
"html-keyboard-response","5","46534","0.0-3.0-0.0","01d92d17ed0ea9d99d2bac6381808c7ee69318be66dd3daf29c6bf4568786f8d","arctic","arctic","25139","","<p>You will now complete a short headphone check.</p><p>On each trial, you will hear three tones. One of these tones will be quieter than the others. Your task is to identify whether the quiet tone occurred first, second, or third.</p><p>There are six trials in total.<p></p><p></p>(Press SPACEBAR to begin)","","32","","","","","","","","","","","","","","","","","","","",""
"html-keyboard-response","6","47288","0.0-3.0-1.0-0.0","01d92d17ed0ea9d99d2bac6381808c7ee69318be66dd3daf29c6bf4568786f8d","arctic","arctic","null","","<div style=""font-size:60px;"">+</div>","","null","","","","","","","","","","","","","","","","","","","",""
"audio-button-response","7","52281","0.0-3.0-1.0-1.0","01d92d17ed0ea9d99d2bac6381808c7ee69318be66dd3daf29c6bf4568786f8d","arctic","arctic","4992","","audio/t3_1.mp3","2","","2","1","headphone-test","","","","","","","","","","","","","","","","",""
"html-keyboard-response","8","52782","0.0-3.0-1.0-2.0","01d92d17ed0ea9d99d2bac6381808c7ee69318be66dd3daf29c6bf4568786f8d","arctic","arctic","null","","<p>Correct</p>","","null","","","","","","","","","","","","","","","","","","","",""
"html-keyboard-response","9","53254","0.0-3.0-1.0-0.1","01d92d17ed0ea9d99d2bac6381808c7ee69318be66dd3daf29c6bf4568786f8d","arctic","arctic","null","","<div style=""font-size:60px;"">+</div>","","null","","","","","","","","","","","","","","","","","","","",""
"audio-button-response","10","57673","0.0-3.0-1.0-1.1","01d92d17ed0ea9d99d2bac6381808c7ee69318be66dd3daf29c6bf4568786f8d","arctic","arctic","4418","","audio/t1_2.mp3","0","","0","1","headphone-test","","","","","","","","","","","","","","","","",""
"html-keyboard-response","11","58174","0.0-3.0-1.0-2.1","01d92d17ed0ea9d99d2bac6381808c7ee69318be66dd3daf29c6bf4568786f8d","arctic","arctic","null","","<p>Correct</p>","","null","","","","","","","","","","","","","","","","","","","",""
"html-keyboard-response","12","58675","0.0-3.0-1.0-0.2","01d92d17ed0ea9d99d2bac6381808c7ee69318be66dd3daf29c6bf4568786f8d","arctic","arctic","null","","<div style=""font-size:60px;"">+</div>","","null","","","","","","","","","","","","","","","","","","","",""
"audio-button-response","13","62953","0.0-3.0-1.0-1.2","01d92d17ed0ea9d99d2bac6381808c7ee69318be66dd3daf29c6bf4568786f8d","arctic","arctic","4278","","audio/t1_1.mp3","0","","0","1","headphone-test","","","","","","","","","","","","","","","","",""
"html-keyboard-response","14","63454","0.0-3.0-1.0-2.2","01d92d17ed0ea9d99d2bac6381808c7ee69318be66dd3daf29c6bf4568786f8d","arctic","arctic","null","","<p>Correct</p>","","null","","","","","","","","","","","","","","","","","","","",""
"html-keyboard-response","15","63960","0.0-3.0-1.0-0.3","01d92d17ed0ea9d99d2bac6381808c7ee69318be66dd3daf29c6bf4568786f8d","arctic","arctic","null","","<div style=""font-size:60px;"">+</div>","","null","","","","","","","","","","","","","","","","","","","",""
"audio-button-response","16","68448","0.0-3.0-1.0-1.3","01d92d17ed0ea9d99d2bac6381808c7ee69318be66dd3daf29c6bf4568786f8d","arctic","arctic","4488","","audio/t3_2.mp3","2","","2","1","headphone-test","","","","","","","","","","","","","","","","",""
"html-keyboard-response","17","68998","0.0-3.0-1.0-2.3","01d92d17ed0ea9d99d2bac6381808c7ee69318be66dd3daf29c6bf4568786f8d","arctic","arctic","null","","<p>Correct</p>","","null","","","","","","","","","","","","","","","","","","","",""
"html-keyboard-response","18","69545","0.0-3.0-1.0-0.4","01d92d17ed0ea9d99d2bac6381808c7ee69318be66dd3daf29c6bf4568786f8d","arctic","arctic","null","","<div style=""font-size:60px;"">+</div>","","null","","","","","","","","","","","","","","","","","","","",""
"audio-button-response","19","74161","0.0-3.0-1.0-1.4","01d92d17ed0ea9d99d2bac6381808c7ee69318be66dd3daf29c6bf4568786f8d","arctic","arctic","4616","","audio/t2_2.mp3","1","","1","1","headphone-test","","","","","","","","","","","","","","","","",""
"html-keyboard-response","20","74710","0.0-3.0-1.0-2.4","01d92d17ed0ea9d99d2bac6381808c7ee69318be66dd3daf29c6bf4568786f8d","arctic","arctic","null","","<p>Correct</p>","","null","","","","","","","","","","","","","","","","","","","",""
"html-keyboard-response","21","75260","0.0-3.0-1.0-0.5","01d92d17ed0ea9d99d2bac6381808c7ee69318be66dd3daf29c6bf4568786f8d","arctic","arctic","null","","<div style=""font-size:60px;"">+</div>","","null","","","","","","","","","","","","","","","","","","","",""
"audio-button-response","22","79649","0.0-3.0-1.0-1.5","01d92d17ed0ea9d99d2bac6381808c7ee69318be66dd3daf29c6bf4568786f8d","arctic","arctic","4389","","audio/t2_1.mp3","1","","1","1","headphone-test","","","","","","","","","","","","","","","","",""
"html-keyboard-response","23","80151","0.0-3.0-1.0-2.5","01d92d17ed0ea9d99d2bac6381808c7ee69318be66dd3daf29c6bf4568786f8d","arctic","arctic","null","","<p>Correct</p>","","null","","","","","","","","","","","","","","","","","","","",""
"fullscreen","24","82777","0.0-4.0","01d92d17ed0ea9d99d2bac6381808c7ee69318be66dd3daf29c6bf4568786f8d","arctic","arctic","","","","","","","","","true","","","","","","","","","","","","","","","",""
"html-button-response","25","111553","0.0-5.0-0.0","01d92d17ed0ea9d99d2bac6381808c7ee69318be66dd3daf29c6bf4568786f8d","arctic","arctic","28775","","<p>There are two blocks to this experiment.</p><p>In each block, you will hear a ~13.5 minute story. One of the stories will be scrambled. Please listen carefully to both stories and understand them as best you can.</p><p>After each story, you will be asked some questions to assess your comprehension.</p>","0","","","","","","","","","","","","","","","","","","","","",""
"html-button-response","26","144677","0.0-5.0-1.0","01d92d17ed0ea9d99d2bac6381808c7ee69318be66dd3daf29c6bf4568786f8d","arctic","arctic","33111","","<p>During each story, there will be an additional task.</p><p>A letter will occasionally appear on the screen.</br>Your job is to - as quickly as you can - decide whether the letter is lowercase or uppercase and press one of two keys on the keyboard:</p><p>If the letter is <b>lowercase</b>, press key &lt;<b>x</b>&gt;.</p><p>If the letter is <b>uppercase</b>, press key &lt;<b>m</b>&gt;.</p>","0","","","","","","","","","","","","","","","","","","","","",""
"html-keyboard-response","27","149840","0.0-5.0-2.0","01d92d17ed0ea9d99d2bac6381808c7ee69318be66dd3daf29c6bf4568786f8d","arctic","arctic","5160","","<p>Because we want your responses to be as quick as possible, please keep your index fingers over the keys while listening.</p><p>Each block lasts about 20 minutes.</p><p><b>Press &lt;x&gt; or &lt;m&gt; to start the first block!</b></p>","","88","","","","","","","","","","","","","","","","","","","",""
"html-keyboard-response","28","150271","0.0-6.0-0.0-0.0","01d92d17ed0ea9d99d2bac6381808c7ee69318be66dd3daf29c6bf4568786f8d","arctic","arctic","null","","<div style=""font-size:60px;"" tabindex=""0"">+</div>","","null","","","","","","","","","","","","","","","","","","","",""
"dual-task","null","null","null","","arctic","arctic","NA","","d","null","NA","88","0","arctic-dual-task","","d","lowercase","18000","1","5","01d92d17ed0ea9d99d2bac6381808c7ee69318be66dd3daf29c6bf4568786f8d","18000","NA","NA","0","arctic","","","","",""
"dual-task","null","null","null","","arctic","arctic","NA","","t","null","NA","88","0","arctic-dual-task","","t","lowercase","32000","1","5","01d92d17ed0ea9d99d2bac6381808c7ee69318be66dd3daf29c6bf4568786f8d","31998","NA","NA","0","arctic","","","","",""
"dual-task","null","null","null","","arctic","arctic","952","","H","null","77","77","1","arctic-dual-task","","H","uppercase","42000","0","5","01d92d17ed0ea9d99d2bac6381808c7ee69318be66dd3daf29c6bf4568786f8d","41999","952","77","1","arctic","","","","",""
"dual-task","null","null","null","","arctic","arctic","578","","F","null","77","77","1","arctic-dual-task","","F","uppercase","56000","0","5","01d92d17ed0ea9d99d2bac6381808c7ee69318be66dd3daf29c6bf4568786f8d","55999","578","77","1","arctic","","","","",""
"dual-task","null","null","null","","arctic","arctic","751","","A","null","77","77","1","arctic-dual-task","","A","uppercase","68000","0","5","01d92d17ed0ea9d99d2bac6381808c7ee69318be66dd3daf29c6bf4568786f8d","67999","751","77","1","arctic","","","","",""
"dual-task","null","null","null","","arctic","arctic","585","","r","null","88","88","1","arctic-dual-task","","r","lowercase","82000","0","5","01d92d17ed0ea9d99d2bac6381808c7ee69318be66dd3daf29c6bf4568786f8d","81998","585","88","1","arctic","","","","",""
"dual-task","null","null","null","","arctic","arctic","1319","","r","null","88","88","1","arctic-dual-task","","r","lowercase","88000","0","5","01d92d17ed0ea9d99d2bac6381808c7ee69318be66dd3daf29c6bf4568786f8d","87998","1319","88","1","arctic","","","","",""
"dual-task","null","null","null","","arctic","arctic","952","","E","null","77","77","1","arctic-dual-task","","E","uppercase","100000","0","5","01d92d17ed0ea9d99d2bac6381808c7ee69318be66dd3daf29c6bf4568786f8d","99998","952","77","1","arctic","","","","",""
"dual-task","null","null","null","","arctic","arctic","1066","","t","null","88","88","1","arctic-dual-task","","t","lowercase","108000","0","5","01d92d17ed0ea9d99d2bac6381808c7ee69318be66dd3daf29c6bf4568786f8d","108000","1066","88","1","arctic","","","","",""
"dual-task","null","null","null","","arctic","arctic","1049","","g","null","88","88","1","arctic-dual-task","","g","lowercase","116000","0","5","01d92d17ed0ea9d99d2bac6381808c7ee69318be66dd3daf29c6bf4568786f8d","115999","1049","88","1","arctic","","","","",""
"dual-task","null","null","null","","arctic","arctic","673","","g","null","88","88","1","arctic-dual-task","","g","lowercase","124000","0","5","01d92d17ed0ea9d99d2bac6381808c7ee69318be66dd3daf29c6bf4568786f8d","124000","673","88","1","arctic","","","","",""
"dual-task","null","null","null","","arctic","arctic","533","","A","null","77","77","1","arctic-dual-task","","A","uppercase","134000","0","5","01d92d17ed0ea9d99d2bac6381808c7ee69318be66dd3daf29c6bf4568786f8d","134001","533","77","1","arctic","","","","",""
"dual-task","null","null","null","","arctic","arctic","705","","h","null","88","88","1","arctic-dual-task","","h","lowercase","144000","0","5","01d92d17ed0ea9d99d2bac6381808c7ee69318be66dd3daf29c6bf4568786f8d","144000","705","88","1","arctic","","","","",""
"dual-task","null","null","null","","arctic","arctic","1298","","d","null","88","88","1","arctic-dual-task","","d","lowercase","150000","0","5","01d92d17ed0ea9d99d2bac6381808c7ee69318be66dd3daf29c6bf4568786f8d","150001","1298","88","1","arctic","","","","",""
"dual-task","null","null","null","","arctic","arctic","629","","b","null","88","88","1","arctic-dual-task","","b","lowercase","160000","0","5","01d92d17ed0ea9d99d2bac6381808c7ee69318be66dd3daf29c6bf4568786f8d","160001","629","88","1","arctic","","","","",""
"dual-task","null","null","null","","arctic","arctic","604","","g","null","88","88","1","arctic-dual-task","","g","lowercase","170000","0","5","01d92d17ed0ea9d99d2bac6381808c7ee69318be66dd3daf29c6bf4568786f8d","170002","604","88","1","arctic","","","","",""
"dual-task","null","null","null","","arctic","arctic","626","","e","null","88","88","1","arctic-dual-task","","e","lowercase","176000","0","5","01d92d17ed0ea9d99d2bac6381808c7ee69318be66dd3daf29c6bf4568786f8d","176003","626","88","1","arctic","","","","",""
"dual-task","null","null","null","","arctic","arctic","562","","G","null","77","77","1","arctic-dual-task","","G","uppercase","188000","0","5","01d92d17ed0ea9d99d2bac6381808c7ee69318be66dd3daf29c6bf4568786f8d","188001","562","77","1","arctic","","","","",""
"dual-task","null","null","null","","arctic","arctic","621","","h","null","88","88","1","arctic-dual-task","","h","lowercase","194000","0","5","01d92d17ed0ea9d99d2bac6381808c7ee69318be66dd3daf29c6bf4568786f8d","194001","621","88","1","arctic","","","","",""
"dual-task","null","null","null","","arctic","arctic","679","","H","null","77","77","1","arctic-dual-task","","H","uppercase","204000","0","5","01d92d17ed0ea9d99d2bac6381808c7ee69318be66dd3daf29c6bf4568786f8d","204001","679","77","1","arctic","","","","",""
"dual-task","null","null","null","","arctic","arctic","622","","D","null","77","77","1","arctic-dual-task","","D","uppercase","214000","0","5","01d92d17ed0ea9d99d2bac6381808c7ee69318be66dd3daf29c6bf4568786f8d","214000","622","77","1","arctic","","","","",""
"dual-task","null","null","null","","arctic","arctic","594","","R","null","77","77","1","arctic-dual-task","","R","uppercase","224000","0","5","01d92d17ed0ea9d99d2bac6381808c7ee69318be66dd3daf29c6bf4568786f8d","224000","594","77","1","arctic","","","","",""
"dual-task","null","null","null","","arctic","arctic","622","","e","null","88","88","1","arctic-dual-task","","e","lowercase","230000","0","5","01d92d17ed0ea9d99d2bac6381808c7ee69318be66dd3daf29c6bf4568786f8d","230001","622","88","1","arctic","","","","",""
"dual-task","null","null","null","","arctic","arctic","798","","B","null","77","77","1","arctic-dual-task","","B","uppercase","244000","0","5","01d92d17ed0ea9d99d2bac6381808c7ee69318be66dd3daf29c6bf4568786f8d","244002","798","77","1","arctic","","","","",""
"dual-task","null","null","null","","arctic","arctic","1169","","e","null","88","88","1","arctic-dual-task","","e","lowercase","258000","0","5","01d92d17ed0ea9d99d2bac6381808c7ee69318be66dd3daf29c6bf4568786f8d","258000","1169","88","1","arctic","","","","",""
"dual-task","null","null","null","","arctic","arctic","1479","","G","null","77","77","1","arctic-dual-task","","G","uppercase","266000","0","5","01d92d17ed0ea9d99d2bac6381808c7ee69318be66dd3daf29c6bf4568786f8d","266002","1479","77","1","arctic","","","","",""
"dual-task","null","null","null","","arctic","arctic","490","","R","null","77","77","1","arctic-dual-task","","R","uppercase","276000","0","5","01d92d17ed0ea9d99d2bac6381808c7ee69318be66dd3daf29c6bf4568786f8d","276000","490","77","1","arctic","","","","",""
"dual-task","null","null","null","","arctic","arctic","NA","","r","null","NA","88","0","arctic-dual-task","","r","lowercase","290000","1","5","01d92d17ed0ea9d99d2bac6381808c7ee69318be66dd3daf29c6bf4568786f8d","290009","NA","NA","0","arctic","","","","",""
"dual-task","null","null","null","","arctic","arctic","1139","","B","null","77","77","1","arctic-dual-task","","B","uppercase","298000","0","5","01d92d17ed0ea9d99d2bac6381808c7ee69318be66dd3daf29c6bf4568786f8d","298000","1139","77","1","arctic","","","","",""
"dual-task","null","null","null","","arctic","arctic","788","","F","null","77","77","1","arctic-dual-task","","F","uppercase","306000","0","5","01d92d17ed0ea9d99d2bac6381808c7ee69318be66dd3daf29c6bf4568786f8d","306000","788","77","1","arctic","","","","",""
"dual-task","null","null","null","","arctic","arctic","1019","","G","null","77","77","1","arctic-dual-task","","G","uppercase","316000","0","5","01d92d17ed0ea9d99d2bac6381808c7ee69318be66dd3daf29c6bf4568786f8d","316002","1019","77","1","arctic","","","","",""
"dual-task","null","null","null","","arctic","arctic","526","","R","null","77","77","1","arctic-dual-task","","R","uppercase","328000","0","5","01d92d17ed0ea9d99d2bac6381808c7ee69318be66dd3daf29c6bf4568786f8d","328002","526","77","1","arctic","","","","",""
"dual-task","null","null","null","","arctic","arctic","896","","t","null","88","88","1","arctic-dual-task","","t","lowercase","342000","0","5","01d92d17ed0ea9d99d2bac6381808c7ee69318be66dd3daf29c6bf4568786f8d","342002","896","88","1","arctic","","","","",""
"dual-task","null","null","null","","arctic","arctic","552","","d","null","88","88","1","arctic-dual-task","","d","lowercase","354000","0","5","01d92d17ed0ea9d99d2bac6381808c7ee69318be66dd3daf29c6bf4568786f8d","354001","552","88","1","arctic","","","","",""
"dual-task","null","null","null","","arctic","arctic","470","","B","null","77","77","1","arctic-dual-task","","B","uppercase","364000","0","5","01d92d17ed0ea9d99d2bac6381808c7ee69318be66dd3daf29c6bf4568786f8d","364000","470","77","1","arctic","","","","",""
"dual-task","null","null","null","","arctic","arctic","563","","E","null","77","77","1","arctic-dual-task","","E","uppercase","372000","0","5","01d92d17ed0ea9d99d2bac6381808c7ee69318be66dd3daf29c6bf4568786f8d","372001","563","77","1","arctic","","","","",""
"dual-task","null","null","null","","arctic","arctic","517","","f","null","88","88","1","arctic-dual-task","","f","lowercase","378000","0","5","01d92d17ed0ea9d99d2bac6381808c7ee69318be66dd3daf29c6bf4568786f8d","378001","517","88","1","arctic","","","","",""
"dual-task","null","null","null","","arctic","arctic","506","","a","null","88","88","1","arctic-dual-task","","a","lowercase","388000","0","5","01d92d17ed0ea9d99d2bac6381808c7ee69318be66dd3daf29c6bf4568786f8d","388002","506","88","1","arctic","","","","",""
"dual-task","null","null","null","","arctic","arctic","662","","T","null","77","77","1","arctic-dual-task","","T","uppercase","394000","0","5","01d92d17ed0ea9d99d2bac6381808c7ee69318be66dd3daf29c6bf4568786f8d","394002","662","77","1","arctic","","","","",""
"dual-task","null","null","null","","arctic","arctic","576","","n","null","88","88","1","arctic-dual-task","","n","lowercase","406000","0","5","01d92d17ed0ea9d99d2bac6381808c7ee69318be66dd3daf29c6bf4568786f8d","406001","576","88","1","arctic","","","","",""
"dual-task","null","null","null","","arctic","arctic","731","","a","null","88","88","1","arctic-dual-task","","a","lowercase","412000","0","5","01d92d17ed0ea9d99d2bac6381808c7ee69318be66dd3daf29c6bf4568786f8d","412000","731","88","1","arctic","","","","",""
"dual-task","null","null","null","","arctic","arctic","621","","n","null","88","88","1","arctic-dual-task","","n","lowercase","426000","0","5","01d92d17ed0ea9d99d2bac6381808c7ee69318be66dd3daf29c6bf4568786f8d","426002","621","88","1","arctic","","","","",""
"dual-task","null","null","null","","arctic","arctic","831","","Q","null","77","77","1","arctic-dual-task","","Q","uppercase","438000","0","5","01d92d17ed0ea9d99d2bac6381808c7ee69318be66dd3daf29c6bf4568786f8d","438002","831","77","1","arctic","","","","",""
"dual-task","null","null","null","","arctic","arctic","612","","b","null","88","88","1","arctic-dual-task","","b","lowercase","450000","0","5","01d92d17ed0ea9d99d2bac6381808c7ee69318be66dd3daf29c6bf4568786f8d","450001","612","88","1","arctic","","","","",""
"dual-task","null","null","null","","arctic","arctic","662","","E","null","77","77","1","arctic-dual-task","","E","uppercase","462000","0","5","01d92d17ed0ea9d99d2bac6381808c7ee69318be66dd3daf29c6bf4568786f8d","462001","662","77","1","arctic","","","","",""
"dual-task","null","null","null","","arctic","arctic","929","","Q","null","77","77","1","arctic-dual-task","","Q","uppercase","474000","0","5","01d92d17ed0ea9d99d2bac6381808c7ee69318be66dd3daf29c6bf4568786f8d","474002","929","77","1","arctic","","","","",""
"dual-task","null","null","null","","arctic","arctic","704","","B","null","77","77","1","arctic-dual-task","","B","uppercase","482000","0","5","01d92d17ed0ea9d99d2bac6381808c7ee69318be66dd3daf29c6bf4568786f8d","482002","704","77","1","arctic","","","","",""
"dual-task","null","null","null","","arctic","arctic","642","","n","null","88","88","1","arctic-dual-task","","n","lowercase","488000","0","5","01d92d17ed0ea9d99d2bac6381808c7ee69318be66dd3daf29c6bf4568786f8d","488002","642","88","1","arctic","","","","",""
"dual-task","null","null","null","","arctic","arctic","1275","","q","null","88","88","1","arctic-dual-task","","q","lowercase","494000","0","5","01d92d17ed0ea9d99d2bac6381808c7ee69318be66dd3daf29c6bf4568786f8d","494001","1275","88","1","arctic","","","","",""
"dual-task","null","null","null","","arctic","arctic","467","","T","null","77","77","1","arctic-dual-task","","T","uppercase","500000","0","5","01d92d17ed0ea9d99d2bac6381808c7ee69318be66dd3daf29c6bf4568786f8d","500002","467","77","1","arctic","","","","",""
"dual-task","null","null","null","","arctic","arctic","557","","f","null","88","88","1","arctic-dual-task","","f","lowercase","508000","0","5","01d92d17ed0ea9d99d2bac6381808c7ee69318be66dd3daf29c6bf4568786f8d","508001","557","88","1","arctic","","","","",""
"dual-task","null","null","null","","arctic","arctic","581","","G","null","77","77","1","arctic-dual-task","","G","uppercase","522000","0","5","01d92d17ed0ea9d99d2bac6381808c7ee69318be66dd3daf29c6bf4568786f8d","522000","581","77","1","arctic","","","","",""
"dual-task","null","null","null","","arctic","arctic","515","","N","null","77","77","1","arctic-dual-task","","N","uppercase","534000","0","5","01d92d17ed0ea9d99d2bac6381808c7ee69318be66dd3daf29c6bf4568786f8d","534002","515","77","1","arctic","","","","",""
"dual-task","null","null","null","","arctic","arctic","1013","","h","null","88","88","1","arctic-dual-task","","h","lowercase","546000","0","5","01d92d17ed0ea9d99d2bac6381808c7ee69318be66dd3daf29c6bf4568786f8d","546001","1013","88","1","arctic","","","","",""
"dual-task","null","null","null","","arctic","arctic","1781","","t","null","88","88","1","arctic-dual-task","","t","lowercase","560000","0","5","01d92d17ed0ea9d99d2bac6381808c7ee69318be66dd3daf29c6bf4568786f8d","560001","1781","88","1","arctic","","","","",""
"dual-task","null","null","null","","arctic","arctic","950","","d","null","88","88","1","arctic-dual-task","","d","lowercase","574000","0","5","01d92d17ed0ea9d99d2bac6381808c7ee69318be66dd3daf29c6bf4568786f8d","574001","950","88","1","arctic","","","","",""
"dual-task","null","null","null","","arctic","arctic","753","","q","null","88","88","1","arctic-dual-task","","q","lowercase","588000","0","5","01d92d17ed0ea9d99d2bac6381808c7ee69318be66dd3daf29c6bf4568786f8d","588001","753","88","1","arctic","","","","",""
"dual-task","null","null","null","","arctic","arctic","489","","g","null","88","88","1","arctic-dual-task","","g","lowercase","602000","0","5","01d92d17ed0ea9d99d2bac6381808c7ee69318be66dd3daf29c6bf4568786f8d","602000","489","88","1","arctic","","","","",""
"dual-task","null","null","null","","arctic","arctic","639","","D","null","77","77","1","arctic-dual-task","","D","uppercase","610000","0","5","01d92d17ed0ea9d99d2bac6381808c7ee69318be66dd3daf29c6bf4568786f8d","610001","639","77","1","arctic","","","","",""
"dual-task","null","null","null","","arctic","arctic","755","","N","null","88","77","0","arctic-dual-task","","N","uppercase","620000","0","5","01d92d17ed0ea9d99d2bac6381808c7ee69318be66dd3daf29c6bf4568786f8d","620001","755","88","0","arctic","","","","",""
"dual-task","null","null","null","","arctic","arctic","638","","f","null","88","88","1","arctic-dual-task","","f","lowercase","634000","0","5","01d92d17ed0ea9d99d2bac6381808c7ee69318be66dd3daf29c6bf4568786f8d","634001","638","88","1","arctic","","","","",""
"dual-task","null","null","null","","arctic","arctic","666","","q","null","88","88","1","arctic-dual-task","","q","lowercase","648000","0","5","01d92d17ed0ea9d99d2bac6381808c7ee69318be66dd3daf29c6bf4568786f8d","648001","666","88","1","arctic","","","","",""
"dual-task","null","null","null","","arctic","arctic","493","","f","null","88","88","1","arctic-dual-task","","f","lowercase","656000","0","5","01d92d17ed0ea9d99d2bac6381808c7ee69318be66dd3daf29c6bf4568786f8d","656002","493","88","1","arctic","","","","",""
"dual-task","null","null","null","","arctic","arctic","732","","A","null","77","77","1","arctic-dual-task","","A","uppercase","668000","0","5","01d92d17ed0ea9d99d2bac6381808c7ee69318be66dd3daf29c6bf4568786f8d","668002","732","77","1","arctic","","","","",""
"dual-task","null","null","null","","arctic","arctic","506","","H","null","77","77","1","arctic-dual-task","","H","uppercase","676000","0","5","01d92d17ed0ea9d99d2bac6381808c7ee69318be66dd3daf29c6bf4568786f8d","676001","506","77","1","arctic","","","","",""
"dual-task","null","null","null","","arctic","arctic","551","","D","null","77","77","1","arctic-dual-task","","D","uppercase","690000","0","5","01d92d17ed0ea9d99d2bac6381808c7ee69318be66dd3daf29c6bf4568786f8d","690003","551","77","1","arctic","","","","",""
"dual-task","null","null","null","","arctic","arctic","1173","","E","null","77","77","1","arctic-dual-task","","E","uppercase","700000","0","5","01d92d17ed0ea9d99d2bac6381808c7ee69318be66dd3daf29c6bf4568786f8d","700001","1173","77","1","arctic","","","","",""
"dual-task","null","null","null","","arctic","arctic","546","","a","null","88","88","1","arctic-dual-task","","a","lowercase","708000","0","5","01d92d17ed0ea9d99d2bac6381808c7ee69318be66dd3daf29c6bf4568786f8d","708001","546","88","1","arctic","","","","",""
"dual-task","null","null","null","","arctic","arctic","110","","T","null","77","77","1","arctic-dual-task","","T","uppercase","720000","0","5","01d92d17ed0ea9d99d2bac6381808c7ee69318be66dd3daf29c6bf4568786f8d","720002","110","77","1","arctic","","","","",""
"dual-task","null","null","null","","arctic","arctic","522","","b","null","88","88","1","arctic-dual-task","","b","lowercase","726000","0","5","01d92d17ed0ea9d99d2bac6381808c7ee69318be66dd3daf29c6bf4568786f8d","726002","522","88","1","arctic","","","","",""
"dual-task","null","null","null","","arctic","arctic","590","","r","null","77","88","0","arctic-dual-task","","r","lowercase","736000","0","5","01d92d17ed0ea9d99d2bac6381808c7ee69318be66dd3daf29c6bf4568786f8d","736001","590","77","0","arctic","","","","",""
"dual-task","null","null","null","","arctic","arctic","724","","H","null","77","77","1","arctic-dual-task","","H","uppercase","746000","0","5","01d92d17ed0ea9d99d2bac6381808c7ee69318be66dd3daf29c6bf4568786f8d","746001","724","77","1","arctic","","","","",""
"dual-task","null","null","null","","arctic","arctic","602","","F","null","77","77","1","arctic-dual-task","","F","uppercase","758000","0","5","01d92d17ed0ea9d99d2bac6381808c7ee69318be66dd3daf29c6bf4568786f8d","758001","602","77","1","arctic","","","","",""
"dual-task","null","null","null","","arctic","arctic","849","","N","null","77","77","1","arctic-dual-task","","N","uppercase","764000","0","5","01d92d17ed0ea9d99d2bac6381808c7ee69318be66dd3daf29c6bf4568786f8d","764003","849","77","1","arctic","","","","",""
"dual-task","null","null","null","","arctic","arctic","637","","Q","null","77","77","1","arctic-dual-task","","Q","uppercase","774000","0","5","01d92d17ed0ea9d99d2bac6381808c7ee69318be66dd3daf29c6bf4568786f8d","774002","637","77","1","arctic","","","","",""
"dual-task","null","null","null","","arctic","arctic","529","","N","null","77","77","1","arctic-dual-task","","N","uppercase","786000","0","5","01d92d17ed0ea9d99d2bac6381808c7ee69318be66dd3daf29c6bf4568786f8d","786002","529","77","1","arctic","","","","",""
"audio-keyboard-response","29","941732","0.0-6.0-0.0-1.0","01d92d17ed0ea9d99d2bac6381808c7ee69318be66dd3daf29c6bf4568786f8d","arctic","arctic","null","","audio/story_arctic_scrambled.mp3","","null","","","","","","","","","","","","","","","","","","","",""
"html-button-response","30","946904","0.0-6.0-0.0-2.0","01d92d17ed0ea9d99d2bac6381808c7ee69318be66dd3daf29c6bf4568786f8d","arctic","arctic","5158","","<p>This concludes the story. Thank you for listening.</p><p>You will now answer some questions about the content of the story.</p>","0","","","","","","","","","","","","","","","","","","","","",""
"survey-multi-choice","31","1020266","0.0-6.0-0.0-3.0-0.0","01d92d17ed0ea9d99d2bac6381808c7ee69318be66dd3daf29c6bf4568786f8d","arctic","arctic","73357","","<b>What did the narrator do for leisure while in her tent?</b>","","","","1","arctic-comprehension","","","","","","","","","","","","","{""Q0"":""Read""}","","","",""
"survey-multi-choice","32","1286963","0.0-6.0-0.0-3.0-0.1","01d92d17ed0ea9d99d2bac6381808c7ee69318be66dd3daf29c6bf4568786f8d","arctic","arctic","266478","","<b>How many sponsorships did the narrator receive to support her expedition?</b>","","","","1","arctic-comprehension","","","","","","","","","","","","","{""Q0"":""None""}","","","",""
"survey-multi-choice","33","1297345","0.0-6.0-0.0-3.0-0.2","01d92d17ed0ea9d99d2bac6381808c7ee69318be66dd3daf29c6bf4568786f8d","arctic","arctic","10036","","<b>What was the objective of the narrator&#39;s expedition?</b>","","","","1","arctic-comprehension","","","","","","","","","","","","","{""Q0"":""Dogsled across Arctic America""}","","","",""
"survey-multi-choice","34","1304431","0.0-6.0-0.0-3.0-0.3","01d92d17ed0ea9d99d2bac6381808c7ee69318be66dd3daf29c6bf4568786f8d","arctic","arctic","6834","","<b>How did the dogs respond when they saw the bears?</b>","","","","0","arctic-comprehension","","","","","","","","","","","","","{""Q0"":""Barked aggressively""}","","","",""
"survey-multi-choice","35","1314598","0.0-6.0-0.0-3.0-0.4","01d92d17ed0ea9d99d2bac6381808c7ee69318be66dd3daf29c6bf4568786f8d","arctic","arctic","9914","","<b>What is the name of the narrator&#39;s neighbour?</b>","","","","0","arctic-comprehension","","","","","","","","","","","","","{""Q0"":""Alan""}","","","",""
"survey-multi-choice","36","1324326","0.0-6.0-0.0-3.0-0.5","01d92d17ed0ea9d99d2bac6381808c7ee69318be66dd3daf29c6bf4568786f8d","arctic","arctic","9478","","<b>How did the narrator&#39;s encounter with the polar bears end?</b>","","","","0","arctic-comprehension","","","","","","","","","","","","","{""Q0"":""She shot the bear with her shotgun.""}","","","",""
"survey-multi-choice","37","1331458","0.0-6.0-0.0-3.0-0.6","01d92d17ed0ea9d99d2bac6381808c7ee69318be66dd3daf29c6bf4568786f8d","arctic","arctic","6873","","<b>How did the narrator prepare for her expedition?</b>","","","","1","arctic-comprehension","","","","","","","","","","","","","{""Q0"":""Trained in Alaska learning how to dogsled""}","","","",""
"survey-multi-choice","38","1339204","0.0-6.0-0.0-3.0-0.7","01d92d17ed0ea9d99d2bac6381808c7ee69318be66dd3daf29c6bf4568786f8d","arctic","arctic","7495","","<b>What were the weather conditions in the Arctic like the winter of the narrator&#39;s expedition?</b>","","","","0","arctic-comprehension","","","","","","","","","","","","","{""Q0"":""There were fewer storms than any other winter in recorded history.""}","","","",""
"survey-multi-choice","39","1348249","0.0-6.0-0.0-3.0-0.8","01d92d17ed0ea9d99d2bac6381808c7ee69318be66dd3daf29c6bf4568786f8d","arctic","arctic","8794","","<b>Which dog on the narrator&#39;s dog team never followed instructions?</b>","","","","0","arctic-comprehension","","","","","","","","","","","","","{""Q0"":""Douggie-dog""}","","","",""
"survey-multi-choice","40","1354854","0.0-6.0-0.0-3.0-0.9","01d92d17ed0ea9d99d2bac6381808c7ee69318be66dd3daf29c6bf4568786f8d","arctic","arctic","6381","","<b>How did the narrator&#39;s neighbour respond when she told him about her expedition?</b>","","","","1","arctic-comprehension","","","","","","","","","","","","","{""Q0"":""He said she was going to fail.""}","","","",""
"html-button-response","41","1357298","0.0-6.0-0.0-4.0","01d92d17ed0ea9d99d2bac6381808c7ee69318be66dd3daf29c6bf4568786f8d","arctic","arctic","2192","","<p>Thank you for your responses.</p><p>You will now answer some questions about your impressions of the story.</p>","0","","","","","","","","","","","","","","","","","","","","",""
"html-button-response","42","1361955","0.0-6.0-0.0-5.0-0.0","01d92d17ed0ea9d99d2bac6381808c7ee69318be66dd3daf29c6bf4568786f8d","arctic","arctic","4657","","A1","5","","","","arctic-engagement","","","","","","","","","","","","","","6","absorption","",""
"html-button-response","43","1364432","0.0-6.0-0.0-5.0-0.1","01d92d17ed0ea9d99d2bac6381808c7ee69318be66dd3daf29c6bf4568786f8d","arctic","arctic","2224","","E8","1","","","","arctic-engagement","","","","","","","","","","","","","","2","enjoyment","",""
"html-button-response","44","1367581","0.0-6.0-0.0-5.0-0.2","01d92d17ed0ea9d99d2bac6381808c7ee69318be66dd3daf29c6bf4568786f8d","arctic","arctic","2892","","A4","5","","","","arctic-engagement","","","","","","","","","","","","","","6","absorption","",""
"html-button-response","45","1369785","0.0-6.0-0.0-5.0-0.3","01d92d17ed0ea9d99d2bac6381808c7ee69318be66dd3daf29c6bf4568786f8d","arctic","arctic","1953","","E7","6","","","","arctic-engagement","","","","","","","","","","","","","","7","enjoyment","",""
"html-button-response","46","1371821","0.0-6.0-0.0-5.0-0.4","01d92d17ed0ea9d99d2bac6381808c7ee69318be66dd3daf29c6bf4568786f8d","arctic","arctic","1784","","EE1","4","","","","arctic-engagement","","","","","","","","","","","","","","5","emo-engage","",""
"html-button-response","47","1373920","0.0-6.0-0.0-5.0-0.5","01d92d17ed0ea9d99d2bac6381808c7ee69318be66dd3daf29c6bf4568786f8d","arctic","arctic","1847","","E10","3","","","","arctic-engagement","","","","","","","","","","","","","","4","enjoyment","",""
"html-button-response","48","1376371","0.0-6.0-0.0-5.0-0.6","01d92d17ed0ea9d99d2bac6381808c7ee69318be66dd3daf29c6bf4568786f8d","arctic","arctic","2200","","MS1","5","","","","arctic-engagement","","","","","","","","","","","","","","6","mental-sim","",""
"html-button-response","49","1378231","0.0-6.0-0.0-5.0-0.7","01d92d17ed0ea9d99d2bac6381808c7ee69318be66dd3daf29c6bf4568786f8d","arctic","arctic","1562","","A5","2","","","","arctic-engagement","","","","","","","","","","","","","","3","absorption","",""
"html-button-response","50","1380367","0.0-6.0-0.0-5.0-0.8","01d92d17ed0ea9d99d2bac6381808c7ee69318be66dd3daf29c6bf4568786f8d","arctic","arctic","1835","","EE3","1","","","","arctic-engagement","","","","","","","","","","","","","","2","emo-engage","",""
"html-button-response","51","1382952","0.0-6.0-0.0-5.0-0.9","01d92d17ed0ea9d99d2bac6381808c7ee69318be66dd3daf29c6bf4568786f8d","arctic","arctic","2269","","EE4","0","","","","arctic-engagement","","","","","","","","","","","","","","1","emo-engage","",""
"html-button-response","52","1385361","0.0-6.0-0.0-5.0-0.10","01d92d17ed0ea9d99d2bac6381808c7ee69318be66dd3daf29c6bf4568786f8d","arctic","arctic","2114","","A3","4","","","","arctic-engagement","","","","","","","","","","","","","","5","absorption","",""
"html-button-response","53","1386988","0.0-6.0-0.0-5.0-0.11","01d92d17ed0ea9d99d2bac6381808c7ee69318be66dd3daf29c6bf4568786f8d","arctic","arctic","1336","","MS3","1","","","","arctic-engagement","","","","","","","","","","","","","","2","mental-sim","",""
"html-button-response","54","1389030","0.0-6.0-0.0-5.0-0.12","01d92d17ed0ea9d99d2bac6381808c7ee69318be66dd3daf29c6bf4568786f8d","arctic","arctic","1745","","EE2","5","","","","arctic-engagement","","","","","","","","","","","","","","6","emo-engage","",""
"html-button-response","55","1390743","0.0-6.0-0.0-5.0-0.13","01d92d17ed0ea9d99d2bac6381808c7ee69318be66dd3daf29c6bf4568786f8d","arctic","arctic","1463","","MS2","2","","","","arctic-engagement","","","","","","","","","","","","","","3","mental-sim","",""
"html-button-response","56","1392913","0.0-6.0-0.0-5.0-0.14","01d92d17ed0ea9d99d2bac6381808c7ee69318be66dd3daf29c6bf4568786f8d","arctic","arctic","1918","","E1","3","","","","arctic-engagement","","","","","","","","","","","","","","4","enjoyment","",""
"html-button-response","57","1394618","0.0-6.0-0.0-5.0-0.15","01d92d17ed0ea9d99d2bac6381808c7ee69318be66dd3daf29c6bf4568786f8d","arctic","arctic","1454","","E6","4","","","","arctic-engagement","","","","","","","","","","","","","","5","enjoyment","",""
"html-button-response","58","1396735","0.0-6.0-0.0-5.0-0.16","01d92d17ed0ea9d99d2bac6381808c7ee69318be66dd3daf29c6bf4568786f8d","arctic","arctic","1865","","A2","6","","","","arctic-engagement","","","","","","","","","","","","","","7","absorption","",""
"html-button-response","59","1399024","0.0-6.0-0.0-5.0-0.17","01d92d17ed0ea9d99d2bac6381808c7ee69318be66dd3daf29c6bf4568786f8d","arctic","arctic","2037","","EE5","3","","","","arctic-engagement","","","","","","","","","","","","","","4","emo-engage","",""
"html-keyboard-response","60","1410296","0.0-6.0-1.0","01d92d17ed0ea9d99d2bac6381808c7ee69318be66dd3daf29c6bf4568786f8d","arctic","arctic","11019","","<p>Thank you for your responses. You will now listen to the second story.</p><p>Remember, as you listen to the story you will see letters appear on the screen.</br>As quickly as possible, press <b>&lt;x&gt;</b> if the letter is lowercase and <b>&lt;m&gt;</b> if the letter is uppercase.</p><p>Press <b>&lt;x&gt;</b> or <b>&lt;m&gt;</b> to begin listening!</p>","","88","","","","","","","","","","","","","","","","","","","",""
"html-keyboard-response","61","1410727","0.0-6.0-2.0-0.0","01d92d17ed0ea9d99d2bac6381808c7ee69318be66dd3daf29c6bf4568786f8d","arctic","arctic","null","","<div style=""font-size:60px;"" tabindex=""0"">+</div>","","null","","","","","","","","","","","","","","","","","","","",""
"dual-task","null","null","null","","arctic","arctic","1163","","N","null","77","77","1","swim-dual-task","","N","uppercase","16000","0","5","01d92d17ed0ea9d99d2bac6381808c7ee69318be66dd3daf29c6bf4568786f8d","16000","1163","77","1","swim","","","","",""
"dual-task","null","null","null","","arctic","arctic","1117","","d","null","88","88","1","swim-dual-task","","d","lowercase","26000","0","5","01d92d17ed0ea9d99d2bac6381808c7ee69318be66dd3daf29c6bf4568786f8d","26000","1117","88","1","swim","","","","",""
"dual-task","null","null","null","","arctic","arctic","1247","","h","null","88","88","1","swim-dual-task","","h","lowercase","38000","0","5","01d92d17ed0ea9d99d2bac6381808c7ee69318be66dd3daf29c6bf4568786f8d","37999","1247","88","1","swim","","","","",""
"dual-task","null","null","null","","arctic","arctic","NA","","r","null","NA","88","0","swim-dual-task","","r","lowercase","48000","1","5","01d92d17ed0ea9d99d2bac6381808c7ee69318be66dd3daf29c6bf4568786f8d","48000","NA","NA","0","swim","","","","",""
"dual-task","null","null","null","","arctic","arctic","1233","","b","null","88","88","1","swim-dual-task","","b","lowercase","54000","0","5","01d92d17ed0ea9d99d2bac6381808c7ee69318be66dd3daf29c6bf4568786f8d","54000","1233","88","1","swim","","","","",""
"dual-task","null","null","null","","arctic","arctic","1308","","b","null","88","88","1","swim-dual-task","","b","lowercase","64000","0","5","01d92d17ed0ea9d99d2bac6381808c7ee69318be66dd3daf29c6bf4568786f8d","64000","1308","88","1","swim","","","","",""
"dual-task","null","null","null","","arctic","arctic","1067","","G","null","77","77","1","swim-dual-task","","G","uppercase","74000","0","5","01d92d17ed0ea9d99d2bac6381808c7ee69318be66dd3daf29c6bf4568786f8d","74000","1067","77","1","swim","","","","",""
"dual-task","null","null","null","","arctic","arctic","1391","","H","null","77","77","1","swim-dual-task","","H","uppercase","80000","0","5","01d92d17ed0ea9d99d2bac6381808c7ee69318be66dd3daf29c6bf4568786f8d","80000","1391","77","1","swim","","","","",""
"dual-task","null","null","null","","arctic","arctic","934","","g","null","88","88","1","swim-dual-task","","g","lowercase","92000","0","5","01d92d17ed0ea9d99d2bac6381808c7ee69318be66dd3daf29c6bf4568786f8d","92000","934","88","1","swim","","","","",""
"dual-task","null","null","null","","arctic","arctic","1111","","A","null","77","77","1","swim-dual-task","","A","uppercase","104000","0","5","01d92d17ed0ea9d99d2bac6381808c7ee69318be66dd3daf29c6bf4568786f8d","104000","1111","77","1","swim","","","","",""
"dual-task","null","null","null","","arctic","arctic","1040","","E","null","77","77","1","swim-dual-task","","E","uppercase","112000","0","5","01d92d17ed0ea9d99d2bac6381808c7ee69318be66dd3daf29c6bf4568786f8d","112000","1040","77","1","swim","","","","",""
"dual-task","null","null","null","","arctic","arctic","1168","","F","null","77","77","1","swim-dual-task","","F","uppercase","126000","0","5","01d92d17ed0ea9d99d2bac6381808c7ee69318be66dd3daf29c6bf4568786f8d","125999","1168","77","1","swim","","","","",""
"dual-task","null","null","null","","arctic","arctic","NA","","a","null","NA","88","0","swim-dual-task","","a","lowercase","138000","1","5","01d92d17ed0ea9d99d2bac6381808c7ee69318be66dd3daf29c6bf4568786f8d","138001","NA","NA","0","swim","","","","",""
"dual-task","null","null","null","","arctic","arctic","NA","","A","null","NA","77","0","swim-dual-task","","A","uppercase","144000","1","5","01d92d17ed0ea9d99d2bac6381808c7ee69318be66dd3daf29c6bf4568786f8d","144000","NA","NA","0","swim","","","","",""
"dual-task","null","null","null","","arctic","arctic","1051","","r","null","88","88","1","swim-dual-task","","r","lowercase","156000","0","5","01d92d17ed0ea9d99d2bac6381808c7ee69318be66dd3daf29c6bf4568786f8d","155999","1051","88","1","swim","","","","",""
"dual-task","null","null","null","","arctic","arctic","1642","","R","null","77","77","1","swim-dual-task","","R","uppercase","168000","0","5","01d92d17ed0ea9d99d2bac6381808c7ee69318be66dd3daf29c6bf4568786f8d","168000","1642","77","1","swim","","","","",""
"dual-task","null","null","null","","arctic","arctic","1783","","N","null","77","77","1","swim-dual-task","","N","uppercase","178000","0","5","01d92d17ed0ea9d99d2bac6381808c7ee69318be66dd3daf29c6bf4568786f8d","177999","1783","77","1","swim","","","","",""
"dual-task","null","null","null","","arctic","arctic","NA","","A","null","NA","77","0","swim-dual-task","","A","uppercase","186000","1","5","01d92d17ed0ea9d99d2bac6381808c7ee69318be66dd3daf29c6bf4568786f8d","186002","NA","NA","0","swim","","","","",""
"dual-task","null","null","null","","arctic","arctic","611","","q","null","88","88","1","swim-dual-task","","q","lowercase","194000","0","5","01d92d17ed0ea9d99d2bac6381808c7ee69318be66dd3daf29c6bf4568786f8d","194000","611","88","1","swim","","","","",""
"dual-task","null","null","null","","arctic","arctic","540","","N","null","77","77","1","swim-dual-task","","N","uppercase","204000","0","5","01d92d17ed0ea9d99d2bac6381808c7ee69318be66dd3daf29c6bf4568786f8d","204000","540","77","1","swim","","","","",""
"dual-task","null","null","null","","arctic","arctic","556","","Q","null","77","77","1","swim-dual-task","","Q","uppercase","212000","0","5","01d92d17ed0ea9d99d2bac6381808c7ee69318be66dd3daf29c6bf4568786f8d","212000","556","77","1","swim","","","","",""
"dual-task","null","null","null","","arctic","arctic","426","","R","null","77","77","1","swim-dual-task","","R","uppercase","224000","0","5","01d92d17ed0ea9d99d2bac6381808c7ee69318be66dd3daf29c6bf4568786f8d","224002","426","77","1","swim","","","","",""
"dual-task","null","null","null","","arctic","arctic","480","","E","null","77","77","1","swim-dual-task","","E","uppercase","236000","0","5","01d92d17ed0ea9d99d2bac6381808c7ee69318be66dd3daf29c6bf4568786f8d","235999","480","77","1","swim","","","","",""
"dual-task","null","null","null","","arctic","arctic","543","","F","null","77","77","1","swim-dual-task","","F","uppercase","248000","0","5","01d92d17ed0ea9d99d2bac6381808c7ee69318be66dd3daf29c6bf4568786f8d","247999","543","77","1","swim","","","","",""
"dual-task","null","null","null","","arctic","arctic","1733","","t","null","88","88","1","swim-dual-task","","t","lowercase","254000","0","5","01d92d17ed0ea9d99d2bac6381808c7ee69318be66dd3daf29c6bf4568786f8d","253999","1733","88","1","swim","","","","",""
"dual-task","null","null","null","","arctic","arctic","527","","h","null","88","88","1","swim-dual-task","","h","lowercase","266000","0","5","01d92d17ed0ea9d99d2bac6381808c7ee69318be66dd3daf29c6bf4568786f8d","266000","527","88","1","swim","","","","",""
"dual-task","null","null","null","","arctic","arctic","549","","f","null","88","88","1","swim-dual-task","","f","lowercase","276000","0","5","01d92d17ed0ea9d99d2bac6381808c7ee69318be66dd3daf29c6bf4568786f8d","276000","549","88","1","swim","","","","",""
"dual-task","null","null","null","","arctic","arctic","503","","d","null","88","88","1","swim-dual-task","","d","lowercase","290000","0","5","01d92d17ed0ea9d99d2bac6381808c7ee69318be66dd3daf29c6bf4568786f8d","290000","503","88","1","swim","","","","",""
"dual-task","null","null","null","","arctic","arctic","584","","D","null","77","77","1","swim-dual-task","","D","uppercase","298000","0","5","01d92d17ed0ea9d99d2bac6381808c7ee69318be66dd3daf29c6bf4568786f8d","298000","584","77","1","swim","","","","",""
"dual-task","null","null","null","","arctic","arctic","696","","Q","null","77","77","1","swim-dual-task","","Q","uppercase","308000","0","5","01d92d17ed0ea9d99d2bac6381808c7ee69318be66dd3daf29c6bf4568786f8d","308001","696","77","1","swim","","","","",""
"dual-task","null","null","null","","arctic","arctic","687","","T","null","77","77","1","swim-dual-task","","T","uppercase","320000","0","5","01d92d17ed0ea9d99d2bac6381808c7ee69318be66dd3daf29c6bf4568786f8d","320002","687","77","1","swim","","","","",""
"dual-task","null","null","null","","arctic","arctic","734","","T","null","77","77","1","swim-dual-task","","T","uppercase","332000","0","5","01d92d17ed0ea9d99d2bac6381808c7ee69318be66dd3daf29c6bf4568786f8d","332001","734","77","1","swim","","","","",""
"dual-task","null","null","null","","arctic","arctic","626","","g","null","88","88","1","swim-dual-task","","g","lowercase","342000","0","5","01d92d17ed0ea9d99d2bac6381808c7ee69318be66dd3daf29c6bf4568786f8d","342000","626","88","1","swim","","","","",""
"dual-task","null","null","null","","arctic","arctic","860","","g","null","88","88","1","swim-dual-task","","g","lowercase","354000","0","5","01d92d17ed0ea9d99d2bac6381808c7ee69318be66dd3daf29c6bf4568786f8d","354000","860","88","1","swim","","","","",""
"dual-task","null","null","null","","arctic","arctic","770","","n","null","88","88","1","swim-dual-task","","n","lowercase","362000","0","5","01d92d17ed0ea9d99d2bac6381808c7ee69318be66dd3daf29c6bf4568786f8d","362001","770","88","1","swim","","","","",""
"dual-task","null","null","null","","arctic","arctic","779","","t","null","88","88","1","swim-dual-task","","t","lowercase","370000","0","5","01d92d17ed0ea9d99d2bac6381808c7ee69318be66dd3daf29c6bf4568786f8d","370000","779","88","1","swim","","","","",""
"dual-task","null","null","null","","arctic","arctic","831","","f","null","88","88","1","swim-dual-task","","f","lowercase","380000","0","5","01d92d17ed0ea9d99d2bac6381808c7ee69318be66dd3daf29c6bf4568786f8d","379999","831","88","1","swim","","","","",""
"dual-task","null","null","null","","arctic","arctic","626","","d","null","88","88","1","swim-dual-task","","d","lowercase","388000","0","5","01d92d17ed0ea9d99d2bac6381808c7ee69318be66dd3daf29c6bf4568786f8d","388005","626","88","1","swim","","","","",""
"dual-task","null","null","null","","arctic","arctic","698","","e","null","88","88","1","swim-dual-task","","e","lowercase","402000","0","5","01d92d17ed0ea9d99d2bac6381808c7ee69318be66dd3daf29c6bf4568786f8d","401999","698","88","1","swim","","","","",""
"dual-task","null","null","null","","arctic","arctic","1228","","H","null","77","77","1","swim-dual-task","","H","uppercase","412000","0","5","01d92d17ed0ea9d99d2bac6381808c7ee69318be66dd3daf29c6bf4568786f8d","411999","1228","77","1","swim","","","","",""
"dual-task","null","null","null","","arctic","arctic","497","","d","null","88","88","1","swim-dual-task","","d","lowercase","422000","0","5","01d92d17ed0ea9d99d2bac6381808c7ee69318be66dd3daf29c6bf4568786f8d","422000","497","88","1","swim","","","","",""
"dual-task","null","null","null","","arctic","arctic","493","","n","null","88","88","1","swim-dual-task","","n","lowercase","432000","0","5","01d92d17ed0ea9d99d2bac6381808c7ee69318be66dd3daf29c6bf4568786f8d","432000","493","88","1","swim","","","","",""
"dual-task","null","null","null","","arctic","arctic","503","","g","null","88","88","1","swim-dual-task","","g","lowercase","444000","0","5","01d92d17ed0ea9d99d2bac6381808c7ee69318be66dd3daf29c6bf4568786f8d","444000","503","88","1","swim","","","","",""
"dual-task","null","null","null","","arctic","arctic","541","","b","null","88","88","1","swim-dual-task","","b","lowercase","450000","0","5","01d92d17ed0ea9d99d2bac6381808c7ee69318be66dd3daf29c6bf4568786f8d","450000","541","88","1","swim","","","","",""
"dual-task","null","null","null","","arctic","arctic","680","","q","null","88","88","1","swim-dual-task","","q","lowercase","464000","0","5","01d92d17ed0ea9d99d2bac6381808c7ee69318be66dd3daf29c6bf4568786f8d","464000","680","88","1","swim","","","","",""
"dual-task","null","null","null","","arctic","arctic","625","","G","null","77","77","1","swim-dual-task","","G","uppercase","470000","0","5","01d92d17ed0ea9d99d2bac6381808c7ee69318be66dd3daf29c6bf4568786f8d","470001","625","77","1","swim","","","","",""
"dual-task","null","null","null","","arctic","arctic","512","","G","null","77","77","1","swim-dual-task","","G","uppercase","482000","0","5","01d92d17ed0ea9d99d2bac6381808c7ee69318be66dd3daf29c6bf4568786f8d","482000","512","77","1","swim","","","","",""
"dual-task","null","null","null","","arctic","arctic","580","","b","null","88","88","1","swim-dual-task","","b","lowercase","490000","0","5","01d92d17ed0ea9d99d2bac6381808c7ee69318be66dd3daf29c6bf4568786f8d","490000","580","88","1","swim","","","","",""
"dual-task","null","null","null","","arctic","arctic","484","","H","null","77","77","1","swim-dual-task","","H","uppercase","500000","0","5","01d92d17ed0ea9d99d2bac6381808c7ee69318be66dd3daf29c6bf4568786f8d","500000","484","77","1","swim","","","","",""
"dual-task","null","null","null","","arctic","arctic","645","","f","null","88","88","1","swim-dual-task","","f","lowercase","506000","0","5","01d92d17ed0ea9d99d2bac6381808c7ee69318be66dd3daf29c6bf4568786f8d","506001","645","88","1","swim","","","","",""
"dual-task","null","null","null","","arctic","arctic","713","","B","null","77","77","1","swim-dual-task","","B","uppercase","516000","0","5","01d92d17ed0ea9d99d2bac6381808c7ee69318be66dd3daf29c6bf4568786f8d","516000","713","77","1","swim","","","","",""
"dual-task","null","null","null","","arctic","arctic","595","","B","null","77","77","1","swim-dual-task","","B","uppercase","530000","0","5","01d92d17ed0ea9d99d2bac6381808c7ee69318be66dd3daf29c6bf4568786f8d","530001","595","77","1","swim","","","","",""
"dual-task","null","null","null","","arctic","arctic","588","","T","null","77","77","1","swim-dual-task","","T","uppercase","542000","0","5","01d92d17ed0ea9d99d2bac6381808c7ee69318be66dd3daf29c6bf4568786f8d","542000","588","77","1","swim","","","","",""
"dual-task","null","null","null","","arctic","arctic","563","","r","null","88","88","1","swim-dual-task","","r","lowercase","552000","0","5","01d92d17ed0ea9d99d2bac6381808c7ee69318be66dd3daf29c6bf4568786f8d","552000","563","88","1","swim","","","","",""
"dual-task","null","null","null","","arctic","arctic","544","","e","null","88","88","1","swim-dual-task","","e","lowercase","564000","0","5","01d92d17ed0ea9d99d2bac6381808c7ee69318be66dd3daf29c6bf4568786f8d","563999","544","88","1","swim","","","","",""
"dual-task","null","null","null","","arctic","arctic","679","","e","null","88","88","1","swim-dual-task","","e","lowercase","572000","0","5","01d92d17ed0ea9d99d2bac6381808c7ee69318be66dd3daf29c6bf4568786f8d","572000","679","88","1","swim","","","","",""
"dual-task","null","null","null","","arctic","arctic","566","","a","null","88","88","1","swim-dual-task","","a","lowercase","586000","0","5","01d92d17ed0ea9d99d2bac6381808c7ee69318be66dd3daf29c6bf4568786f8d","586000","566","88","1","swim","","","","",""
"dual-task","null","null","null","","arctic","arctic","573","","t","null","88","88","1","swim-dual-task","","t","lowercase","598000","0","5","01d92d17ed0ea9d99d2bac6381808c7ee69318be66dd3daf29c6bf4568786f8d","598001","573","88","1","swim","","","","",""
"dual-task","null","null","null","","arctic","arctic","553","","H","null","77","77","1","swim-dual-task","","H","uppercase","610000","0","5","01d92d17ed0ea9d99d2bac6381808c7ee69318be66dd3daf29c6bf4568786f8d","610000","553","77","1","swim","","","","",""
"dual-task","null","null","null","","arctic","arctic","511","","T","null","77","77","1","swim-dual-task","","T","uppercase","616000","0","5","01d92d17ed0ea9d99d2bac6381808c7ee69318be66dd3daf29c6bf4568786f8d","616001","511","77","1","swim","","","","",""
"dual-task","null","null","null","","arctic","arctic","811","","D","null","77","77","1","swim-dual-task","","D","uppercase","630000","0","5","01d92d17ed0ea9d99d2bac6381808c7ee69318be66dd3daf29c6bf4568786f8d","629999","811","77","1","swim","","","","",""
"dual-task","null","null","null","","arctic","arctic","864","","R","null","77","77","1","swim-dual-task","","R","uppercase","642000","0","5","01d92d17ed0ea9d99d2bac6381808c7ee69318be66dd3daf29c6bf4568786f8d","642000","864","77","1","swim","","","","",""
"dual-task","null","null","null","","arctic","arctic","491","","D","null","77","77","1","swim-dual-task","","D","uppercase","650000","0","5","01d92d17ed0ea9d99d2bac6381808c7ee69318be66dd3daf29c6bf4568786f8d","649999","491","77","1","swim","","","","",""
"dual-task","null","null","null","","arctic","arctic","496","","r","null","88","88","1","swim-dual-task","","r","lowercase","658000","0","5","01d92d17ed0ea9d99d2bac6381808c7ee69318be66dd3daf29c6bf4568786f8d","658001","496","88","1","swim","","","","",""
"dual-task","null","null","null","","arctic","arctic","691","","h","null","88","88","1","swim-dual-task","","h","lowercase","666000","0","5","01d92d17ed0ea9d99d2bac6381808c7ee69318be66dd3daf29c6bf4568786f8d","666001","691","88","1","swim","","","","",""
"dual-task","null","null","null","","arctic","arctic","707","","a","null","88","88","1","swim-dual-task","","a","lowercase","674000","0","5","01d92d17ed0ea9d99d2bac6381808c7ee69318be66dd3daf29c6bf4568786f8d","674001","707","88","1","swim","","","","",""
"dual-task","null","null","null","","arctic","arctic","656","","N","null","77","77","1","swim-dual-task","","N","uppercase","684000","0","5","01d92d17ed0ea9d99d2bac6381808c7ee69318be66dd3daf29c6bf4568786f8d","684000","656","77","1","swim","","","","",""
"dual-task","null","null","null","","arctic","arctic","543","","D","null","77","77","1","swim-dual-task","","D","uppercase","696000","0","5","01d92d17ed0ea9d99d2bac6381808c7ee69318be66dd3daf29c6bf4568786f8d","696001","543","77","1","swim","","","","",""
"dual-task","null","null","null","","arctic","arctic","560","","n","null","88","88","1","swim-dual-task","","n","lowercase","702000","0","5","01d92d17ed0ea9d99d2bac6381808c7ee69318be66dd3daf29c6bf4568786f8d","702000","560","88","1","swim","","","","",""
"dual-task","null","null","null","","arctic","arctic","477","","q","null","88","88","1","swim-dual-task","","q","lowercase","716000","0","5","01d92d17ed0ea9d99d2bac6381808c7ee69318be66dd3daf29c6bf4568786f8d","716001","477","88","1","swim","","","","",""
"dual-task","null","null","null","","arctic","arctic","581","","E","null","77","77","1","swim-dual-task","","E","uppercase","726000","0","5","01d92d17ed0ea9d99d2bac6381808c7ee69318be66dd3daf29c6bf4568786f8d","726002","581","77","1","swim","","","","",""
"dual-task","null","null","null","","arctic","arctic","633","","Q","null","77","77","1","swim-dual-task","","Q","uppercase","732000","0","5","01d92d17ed0ea9d99d2bac6381808c7ee69318be66dd3daf29c6bf4568786f8d","732005","633","77","1","swim","","","","",""
"dual-task","null","null","null","","arctic","arctic","592","","E","null","77","77","1","swim-dual-task","","E","uppercase","740000","0","5","01d92d17ed0ea9d99d2bac6381808c7ee69318be66dd3daf29c6bf4568786f8d","740000","592","77","1","swim","","","","",""
"dual-task","null","null","null","","arctic","arctic","1242","","e","null","88","88","1","swim-dual-task","","e","lowercase","752000","0","5","01d92d17ed0ea9d99d2bac6381808c7ee69318be66dd3daf29c6bf4568786f8d","752001","1242","88","1","swim","","","","",""
"dual-task","null","null","null","","arctic","arctic","635","","A","null","77","77","1","swim-dual-task","","A","uppercase","764000","0","5","01d92d17ed0ea9d99d2bac6381808c7ee69318be66dd3daf29c6bf4568786f8d","764000","635","77","1","swim","","","","",""
"dual-task","null","null","null","","arctic","arctic","464","","F","null","77","77","1","swim-dual-task","","F","uppercase","776000","0","5","01d92d17ed0ea9d99d2bac6381808c7ee69318be66dd3daf29c6bf4568786f8d","776000","464","77","1","swim","","","","",""
"dual-task","null","null","null","","arctic","arctic","1226","","a","null","88","88","1","swim-dual-task","","a","lowercase","786000","0","5","01d92d17ed0ea9d99d2bac6381808c7ee69318be66dd3daf29c6bf4568786f8d","786000","1226","88","1","swim","","","","",""
"dual-task","null","null","null","","arctic","arctic","594","","n","null","88","88","1","swim-dual-task","","n","lowercase","798000","0","5","01d92d17ed0ea9d99d2bac6381808c7ee69318be66dd3daf29c6bf4568786f8d","798000","594","88","1","swim","","","","",""
"audio-keyboard-response","62","2219153","0.0-6.0-2.0-1.0","01d92d17ed0ea9d99d2bac6381808c7ee69318be66dd3daf29c6bf4568786f8d","arctic","arctic","null","","audio/story_swim.mp3","","null","","","","","","","","","","","","","","","","","","","",""
"html-button-response","63","2221640","0.0-6.0-2.0-2.0","01d92d17ed0ea9d99d2bac6381808c7ee69318be66dd3daf29c6bf4568786f8d","arctic","arctic","2485","","<p>This concludes the story. Thank you for listening.</p><p>You will now answer some questions about the content of the story.</p>","0","","","","","","","","","","","","","","","","","","","","",""
"survey-multi-choice","64","2233458","0.0-6.0-2.0-3.0-0.0","01d92d17ed0ea9d99d2bac6381808c7ee69318be66dd3daf29c6bf4568786f8d","arctic","arctic","11816","","<b>How did the narrator train for his swim test?</b>","","","","1","swim-comprehension","","","","","","","","","","","","","{""Q0"":""Took his kids to the pool every day""}","","","",""
"survey-multi-choice","65","2241533","0.0-6.0-2.0-3.0-0.1","01d92d17ed0ea9d99d2bac6381808c7ee69318be66dd3daf29c6bf4568786f8d","arctic","arctic","7773","","<b>What is the narrator afraid of, aside from the water?</b>","","","","1","swim-comprehension","","","","","","","","","","","","","{""Q0"":""Heights""}","","","",""
"survey-multi-choice","66","2249737","0.0-6.0-2.0-3.0-0.2","01d92d17ed0ea9d99d2bac6381808c7ee69318be66dd3daf29c6bf4568786f8d","arctic","arctic","7952","","<b>What gave the narrator his greatest feeling of accomplishment?</b>","","","","1","swim-comprehension","","","","","","","","","","","","","{""Q0"":""Passing the water survival course""}","","","",""
"survey-multi-choice","67","2346098","0.0-6.0-2.0-3.0-0.3","01d92d17ed0ea9d99d2bac6381808c7ee69318be66dd3daf29c6bf4568786f8d","arctic","arctic","96104","","<b>How many astronaut candidates reported for duty at the Johnson Space Center?</b>","","","","1","swim-comprehension","","","","","","","","","","","","","{""Q0"":""Forty-four""}","","","",""
"survey-multi-choice","68","2354695","0.0-6.0-2.0-3.0-0.4","01d92d17ed0ea9d99d2bac6381808c7ee69318be66dd3daf29c6bf4568786f8d","arctic","arctic","8286","","<b>How often does the narrator swim, now that he is a good swimmer?</b>","","","","0","swim-comprehension","","","","","","","","","","","","","{""Q0"":""Every weekend with his kids""}","","","",""
"survey-multi-choice","69","2362347","0.0-6.0-2.0-3.0-0.5","01d92d17ed0ea9d99d2bac6381808c7ee69318be66dd3daf29c6bf4568786f8d","arctic","arctic","7400","","<b>What was the final step of the first swim test in the pool?</b>","","","","1","swim-comprehension","","","","","","","","","","","","","{""Q0"":""Tread water with hands above the water""}","","","",""
"survey-multi-choice","70","2369089","0.0-6.0-2.0-3.0-0.6","01d92d17ed0ea9d99d2bac6381808c7ee69318be66dd3daf29c6bf4568786f8d","arctic","arctic","6488","","<b>What were the astronaut candidates trained to do at the naval air station?</b>","","","","1","swim-comprehension","","","","","","","","","","","","","{""Q0"":""Eject out of aircraft and survive in water long enough to be rescued""}","","","",""
"survey-multi-choice","71","2498364","0.0-6.0-2.0-3.0-0.7","01d92d17ed0ea9d99d2bac6381808c7ee69318be66dd3daf29c6bf4568786f8d","arctic","arctic","129024","","<b>How many astronaut candidates passed the first swim test?</b>","","","","0","swim-comprehension","","","","","","","","","","","","","{""Q0"":""None""}","","","",""
"survey-multi-choice","72","2504708","0.0-6.0-2.0-3.0-0.8","01d92d17ed0ea9d99d2bac6381808c7ee69318be66dd3daf29c6bf4568786f8d","arctic","arctic","6092","","<b>How many times did the astronaut candidates have to complete the final exercise to pass?</b>","","","","1","swim-comprehension","","","","","","","","","","","","","{""Q0"":""Two""}","","","",""
"survey-multi-choice","73","2508305","0.0-6.0-2.0-3.0-0.9","01d92d17ed0ea9d99d2bac6381808c7ee69318be66dd3daf29c6bf4568786f8d","arctic","arctic","3345","","<b>Where is the home of naval aviation?</b>","","","","1","swim-comprehension","","","","","","","","","","","","","{""Q0"":""Pensacola""}","","","",""
"html-button-response","74","2510626","0.0-6.0-2.0-4.0","01d92d17ed0ea9d99d2bac6381808c7ee69318be66dd3daf29c6bf4568786f8d","arctic","arctic","2070","","<p>Thank you for your responses.</p><p>You will now answer some questions about your impressions of the story.</p>","0","","","","","","","","","","","","","","","","","","","","",""
"html-button-response","75","2512322","0.0-6.0-2.0-5.0-0.0","01d92d17ed0ea9d99d2bac6381808c7ee69318be66dd3daf29c6bf4568786f8d","arctic","arctic","1696","","EE5","6","","","","swim-engagement","","","","","","","","","","","","","","7","emo-engage","",""
"html-button-response","76","2513715","0.0-6.0-2.0-5.0-0.1","01d92d17ed0ea9d99d2bac6381808c7ee69318be66dd3daf29c6bf4568786f8d","arctic","arctic","1142","","A3","6","","","","swim-engagement","","","","","","","","","","","","","","7","absorption","",""
"html-button-response","77","2515964","0.0-6.0-2.0-5.0-0.2","01d92d17ed0ea9d99d2bac6381808c7ee69318be66dd3daf29c6bf4568786f8d","arctic","arctic","1998","","E6","3","","","","swim-engagement","","","","","","","","","","","","","","4","enjoyment","",""
"html-button-response","78","2517731","0.0-6.0-2.0-5.0-0.3","01d92d17ed0ea9d99d2bac6381808c7ee69318be66dd3daf29c6bf4568786f8d","arctic","arctic","1516","","MS3","5","","","","swim-engagement","","","","","","","","","","","","","","6","mental-sim","",""
"html-button-response","79","2519269","0.0-6.0-2.0-5.0-0.4","01d92d17ed0ea9d99d2bac6381808c7ee69318be66dd3daf29c6bf4568786f8d","arctic","arctic","1286","","A2","6","","","","swim-engagement","","","","","","","","","","","","","","7","absorption","",""
"html-button-response","80","2521215","0.0-6.0-2.0-5.0-0.5","01d92d17ed0ea9d99d2bac6381808c7ee69318be66dd3daf29c6bf4568786f8d","arctic","arctic","1696","","EE1","5","","","","swim-engagement","","","","","","","","","","","","","","6","emo-engage","",""
"html-button-response","81","2522980","0.0-6.0-2.0-5.0-0.6","01d92d17ed0ea9d99d2bac6381808c7ee69318be66dd3daf29c6bf4568786f8d","arctic","arctic","1513","","E1","6","","","","swim-engagement","","","","","","","","","","","","","","7","enjoyment","",""
"html-button-response","82","2524445","0.0-6.0-2.0-5.0-0.7","01d92d17ed0ea9d99d2bac6381808c7ee69318be66dd3daf29c6bf4568786f8d","arctic","arctic","1213","","E7","5","","","","swim-engagement","","","","","","","","","","","","","","6","enjoyment","",""
"html-button-response","83","2526119","0.0-6.0-2.0-5.0-0.8","01d92d17ed0ea9d99d2bac6381808c7ee69318be66dd3daf29c6bf4568786f8d","arctic","arctic","1457","","A4","4","","","","swim-engagement","","","","","","","","","","","","","","5","absorption","",""
"html-button-response","84","2527768","0.0-6.0-2.0-5.0-0.9","01d92d17ed0ea9d99d2bac6381808c7ee69318be66dd3daf29c6bf4568786f8d","arctic","arctic","1432","","EE4","5","","","","swim-engagement","","","","","","","","","","","","","","6","emo-engage","",""
"html-button-response","85","2529420","0.0-6.0-2.0-5.0-0.10","01d92d17ed0ea9d99d2bac6381808c7ee69318be66dd3daf29c6bf4568786f8d","arctic","arctic","1401","","A5","6","","","","swim-engagement","","","","","","","","","","","","","","7","absorption","",""
"html-button-response","86","2531010","0.0-6.0-2.0-5.0-0.11","01d92d17ed0ea9d99d2bac6381808c7ee69318be66dd3daf29c6bf4568786f8d","arctic","arctic","1339","","EE2","4","","","","swim-engagement","","","","","","","","","","","","","","5","emo-engage","",""
"html-button-response","87","2532480","0.0-6.0-2.0-5.0-0.12","01d92d17ed0ea9d99d2bac6381808c7ee69318be66dd3daf29c6bf4568786f8d","arctic","arctic","1220","","EE3","5","","","","swim-engagement","","","","","","","","","","","","","","6","emo-engage","",""
"html-button-response","88","2533798","0.0-6.0-2.0-5.0-0.13","01d92d17ed0ea9d99d2bac6381808c7ee69318be66dd3daf29c6bf4568786f8d","arctic","arctic","1066","","E10","6","","","","swim-engagement","","","","","","","","","","","","","","7","enjoyment","",""
"html-button-response","89","2535164","0.0-6.0-2.0-5.0-0.14","01d92d17ed0ea9d99d2bac6381808c7ee69318be66dd3daf29c6bf4568786f8d","arctic","arctic","1113","","MS1","4","","","","swim-engagement","","","","","","","","","","","","","","5","mental-sim","",""
"html-button-response","90","2536827","0.0-6.0-2.0-5.0-0.15","01d92d17ed0ea9d99d2bac6381808c7ee69318be66dd3daf29c6bf4568786f8d","arctic","arctic","1409","","E8","2","","","","swim-engagement","","","","","","","","","","","","","","3","enjoyment","",""
"html-button-response","91","2539129","0.0-6.0-2.0-5.0-0.16","01d92d17ed0ea9d99d2bac6381808c7ee69318be66dd3daf29c6bf4568786f8d","arctic","arctic","2049","","A1","4","","","","swim-engagement","","","","","","","","","","","","","","5","absorption","",""
"html-button-response","92","2542069","0.0-6.0-2.0-5.0-0.17","01d92d17ed0ea9d99d2bac6381808c7ee69318be66dd3daf29c6bf4568786f8d","arctic","arctic","2683","","MS2","4","","","","swim-engagement","","","","","","","","","","","","","","5","mental-sim","",""
"html-button-response","93","2544192","0.0-8.0","01d92d17ed0ea9d99d2bac6381808c7ee69318be66dd3daf29c6bf4568786f8d","arctic","arctic","1869","","<p>Thank you for your responses.</p><p>You will now answer some demographic, hearing, and general health questions.</p>","0","","","","","","","","","","","","","","","","","","","","",""
"survey-multi-choice","94","2551326","0.0-9.0-0.0","01d92d17ed0ea9d99d2bac6381808c7ee69318be66dd3daf29c6bf4568786f8d","arctic","arctic","7132","","","","","","","survey","","","","","","","","","","","","","{""Q0"":""Firefox""}","","","browser",""
"survey-text","95","2553554","0.0-9.0-1.0","01d92d17ed0ea9d99d2bac6381808c7ee69318be66dd3daf29c6bf4568786f8d","arctic","arctic","1798","","","","","","","survey","","","","","","","","","","","","","{""AGE"":""33""}","","","age","33"
"survey-multi-choice","96","2556574","0.0-9.0-2.0","01d92d17ed0ea9d99d2bac6381808c7ee69318be66dd3daf29c6bf4568786f8d","arctic","arctic","2768","","","","","","","survey","","","","","","","","","","","","","{""Q0"":""Male""}","","","gender","Male"
"survey-multi-choice","97","2558612","0.0-9.0-4.0","01d92d17ed0ea9d99d2bac6381808c7ee69318be66dd3daf29c6bf4568786f8d","arctic","arctic","1786","","","","","","","survey","","","","","","","","","","","","","{""Q0"":""Right""}","","","handedness","Right"
"survey-multi-choice","98","2561921","0.0-9.0-5.0","01d92d17ed0ea9d99d2bac6381808c7ee69318be66dd3daf29c6bf4568786f8d","arctic","arctic","3056","","","","","","","survey","","","","","","","","","","","","","{""Q0"":""Bachelor's Degree""}","","","education","Bachelor's Degree"
"survey-text","99","2566897","0.0-10.0-0.0","01d92d17ed0ea9d99d2bac6381808c7ee69318be66dd3daf29c6bf4568786f8d","arctic","arctic","4638","","","","","","","survey","","","","","","","","","","","","","{""L1"":""English""}","","","first-language","English"
"survey-text","100","2587653","0.0-10.0-1.0","01d92d17ed0ea9d99d2bac6381808c7ee69318be66dd3daf29c6bf4568786f8d","arctic","arctic","20060","","","","","","","survey","","","","","","","","","","","","","{""L2name"":""Spanish"",""L2fluency"":""2"",""L3name"":"""",""L3fluency"":"""",""L4name"":"""",""L4fluency"":""""}","","","additional-languages","{""L2name"":""Spanish"",""L2fluency"":""2"",""L3name"":"""",""L3fluency"":"""",""L4name"":"""",""L4fluency"":""""}"
"survey-multi-choice","101","2590344","0.0-10.0-2.0","01d92d17ed0ea9d99d2bac6381808c7ee69318be66dd3daf29c6bf4568786f8d","arctic","arctic","2436","","","","","","","survey","","","","","","","","","","","","","{""Q0"":""No""}","","","hearing-aid","No"
"survey-multi-choice","102","2593704","0.0-10.0-3.0","01d92d17ed0ea9d99d2bac6381808c7ee69318be66dd3daf29c6bf4568786f8d","arctic","arctic","3108","","","","","","","survey","","","","","","","","","","","","","{""Q0"":""Never""}","","","ringing-ears","Never"
"survey-multi-choice","103","2597681","0.0-10.0-5.0","01d92d17ed0ea9d99d2bac6381808c7ee69318be66dd3daf29c6bf4568786f8d","arctic","arctic","3722","","","","","","","survey","","","","","","","","","","","","","{""Q0"":""No""}","","","neuro-disease","No"
"survey-multi-choice","104","2599710","0.0-10.0-7.0","01d92d17ed0ea9d99d2bac6381808c7ee69318be66dd3daf29c6bf4568786f8d","arctic","arctic","1777","","","","","","","survey","","","","","","","","","","","","","{""Q0"":""No""}","","","take-meds","No"
"survey-text","105","2604952","0.0-10.0-9.0","01d92d17ed0ea9d99d2bac6381808c7ee69318be66dd3daf29c6bf4568786f8d","arctic","arctic","5116","","","","","","","survey","","","","","","","","","","","","","{""HC"":""N/A""}","","","health-concerns","N/A"
"html-button-response","106","2608003","0.0-11.0-0.0","01d92d17ed0ea9d99d2bac6381808c7ee69318be66dd3daf29c6bf4568786f8d","arctic","arctic","2800","","<p>How would you describe your musical skills/experiences?</p>","3","","","","survey","","","","","","","","","","","","","","","","music-skill","4"
"survey-multi-choice","107","2611254","0.0-11.0-1.0","01d92d17ed0ea9d99d2bac6381808c7ee69318be66dd3daf29c6bf4568786f8d","arctic","arctic","2997","","","","","","","survey","","","","","","","","","","","","","{""Q0"":""Yes""}","","","music-instrument","Yes"
"survey-text","108","2612909","0.0-11.0-2.0-0.0","01d92d17ed0ea9d99d2bac6381808c7ee69318be66dd3daf29c6bf4568786f8d","arctic","arctic","1298","","","","","","","survey","","","","","","","","","","","","","{""MEXP"":""1""}","","","music-training-yrs","1"
"html-button-response","109","2615099","0.0-12.0-0.0","01d92d17ed0ea9d99d2bac6381808c7ee69318be66dd3daf29c6bf4568786f8d","arctic","arctic","1939","","<p>How would you describe your general hearing abilities?</p>","4","","","","survey","","","","","","","","","","","","","","","","ssq-01","5"
"html-button-response","110","2619897","0.0-12.0-1.0","01d92d17ed0ea9d99d2bac6381808c7ee69318be66dd3daf29c6bf4568786f8d","arctic","arctic","4546","","<p>When you talk with someone at a place that strongly reverberates/echoes (e.g., in a church or train station),</br>can you understand what the person says?</p>","8","","","","survey","","","","","","","","","","","","","","","","ssq-02","8"
"html-button-response","111","2622948","0.0-12.0-2.0","01d92d17ed0ea9d99d2bac6381808c7ee69318be66dd3daf29c6bf4568786f8d","arctic","arctic","2752","","<p>When you are with a group (~5 people) in a lively restaurant, can you follow the group's conversation?</p>","7","","","","survey","","","","","","","","","","","","","","","","ssq-03","7"
"html-button-response","112","2625826","0.0-12.0-3.0","01d92d17ed0ea9d99d2bac6381808c7ee69318be66dd3daf29c6bf4568786f8d","arctic","arctic","2583","","<p>Based on the sound of a bus or truck, can you tell whether it is moving towards or away from you?</p>","6","","","","survey","","","","","","","","","","","","","","","","ssq-04","6"
"html-button-response","113","2628566","0.0-12.0-4.0","01d92d17ed0ea9d99d2bac6381808c7ee69318be66dd3daf29c6bf4568786f8d","arctic","arctic","2442","","<p>When you are in an unknown environment, can you tell from which direction a brief sound originates?</p>","8","","","","survey","","","","","","","","","","","","","","","","ssq-05","8"
"html-button-response","114","2630388","0.0-12.0-5.0","01d92d17ed0ea9d99d2bac6381808c7ee69318be66dd3daf29c6bf4568786f8d","arctic","arctic","1571","","<p>Are you able to ignore distracting sounds when you concentrate on a specific aspect of your acoustic surrounding?</p>","4","","","","survey","","","","","","","","","","","","","","","","ssq-06","4"
"fullscreen","115","2631721","0.0-13.0","01d92d17ed0ea9d99d2bac6381808c7ee69318be66dd3daf29c6bf4568786f8d","arctic","arctic","","","","","","","","","true","","","","","","","","","","","","","","","",""
