"trial_type","trial_index","time_elapsed","internal_node_id","ParticipantID","firstStory","scramStory","rt","url","stimulus","button_pressed","key_press","correctRESP","correct","designation","success","letterStim","letterType","ONSET","TIMEOUT","CONDITION","Participant","ONSET_ACTUAL","RT","RESP","ACC","STORY","responses","response","type","surveyQuestion","QRESP"
"pavlovia","0","7","0.0-0.0","3504a25199d0257290d01dd9b10b2bbb536f491fcc2758c9e431f414e2718f79","swim","swim","","","","","","","","","","","","","","","","","","","","","","","","",""
"external-html","1","7215","0.0-1.0","3504a25199d0257290d01dd9b10b2bbb536f491fcc2758c9e431f414e2718f79","swim","swim","7003","consent/consent_updated.html","","","","","","","","","","","","","","","","","","","","","","",""
"html-button-response","2","10367","0.0-2.0-0.0","3504a25199d0257290d01dd9b10b2bbb536f491fcc2758c9e431f414e2718f79","swim","swim","3149","","<p>Before we begin the main task, you will complete a short volume calibration and headphone check.</p><p>Please make sure you are in a quiet listening environment, that you are wearing headphones, and that your computer's volume is turned on.<p></p>","0","","","","","","","","","","","","","","","","","","","","",""
"html-button-response","3","13674","0.0-2.0-1.0","3504a25199d0257290d01dd9b10b2bbb536f491fcc2758c9e431f414e2718f79","swim","swim","3055","","<p>The volume calibration will be first.</p><p>You will hear a thirty-second noise. Please adjust your computer's volume so that this noise is being presented at a comfortable level.<p></p>","0","","","","","","","","","","","","","","","","","","","","",""
"audio-button-response","4","43960","0.0-2.0-2.0","3504a25199d0257290d01dd9b10b2bbb536f491fcc2758c9e431f414e2718f79","swim","swim","null","","audio/volumetest.mp3","null","","","","","","","","","","","","","","","","","","","","",""
"html-keyboard-response","5","252980","0.0-3.0-0.0","3504a25199d0257290d01dd9b10b2bbb536f491fcc2758c9e431f414e2718f79","swim","swim","209019","","<p>You will now complete a short headphone check.</p><p>On each trial, you will hear three tones. One of these tones will be quieter than the others. Your task is to identify whether the quiet tone occurred first, second, or third.</p><p>There are six trials in total.<p></p><p></p>(Press SPACEBAR to begin)","","32","","","","","","","","","","","","","","","","","","","",""
"html-keyboard-response","6","253734","0.0-3.0-1.0-0.0","3504a25199d0257290d01dd9b10b2bbb536f491fcc2758c9e431f414e2718f79","swim","swim","null","","<div style=""font-size:60px;"">+</div>","","null","","","","","","","","","","","","","","","","","","","",""
"audio-button-response","7","267255","0.0-3.0-1.0-1.0","3504a25199d0257290d01dd9b10b2bbb536f491fcc2758c9e431f414e2718f79","swim","swim","13518","","audio/t2_2.mp3","2","","1","0","headphone-test","","","","","","","","","","","","","","","","",""
"html-keyboard-response","8","267758","0.0-3.0-1.0-2.0","3504a25199d0257290d01dd9b10b2bbb536f491fcc2758c9e431f414e2718f79","swim","swim","null","","<p>Incorrect</p>","","null","","","","","","","","","","","","","","","","","","","",""
"html-keyboard-response","9","268261","0.0-3.0-1.0-0.1","3504a25199d0257290d01dd9b10b2bbb536f491fcc2758c9e431f414e2718f79","swim","swim","null","","<div style=""font-size:60px;"">+</div>","","null","","","","","","","","","","","","","","","","","","","",""
"audio-button-response","10","276471","0.0-3.0-1.0-1.1","3504a25199d0257290d01dd9b10b2bbb536f491fcc2758c9e431f414e2718f79","swim","swim","8208","","audio/t1_1.mp3","1","","0","0","headphone-test","","","","","","","","","","","","","","","","",""
"html-keyboard-response","11","277023","0.0-3.0-1.0-2.1","3504a25199d0257290d01dd9b10b2bbb536f491fcc2758c9e431f414e2718f79","swim","swim","null","","<p>Incorrect</p>","","null","","","","","","","","","","","","","","","","","","","",""
"html-keyboard-response","12","277524","0.0-3.0-1.0-0.2","3504a25199d0257290d01dd9b10b2bbb536f491fcc2758c9e431f414e2718f79","swim","swim","null","","<div style=""font-size:60px;"">+</div>","","null","","","","","","","","","","","","","","","","","","","",""
"audio-button-response","13","286764","0.0-3.0-1.0-1.2","3504a25199d0257290d01dd9b10b2bbb536f491fcc2758c9e431f414e2718f79","swim","swim","9238","","audio/t3_2.mp3","1","","2","0","headphone-test","","","","","","","","","","","","","","","","",""
"html-keyboard-response","14","287266","0.0-3.0-1.0-2.2","3504a25199d0257290d01dd9b10b2bbb536f491fcc2758c9e431f414e2718f79","swim","swim","null","","<p>Incorrect</p>","","null","","","","","","","","","","","","","","","","","","","",""
"html-keyboard-response","15","287768","0.0-3.0-1.0-0.3","3504a25199d0257290d01dd9b10b2bbb536f491fcc2758c9e431f414e2718f79","swim","swim","null","","<div style=""font-size:60px;"">+</div>","","null","","","","","","","","","","","","","","","","","","","",""
"audio-button-response","16","293648","0.0-3.0-1.0-1.3","3504a25199d0257290d01dd9b10b2bbb536f491fcc2758c9e431f414e2718f79","swim","swim","5878","","audio/t1_2.mp3","2","","0","0","headphone-test","","","","","","","","","","","","","","","","",""
"html-keyboard-response","17","294150","0.0-3.0-1.0-2.3","3504a25199d0257290d01dd9b10b2bbb536f491fcc2758c9e431f414e2718f79","swim","swim","null","","<p>Incorrect</p>","","null","","","","","","","","","","","","","","","","","","","",""
"html-keyboard-response","18","294652","0.0-3.0-1.0-0.4","3504a25199d0257290d01dd9b10b2bbb536f491fcc2758c9e431f414e2718f79","swim","swim","null","","<div style=""font-size:60px;"">+</div>","","null","","","","","","","","","","","","","","","","","","","",""
"audio-button-response","19","313550","0.0-3.0-1.0-1.4","3504a25199d0257290d01dd9b10b2bbb536f491fcc2758c9e431f414e2718f79","swim","swim","18896","","audio/t3_1.mp3","1","","2","0","headphone-test","","","","","","","","","","","","","","","","",""
"html-keyboard-response","20","314051","0.0-3.0-1.0-2.4","3504a25199d0257290d01dd9b10b2bbb536f491fcc2758c9e431f414e2718f79","swim","swim","null","","<p>Incorrect</p>","","null","","","","","","","","","","","","","","","","","","","",""
"html-keyboard-response","21","314553","0.0-3.0-1.0-0.5","3504a25199d0257290d01dd9b10b2bbb536f491fcc2758c9e431f414e2718f79","swim","swim","null","","<div style=""font-size:60px;"">+</div>","","null","","","","","","","","","","","","","","","","","","","",""
"audio-button-response","22","323705","0.0-3.0-1.0-1.5","3504a25199d0257290d01dd9b10b2bbb536f491fcc2758c9e431f414e2718f79","swim","swim","9149","","audio/t2_1.mp3","0","","1","0","headphone-test","","","","","","","","","","","","","","","","",""
"html-keyboard-response","23","324207","0.0-3.0-1.0-2.5","3504a25199d0257290d01dd9b10b2bbb536f491fcc2758c9e431f414e2718f79","swim","swim","null","","<p>Incorrect</p>","","null","","","","","","","","","","","","","","","","","","","",""
"fullscreen","24","327996","0.0-4.0","3504a25199d0257290d01dd9b10b2bbb536f491fcc2758c9e431f414e2718f79","swim","swim","","","","","","","","","true","","","","","","","","","","","","","","","",""
"html-button-response","25","337270","0.0-5.0-0.0","3504a25199d0257290d01dd9b10b2bbb536f491fcc2758c9e431f414e2718f79","swim","swim","9273","","<p>There are two blocks to this experiment.</p><p>In each block, you will hear a ~13.5 minute story. One of the stories will be scrambled. Please listen carefully to both stories and understand them as best you can.</p><p>After each story, you will be asked some questions to assess your comprehension.</p>","0","","","","","","","","","","","","","","","","","","","","",""
"html-button-response","26","339658","0.0-5.0-1.0","3504a25199d0257290d01dd9b10b2bbb536f491fcc2758c9e431f414e2718f79","swim","swim","2387","","<p>During each story, there will be an additional task.</p><p>A letter will occasionally appear on the screen.</br>Your job is to - as quickly as you can - decide whether the letter is lowercase or uppercase and press one of two keys on the keyboard:</p><p>If the letter is <b>lowercase</b>, press key &lt;<b>x</b>&gt;.</p><p>If the letter is <b>uppercase</b>, press key &lt;<b>m</b>&gt;.</p>","0","","","","","","","","","","","","","","","","","","","","",""
"html-keyboard-response","27","395432","0.0-5.0-2.0","3504a25199d0257290d01dd9b10b2bbb536f491fcc2758c9e431f414e2718f79","swim","swim","55773","","<p>Because we want your responses to be as quick as possible, please keep your index fingers over the keys while listening.</p><p>Each block lasts about 20 minutes.</p><p><b>Press &lt;x&gt; or &lt;m&gt; to start the first block!</b></p>","","88","","","","","","","","","","","","","","","","","","","",""
"html-keyboard-response","28","395935","0.0-7.0-0.0-0.0","3504a25199d0257290d01dd9b10b2bbb536f491fcc2758c9e431f414e2718f79","swim","swim","null","","<div style=""font-size:60px;"" tabindex=""0"">+</div>","","null","","","","","","","","","","","","","","","","","","","",""
"dual-task","null","null","null","","swim","swim","NA","","e","null","NA","88","0","swim-dual-task","","e","lowercase","14000","1","3","3504a25199d0257290d01dd9b10b2bbb536f491fcc2758c9e431f414e2718f79","14085.900000095367","NA","NA","0","swim","","","","",""
"dual-task","null","null","null","","swim","swim","NA","","N","null","NA","77","0","swim-dual-task","","N","uppercase","20000","1","3","3504a25199d0257290d01dd9b10b2bbb536f491fcc2758c9e431f414e2718f79","19999.800000190735","NA","NA","0","swim","","","","",""
"dual-task","null","null","null","","swim","swim","NA","","q","null","NA","88","0","swim-dual-task","","q","lowercase","32000","1","3","3504a25199d0257290d01dd9b10b2bbb536f491fcc2758c9e431f414e2718f79","32001.599999904633","NA","NA","0","swim","","","","",""
"dual-task","null","null","null","","swim","swim","NA","","b","null","NA","88","0","swim-dual-task","","b","lowercase","44000","1","3","3504a25199d0257290d01dd9b10b2bbb536f491fcc2758c9e431f414e2718f79","44001.300000190735","NA","NA","0","swim","","","","",""
"dual-task","null","null","null","","swim","swim","NA","","d","null","NA","88","0","swim-dual-task","","d","lowercase","56000","1","3","3504a25199d0257290d01dd9b10b2bbb536f491fcc2758c9e431f414e2718f79","55999.40000009537","NA","NA","0","swim","","","","",""
"dual-task","null","null","null","","swim","swim","NA","","D","null","NA","77","0","swim-dual-task","","D","uppercase","66000","1","3","3504a25199d0257290d01dd9b10b2bbb536f491fcc2758c9e431f414e2718f79","66091.90000009537","NA","NA","0","swim","","","","",""
"dual-task","null","null","null","","swim","swim","NA","","Q","null","NA","77","0","swim-dual-task","","Q","uppercase","80000","1","3","3504a25199d0257290d01dd9b10b2bbb536f491fcc2758c9e431f414e2718f79","80042","NA","NA","0","swim","","","","",""
"dual-task","null","null","null","","swim","swim","NA","","r","null","NA","88","0","swim-dual-task","","r","lowercase","88000","1","3","3504a25199d0257290d01dd9b10b2bbb536f491fcc2758c9e431f414e2718f79","87999.5","NA","NA","0","swim","","","","",""
"dual-task","null","null","null","","swim","swim","NA","","t","null","NA","88","0","swim-dual-task","","t","lowercase","96000","1","3","3504a25199d0257290d01dd9b10b2bbb536f491fcc2758c9e431f414e2718f79","95999.2000002861","NA","NA","0","swim","","","","",""
"dual-task","null","null","null","","swim","swim","NA","","H","null","NA","77","0","swim-dual-task","","H","uppercase","106000","1","3","3504a25199d0257290d01dd9b10b2bbb536f491fcc2758c9e431f414e2718f79","106042.09999990463","NA","NA","0","swim","","","","",""
"dual-task","null","null","null","","swim","swim","NA","","A","null","NA","77","0","swim-dual-task","","A","uppercase","112000","1","3","3504a25199d0257290d01dd9b10b2bbb536f491fcc2758c9e431f414e2718f79","112031","NA","NA","0","swim","","","","",""
"dual-task","null","null","null","","swim","swim","NA","","q","null","NA","88","0","swim-dual-task","","q","lowercase","120000","1","3","3504a25199d0257290d01dd9b10b2bbb536f491fcc2758c9e431f414e2718f79","120033.40000009537","NA","NA","0","swim","","","","",""
"dual-task","null","null","null","","swim","swim","NA","","H","null","NA","77","0","swim-dual-task","","H","uppercase","134000","1","3","3504a25199d0257290d01dd9b10b2bbb536f491fcc2758c9e431f414e2718f79","134010","NA","NA","0","swim","","","","",""
"dual-task","null","null","null","","swim","swim","NA","","d","null","NA","88","0","swim-dual-task","","d","lowercase","144000","1","3","3504a25199d0257290d01dd9b10b2bbb536f491fcc2758c9e431f414e2718f79","144095.80000019073","NA","NA","0","swim","","","","",""
"dual-task","null","null","null","","swim","swim","NA","","R","null","NA","77","0","swim-dual-task","","R","uppercase","152000","1","3","3504a25199d0257290d01dd9b10b2bbb536f491fcc2758c9e431f414e2718f79","151999.09999990463","NA","NA","0","swim","","","","",""
"dual-task","null","null","null","","swim","swim","NA","","N","null","NA","77","0","swim-dual-task","","N","uppercase","164000","1","3","3504a25199d0257290d01dd9b10b2bbb536f491fcc2758c9e431f414e2718f79","164015.09999990463","NA","NA","0","swim","","","","",""
"dual-task","null","null","null","","swim","swim","NA","","A","null","NA","77","0","swim-dual-task","","A","uppercase","176000","1","3","3504a25199d0257290d01dd9b10b2bbb536f491fcc2758c9e431f414e2718f79","176027.5","NA","NA","0","swim","","","","",""
"dual-task","null","null","null","","swim","swim","NA","","t","null","NA","88","0","swim-dual-task","","t","lowercase","188000","1","3","3504a25199d0257290d01dd9b10b2bbb536f491fcc2758c9e431f414e2718f79","187998.80000019073","NA","NA","0","swim","","","","",""
"dual-task","null","null","null","","swim","swim","NA","","Q","null","NA","77","0","swim-dual-task","","Q","uppercase","198000","1","3","3504a25199d0257290d01dd9b10b2bbb536f491fcc2758c9e431f414e2718f79","197998.90000009537","NA","NA","0","swim","","","","",""
"dual-task","null","null","null","","swim","swim","NA","","E","null","NA","77","0","swim-dual-task","","E","uppercase","208000","1","3","3504a25199d0257290d01dd9b10b2bbb536f491fcc2758c9e431f414e2718f79","208086.7000002861","NA","NA","0","swim","","","","",""
"dual-task","null","null","null","","swim","swim","NA","","H","null","NA","77","0","swim-dual-task","","H","uppercase","218000","1","3","3504a25199d0257290d01dd9b10b2bbb536f491fcc2758c9e431f414e2718f79","218000","NA","NA","0","swim","","","","",""
"dual-task","null","null","null","","swim","swim","NA","","N","null","NA","77","0","swim-dual-task","","N","uppercase","228000","1","3","3504a25199d0257290d01dd9b10b2bbb536f491fcc2758c9e431f414e2718f79","227999.80000019073","NA","NA","0","swim","","","","",""
"dual-task","null","null","null","","swim","swim","NA","","G","null","NA","77","0","swim-dual-task","","G","uppercase","240000","1","3","3504a25199d0257290d01dd9b10b2bbb536f491fcc2758c9e431f414e2718f79","240073.80000019073","NA","NA","0","swim","","","","",""
"dual-task","null","null","null","","swim","swim","NA","","h","null","NA","88","0","swim-dual-task","","h","lowercase","252000","1","3","3504a25199d0257290d01dd9b10b2bbb536f491fcc2758c9e431f414e2718f79","251999.80000019073","NA","NA","0","swim","","","","",""
"dual-task","null","null","null","","swim","swim","NA","","R","null","NA","77","0","swim-dual-task","","R","uppercase","260000","1","3","3504a25199d0257290d01dd9b10b2bbb536f491fcc2758c9e431f414e2718f79","260000","NA","NA","0","swim","","","","",""
"dual-task","null","null","null","","swim","swim","NA","","d","null","NA","88","0","swim-dual-task","","d","lowercase","274000","1","3","3504a25199d0257290d01dd9b10b2bbb536f491fcc2758c9e431f414e2718f79","273999.2000002861","NA","NA","0","swim","","","","",""
"dual-task","null","null","null","","swim","swim","NA","","E","null","NA","77","0","swim-dual-task","","E","uppercase","284000","1","3","3504a25199d0257290d01dd9b10b2bbb536f491fcc2758c9e431f414e2718f79","284004.2000002861","NA","NA","0","swim","","","","",""
"dual-task","null","null","null","","swim","swim","NA","","H","null","NA","77","0","swim-dual-task","","H","uppercase","296000","1","3","3504a25199d0257290d01dd9b10b2bbb536f491fcc2758c9e431f414e2718f79","296037.40000009537","NA","NA","0","swim","","","","",""
"dual-task","null","null","null","","swim","swim","NA","","B","null","NA","77","0","swim-dual-task","","B","uppercase","310000","1","3","3504a25199d0257290d01dd9b10b2bbb536f491fcc2758c9e431f414e2718f79","309999.7000002861","NA","NA","0","swim","","","","",""
"dual-task","null","null","null","","swim","swim","NA","","e","null","NA","88","0","swim-dual-task","","e","lowercase","318000","1","3","3504a25199d0257290d01dd9b10b2bbb536f491fcc2758c9e431f414e2718f79","318083.59999990463","NA","NA","0","swim","","","","",""
"dual-task","null","null","null","","swim","swim","NA","","a","null","NA","88","0","swim-dual-task","","a","lowercase","328000","1","3","3504a25199d0257290d01dd9b10b2bbb536f491fcc2758c9e431f414e2718f79","328085.30000019073","NA","NA","0","swim","","","","",""
"dual-task","null","null","null","","swim","swim","NA","","g","null","NA","88","0","swim-dual-task","","g","lowercase","334000","1","3","3504a25199d0257290d01dd9b10b2bbb536f491fcc2758c9e431f414e2718f79","333999.59999990463","NA","NA","0","swim","","","","",""
"dual-task","null","null","null","","swim","swim","NA","","b","null","NA","88","0","swim-dual-task","","b","lowercase","344000","1","3","3504a25199d0257290d01dd9b10b2bbb536f491fcc2758c9e431f414e2718f79","344000","NA","NA","0","swim","","","","",""
"dual-task","null","null","null","","swim","swim","NA","","a","null","NA","88","0","swim-dual-task","","a","lowercase","352000","1","3","3504a25199d0257290d01dd9b10b2bbb536f491fcc2758c9e431f414e2718f79","351999.7000002861","NA","NA","0","swim","","","","",""
"dual-task","null","null","null","","swim","swim","NA","","a","null","NA","88","0","swim-dual-task","","a","lowercase","366000","1","3","3504a25199d0257290d01dd9b10b2bbb536f491fcc2758c9e431f414e2718f79","366079.5","NA","NA","0","swim","","","","",""
"dual-task","null","null","null","","swim","swim","NA","","D","null","NA","77","0","swim-dual-task","","D","uppercase","374000","1","3","3504a25199d0257290d01dd9b10b2bbb536f491fcc2758c9e431f414e2718f79","374011.5","NA","NA","0","swim","","","","",""
"dual-task","null","null","null","","swim","swim","NA","","F","null","NA","77","0","swim-dual-task","","F","uppercase","382000","1","3","3504a25199d0257290d01dd9b10b2bbb536f491fcc2758c9e431f414e2718f79","382000","NA","NA","0","swim","","","","",""
"dual-task","null","null","null","","swim","swim","NA","","r","null","NA","88","0","swim-dual-task","","r","lowercase","392000","1","3","3504a25199d0257290d01dd9b10b2bbb536f491fcc2758c9e431f414e2718f79","392000","NA","NA","0","swim","","","","",""
"dual-task","null","null","null","","swim","swim","NA","","f","null","NA","88","0","swim-dual-task","","f","lowercase","400000","1","3","3504a25199d0257290d01dd9b10b2bbb536f491fcc2758c9e431f414e2718f79","400000.2000002861","NA","NA","0","swim","","","","",""
"dual-task","null","null","null","","swim","swim","NA","","g","null","NA","88","0","swim-dual-task","","g","lowercase","414000","1","3","3504a25199d0257290d01dd9b10b2bbb536f491fcc2758c9e431f414e2718f79","414040.59999990463","NA","NA","0","swim","","","","",""
"dual-task","null","null","null","","swim","swim","NA","","n","null","NA","88","0","swim-dual-task","","n","lowercase","424000","1","3","3504a25199d0257290d01dd9b10b2bbb536f491fcc2758c9e431f414e2718f79","424000.40000009537","NA","NA","0","swim","","","","",""
"dual-task","null","null","null","","swim","swim","NA","","B","null","NA","77","0","swim-dual-task","","B","uppercase","434000","1","3","3504a25199d0257290d01dd9b10b2bbb536f491fcc2758c9e431f414e2718f79","434000.40000009537","NA","NA","0","swim","","","","",""
"dual-task","null","null","null","","swim","swim","NA","","b","null","NA","88","0","swim-dual-task","","b","lowercase","446000","1","3","3504a25199d0257290d01dd9b10b2bbb536f491fcc2758c9e431f414e2718f79","446000.5","NA","NA","0","swim","","","","",""
"dual-task","null","null","null","","swim","swim","NA","","r","null","NA","88","0","swim-dual-task","","r","lowercase","456000","1","3","3504a25199d0257290d01dd9b10b2bbb536f491fcc2758c9e431f414e2718f79","456017.40000009537","NA","NA","0","swim","","","","",""
"dual-task","null","null","null","","swim","swim","NA","","R","null","NA","77","0","swim-dual-task","","R","uppercase","466000","1","3","3504a25199d0257290d01dd9b10b2bbb536f491fcc2758c9e431f414e2718f79","466000.09999990463","NA","NA","0","swim","","","","",""
"dual-task","null","null","null","","swim","swim","NA","","f","null","NA","88","0","swim-dual-task","","f","lowercase","478000","1","3","3504a25199d0257290d01dd9b10b2bbb536f491fcc2758c9e431f414e2718f79","478000.40000009537","NA","NA","0","swim","","","","",""
"dual-task","null","null","null","","swim","swim","NA","","h","null","NA","88","0","swim-dual-task","","h","lowercase","488000","1","3","3504a25199d0257290d01dd9b10b2bbb536f491fcc2758c9e431f414e2718f79","488040.09999990463","NA","NA","0","swim","","","","",""
"dual-task","null","null","null","","swim","swim","NA","","B","null","NA","77","0","swim-dual-task","","B","uppercase","498000","1","3","3504a25199d0257290d01dd9b10b2bbb536f491fcc2758c9e431f414e2718f79","498117.2000002861","NA","NA","0","swim","","","","",""
"dual-task","null","null","null","","swim","swim","NA","","t","null","NA","88","0","swim-dual-task","","t","lowercase","512000","1","3","3504a25199d0257290d01dd9b10b2bbb536f491fcc2758c9e431f414e2718f79","512000.2000002861","NA","NA","0","swim","","","","",""
"dual-task","null","null","null","","swim","swim","NA","","e","null","NA","88","0","swim-dual-task","","e","lowercase","518000","1","3","3504a25199d0257290d01dd9b10b2bbb536f491fcc2758c9e431f414e2718f79","518037.59999990463","NA","NA","0","swim","","","","",""
"dual-task","null","null","null","","swim","swim","NA","","t","null","NA","88","0","swim-dual-task","","t","lowercase","524000","1","3","3504a25199d0257290d01dd9b10b2bbb536f491fcc2758c9e431f414e2718f79","524000.59999990463","NA","NA","0","swim","","","","",""
"dual-task","null","null","null","","swim","swim","NA","","r","null","NA","88","0","swim-dual-task","","r","lowercase","536000","1","3","3504a25199d0257290d01dd9b10b2bbb536f491fcc2758c9e431f414e2718f79","536025.4000000954","NA","NA","0","swim","","","","",""
"dual-task","null","null","null","","swim","swim","NA","","F","null","NA","77","0","swim-dual-task","","F","uppercase","550000","1","3","3504a25199d0257290d01dd9b10b2bbb536f491fcc2758c9e431f414e2718f79","550113.0999999046","NA","NA","0","swim","","","","",""
"dual-task","null","null","null","","swim","swim","NA","","f","null","NA","88","0","swim-dual-task","","f","lowercase","556000","1","3","3504a25199d0257290d01dd9b10b2bbb536f491fcc2758c9e431f414e2718f79","556024.0999999046","NA","NA","0","swim","","","","",""
"dual-task","null","null","null","","swim","swim","NA","","n","null","NA","88","0","swim-dual-task","","n","lowercase","562000","1","3","3504a25199d0257290d01dd9b10b2bbb536f491fcc2758c9e431f414e2718f79","562011.5999999046","NA","NA","0","swim","","","","",""
"dual-task","null","null","null","","swim","swim","NA","","E","null","NA","77","0","swim-dual-task","","E","uppercase","568000","1","3","3504a25199d0257290d01dd9b10b2bbb536f491fcc2758c9e431f414e2718f79","568100.9000000954","NA","NA","0","swim","","","","",""
"dual-task","null","null","null","","swim","swim","NA","","h","null","NA","88","0","swim-dual-task","","h","lowercase","580000","1","3","3504a25199d0257290d01dd9b10b2bbb536f491fcc2758c9e431f414e2718f79","580059.9000000954","NA","NA","0","swim","","","","",""
"dual-task","null","null","null","","swim","swim","NA","","n","null","NA","88","0","swim-dual-task","","n","lowercase","590000","1","3","3504a25199d0257290d01dd9b10b2bbb536f491fcc2758c9e431f414e2718f79","590000.7000002861","NA","NA","0","swim","","","","",""
"dual-task","null","null","null","","swim","swim","NA","","T","null","NA","77","0","swim-dual-task","","T","uppercase","604000","1","3","3504a25199d0257290d01dd9b10b2bbb536f491fcc2758c9e431f414e2718f79","604000","NA","NA","0","swim","","","","",""
"dual-task","null","null","null","","swim","swim","NA","","T","null","NA","77","0","swim-dual-task","","T","uppercase","614000","1","3","3504a25199d0257290d01dd9b10b2bbb536f491fcc2758c9e431f414e2718f79","614001.5","NA","NA","0","swim","","","","",""
"dual-task","null","null","null","","swim","swim","NA","","A","null","NA","77","0","swim-dual-task","","A","uppercase","624000","1","3","3504a25199d0257290d01dd9b10b2bbb536f491fcc2758c9e431f414e2718f79","624001.3000001907","NA","NA","0","swim","","","","",""
"dual-task","null","null","null","","swim","swim","NA","","T","null","NA","77","0","swim-dual-task","","T","uppercase","632000","1","3","3504a25199d0257290d01dd9b10b2bbb536f491fcc2758c9e431f414e2718f79","632067.4000000954","NA","NA","0","swim","","","","",""
"dual-task","null","null","null","","swim","swim","NA","","R","null","NA","77","0","swim-dual-task","","R","uppercase","642000","1","3","3504a25199d0257290d01dd9b10b2bbb536f491fcc2758c9e431f414e2718f79","642000.5","NA","NA","0","swim","","","","",""
"dual-task","null","null","null","","swim","swim","NA","","q","null","NA","88","0","swim-dual-task","","q","lowercase","648000","1","3","3504a25199d0257290d01dd9b10b2bbb536f491fcc2758c9e431f414e2718f79","648081","NA","NA","0","swim","","","","",""
"dual-task","null","null","null","","swim","swim","NA","","D","null","NA","77","0","swim-dual-task","","D","uppercase","660000","1","3","3504a25199d0257290d01dd9b10b2bbb536f491fcc2758c9e431f414e2718f79","660000.9000000954","NA","NA","0","swim","","","","",""
"dual-task","null","null","null","","swim","swim","NA","","n","null","NA","88","0","swim-dual-task","","n","lowercase","670000","1","3","3504a25199d0257290d01dd9b10b2bbb536f491fcc2758c9e431f414e2718f79","670059.0999999046","NA","NA","0","swim","","","","",""
"dual-task","null","null","null","","swim","swim","NA","","h","null","NA","88","0","swim-dual-task","","h","lowercase","680000","1","3","3504a25199d0257290d01dd9b10b2bbb536f491fcc2758c9e431f414e2718f79","680000.0999999046","NA","NA","0","swim","","","","",""
"dual-task","null","null","null","","swim","swim","NA","","g","null","NA","88","0","swim-dual-task","","g","lowercase","692000","1","3","3504a25199d0257290d01dd9b10b2bbb536f491fcc2758c9e431f414e2718f79","692033.8000001907","NA","NA","0","swim","","","","",""
"dual-task","null","null","null","","swim","swim","NA","","E","null","NA","77","0","swim-dual-task","","E","uppercase","702000","1","3","3504a25199d0257290d01dd9b10b2bbb536f491fcc2758c9e431f414e2718f79","702079.8000001907","NA","NA","0","swim","","","","",""
"dual-task","null","null","null","","swim","swim","NA","","Q","null","NA","77","0","swim-dual-task","","Q","uppercase","710000","1","3","3504a25199d0257290d01dd9b10b2bbb536f491fcc2758c9e431f414e2718f79","710000.5999999046","NA","NA","0","swim","","","","",""
"dual-task","null","null","null","","swim","swim","NA","","G","null","NA","77","0","swim-dual-task","","G","uppercase","718000","1","3","3504a25199d0257290d01dd9b10b2bbb536f491fcc2758c9e431f414e2718f79","718000.4000000954","NA","NA","0","swim","","","","",""
"dual-task","null","null","null","","swim","swim","NA","","N","null","NA","77","0","swim-dual-task","","N","uppercase","730000","1","3","3504a25199d0257290d01dd9b10b2bbb536f491fcc2758c9e431f414e2718f79","730037.5","NA","NA","0","swim","","","","",""
"dual-task","null","null","null","","swim","swim","NA","","a","null","NA","88","0","swim-dual-task","","a","lowercase","742000","1","3","3504a25199d0257290d01dd9b10b2bbb536f491fcc2758c9e431f414e2718f79","742001","NA","NA","0","swim","","","","",""
"dual-task","null","null","null","","swim","swim","NA","","e","null","NA","88","0","swim-dual-task","","e","lowercase","748000","1","3","3504a25199d0257290d01dd9b10b2bbb536f491fcc2758c9e431f414e2718f79","748001.5999999046","NA","NA","0","swim","","","","",""
"dual-task","null","null","null","","swim","swim","NA","","A","null","NA","77","0","swim-dual-task","","A","uppercase","762000","1","3","3504a25199d0257290d01dd9b10b2bbb536f491fcc2758c9e431f414e2718f79","762040.2000002861","NA","NA","0","swim","","","","",""
"dual-task","null","null","null","","swim","swim","NA","","Q","null","NA","77","0","swim-dual-task","","Q","uppercase","772000","1","3","3504a25199d0257290d01dd9b10b2bbb536f491fcc2758c9e431f414e2718f79","772000.0999999046","NA","NA","0","swim","","","","",""
"dual-task","null","null","null","","swim","swim","NA","","G","null","NA","77","0","swim-dual-task","","G","uppercase","784000","1","3","3504a25199d0257290d01dd9b10b2bbb536f491fcc2758c9e431f414e2718f79","784000.8000001907","NA","NA","0","swim","","","","",""
"dual-task","null","null","null","","swim","swim","NA","","g","null","NA","88","0","swim-dual-task","","g","lowercase","792000","1","3","3504a25199d0257290d01dd9b10b2bbb536f491fcc2758c9e431f414e2718f79","792000.8000001907","NA","NA","0","swim","","","","",""
"audio-keyboard-response","29","1206288","0.0-7.0-0.0-1.0","3504a25199d0257290d01dd9b10b2bbb536f491fcc2758c9e431f414e2718f79","swim","swim","null","","audio/story_swim_scrambled.mp3","","null","","","","","","","","","","","","","","","","","","","",""
"html-button-response","30","1223320","0.0-7.0-0.0-2.0","3504a25199d0257290d01dd9b10b2bbb536f491fcc2758c9e431f414e2718f79","swim","swim","17030","","<p>This concludes the story. Thank you for listening.</p><p>You will now answer some questions about the content of the story.</p>","0","","","","","","","","","","","","","","","","","","","","",""
"survey-multi-choice","31","1233122","0.0-7.0-0.0-3.0-0.0","3504a25199d0257290d01dd9b10b2bbb536f491fcc2758c9e431f414e2718f79","swim","swim","9796","","<b>How many astronaut candidates reported for duty at the Johnson Space Center?</b>","","","","0","swim-comprehension","","","","","","","","","","","","","{""Q0"":""Two""}","","","",""
"survey-multi-choice","32","1237702","0.0-7.0-0.0-3.0-0.1","3504a25199d0257290d01dd9b10b2bbb536f491fcc2758c9e431f414e2718f79","swim","swim","4325","","<b>Where is the home of naval aviation?</b>","","","","0","swim-comprehension","","","","","","","","","","","","","{""Q0"":""Los Angeles""}","","","",""
"survey-multi-choice","33","1247398","0.0-7.0-0.0-3.0-0.2","3504a25199d0257290d01dd9b10b2bbb536f491fcc2758c9e431f414e2718f79","swim","swim","9442","","<b>How many astronaut candidates passed the first swim test?</b>","","","","0","swim-comprehension","","","","","","","","","","","","","{""Q0"":""Two""}","","","",""
"survey-multi-choice","34","1256702","0.0-7.0-0.0-3.0-0.3","3504a25199d0257290d01dd9b10b2bbb536f491fcc2758c9e431f414e2718f79","swim","swim","9049","","<b>How often does the narrator swim, now that he is a good swimmer?</b>","","","","0","swim-comprehension","","","","","","","","","","","","","{""Q0"":""Every day at the local pool""}","","","",""
"survey-multi-choice","35","1263776","0.0-7.0-0.0-3.0-0.4","3504a25199d0257290d01dd9b10b2bbb536f491fcc2758c9e431f414e2718f79","swim","swim","6806","","<b>What were the astronaut candidates trained to do at the naval air station?</b>","","","","0","swim-comprehension","","","","","","","","","","","","","{""Q0"":""Live in space""}","","","",""
"survey-multi-choice","36","1271239","0.0-7.0-0.0-3.0-0.5","3504a25199d0257290d01dd9b10b2bbb536f491fcc2758c9e431f414e2718f79","swim","swim","7208","","<b>How many times did the astronaut candidates have to complete the final exercise to pass?</b>","","","","0","swim-comprehension","","","","","","","","","","","","","{""Q0"":""Ten""}","","","",""
"survey-multi-choice","37","1282709","0.0-7.0-0.0-3.0-0.6","3504a25199d0257290d01dd9b10b2bbb536f491fcc2758c9e431f414e2718f79","swim","swim","11216","","<b>What was the final step of the first swim test in the pool?</b>","","","","0","swim-comprehension","","","","","","","","","","","","","{""Q0"":""Swim three laps of the pool underwater""}","","","",""
"survey-multi-choice","38","1289605","0.0-7.0-0.0-3.0-0.7","3504a25199d0257290d01dd9b10b2bbb536f491fcc2758c9e431f414e2718f79","swim","swim","6641","","<b>What gave the narrator his greatest feeling of accomplishment?</b>","","","","0","swim-comprehension","","","","","","","","","","","","","{""Q0"":""Seeing Earth from space""}","","","",""
"survey-multi-choice","39","1302523","0.0-7.0-0.0-3.0-0.8","3504a25199d0257290d01dd9b10b2bbb536f491fcc2758c9e431f414e2718f79","swim","swim","12662","","<b>What is the narrator afraid of, aside from the water?</b>","","","","0","swim-comprehension","","","","","","","","","","","","","{""Q0"":""Snakes""}","","","",""
"survey-multi-choice","40","1311092","0.0-7.0-0.0-3.0-0.9","3504a25199d0257290d01dd9b10b2bbb536f491fcc2758c9e431f414e2718f79","swim","swim","8311","","<b>How did the narrator train for his swim test?</b>","","","","0","swim-comprehension","","","","","","","","","","","","","{""Q0"":""Swam at the lake every day""}","","","",""
"html-button-response","41","1314174","0.0-7.0-0.0-4.0","3504a25199d0257290d01dd9b10b2bbb536f491fcc2758c9e431f414e2718f79","swim","swim","2829","","<p>Thank you for your responses.</p><p>You will now answer some questions about your impressions of the story.</p>","0","","","","","","","","","","","","","","","","","","","","",""
"html-button-response","42","1316594","0.0-7.0-0.0-5.0-0.0","3504a25199d0257290d01dd9b10b2bbb536f491fcc2758c9e431f414e2718f79","swim","swim","2419","","E10","4","","","","swim-engagement","","","","","","","","","","","","","","5","enjoyment","",""
"html-button-response","43","1318026","0.0-7.0-0.0-5.0-0.1","3504a25199d0257290d01dd9b10b2bbb536f491fcc2758c9e431f414e2718f79","swim","swim","1177","","A1","3","","","","swim-engagement","","","","","","","","","","","","","","4","absorption","",""
"html-button-response","44","1319486","0.0-7.0-0.0-5.0-0.2","3504a25199d0257290d01dd9b10b2bbb536f491fcc2758c9e431f414e2718f79","swim","swim","1206","","E6","2","","","","swim-engagement","","","","","","","","","","","","","","3","enjoyment","",""
"html-button-response","45","1320848","0.0-7.0-0.0-5.0-0.3","3504a25199d0257290d01dd9b10b2bbb536f491fcc2758c9e431f414e2718f79","swim","swim","1109","","A2","3","","","","swim-engagement","","","","","","","","","","","","","","4","absorption","",""
"html-button-response","46","1322158","0.0-7.0-0.0-5.0-0.4","3504a25199d0257290d01dd9b10b2bbb536f491fcc2758c9e431f414e2718f79","swim","swim","1057","","E7","4","","","","swim-engagement","","","","","","","","","","","","","","5","enjoyment","",""
"html-button-response","47","1323324","0.0-7.0-0.0-5.0-0.5","3504a25199d0257290d01dd9b10b2bbb536f491fcc2758c9e431f414e2718f79","swim","swim","914","","E1","4","","","","swim-engagement","","","","","","","","","","","","","","5","enjoyment","",""
"html-button-response","48","1324598","0.0-7.0-0.0-5.0-0.6","3504a25199d0257290d01dd9b10b2bbb536f491fcc2758c9e431f414e2718f79","swim","swim","1022","","MS1","3","","","","swim-engagement","","","","","","","","","","","","","","4","mental-sim","",""
"html-button-response","49","1325980","0.0-7.0-0.0-5.0-0.7","3504a25199d0257290d01dd9b10b2bbb536f491fcc2758c9e431f414e2718f79","swim","swim","1130","","A5","4","","","","swim-engagement","","","","","","","","","","","","","","5","absorption","",""
"html-button-response","50","1327668","0.0-7.0-0.0-5.0-0.8","3504a25199d0257290d01dd9b10b2bbb536f491fcc2758c9e431f414e2718f79","swim","swim","1435","","A4","5","","","","swim-engagement","","","","","","","","","","","","","","6","absorption","",""
"html-button-response","51","1329030","0.0-7.0-0.0-5.0-0.9","3504a25199d0257290d01dd9b10b2bbb536f491fcc2758c9e431f414e2718f79","swim","swim","1020","","EE1","4","","","","swim-engagement","","","","","","","","","","","","","","5","emo-engage","",""
"html-button-response","52","1330614","0.0-7.0-0.0-5.0-0.10","3504a25199d0257290d01dd9b10b2bbb536f491fcc2758c9e431f414e2718f79","swim","swim","1332","","MS3","3","","","","swim-engagement","","","","","","","","","","","","","","4","mental-sim","",""
"html-button-response","53","1335076","0.0-7.0-0.0-5.0-0.11","3504a25199d0257290d01dd9b10b2bbb536f491fcc2758c9e431f414e2718f79","swim","swim","4053","","A3","4","","","","swim-engagement","","","","","","","","","","","","","","5","absorption","",""
"html-button-response","54","1337448","0.0-7.0-0.0-5.0-0.12","3504a25199d0257290d01dd9b10b2bbb536f491fcc2758c9e431f414e2718f79","swim","swim","2120","","EE2","3","","","","swim-engagement","","","","","","","","","","","","","","4","emo-engage","",""
"html-button-response","55","1339374","0.0-7.0-0.0-5.0-0.13","3504a25199d0257290d01dd9b10b2bbb536f491fcc2758c9e431f414e2718f79","swim","swim","1673","","EE5","2","","","","swim-engagement","","","","","","","","","","","","","","3","emo-engage","",""
"html-button-response","56","1341458","0.0-7.0-0.0-5.0-0.14","3504a25199d0257290d01dd9b10b2bbb536f491fcc2758c9e431f414e2718f79","swim","swim","1831","","EE4","2","","","","swim-engagement","","","","","","","","","","","","","","3","emo-engage","",""
"html-button-response","57","1357029","0.0-7.0-0.0-5.0-0.15","3504a25199d0257290d01dd9b10b2bbb536f491fcc2758c9e431f414e2718f79","swim","swim","15318","","EE3","3","","","","swim-engagement","","","","","","","","","","","","","","4","emo-engage","",""
"html-button-response","58","1358953","0.0-7.0-0.0-5.0-0.16","3504a25199d0257290d01dd9b10b2bbb536f491fcc2758c9e431f414e2718f79","swim","swim","1668","","E8","4","","","","swim-engagement","","","","","","","","","","","","","","5","enjoyment","",""
"html-button-response","59","1360423","0.0-7.0-0.0-5.0-0.17","3504a25199d0257290d01dd9b10b2bbb536f491fcc2758c9e431f414e2718f79","swim","swim","1219","","MS2","3","","","","swim-engagement","","","","","","","","","","","","","","4","mental-sim","",""
"html-keyboard-response","60","1366668","0.0-7.0-1.0","3504a25199d0257290d01dd9b10b2bbb536f491fcc2758c9e431f414e2718f79","swim","swim","5991","","<p>Thank you for your responses. You will now listen to the second story.</p><p>Remember, as you listen to the story you will see letters appear on the screen.</br>As quickly as possible, press <b>&lt;x&gt;</b> if the letter is lowercase and <b>&lt;m&gt;</b> if the letter is uppercase.</p><p>Press <b>&lt;x&gt;</b> or <b>&lt;m&gt;</b> to begin listening!</p>","","88","","","","","","","","","","","","","","","","","","","",""
"html-keyboard-response","61","1367171","0.0-7.0-2.0-0.0","3504a25199d0257290d01dd9b10b2bbb536f491fcc2758c9e431f414e2718f79","swim","swim","null","","<div style=""font-size:60px;"" tabindex=""0"">+</div>","","null","","","","","","","","","","","","","","","","","","","",""
"dual-task","null","null","null","","swim","swim","NA","","T","null","NA","77","0","arctic-dual-task","","T","uppercase","14000","1","3","3504a25199d0257290d01dd9b10b2bbb536f491fcc2758c9e431f414e2718f79","14003.099999904633","NA","NA","0","arctic","","","","",""
"dual-task","null","null","null","","swim","swim","NA","","F","null","NA","77","0","arctic-dual-task","","F","uppercase","28000","1","3","3504a25199d0257290d01dd9b10b2bbb536f491fcc2758c9e431f414e2718f79","28116","NA","NA","0","arctic","","","","",""
"dual-task","null","null","null","","swim","swim","NA","","r","null","NA","88","0","arctic-dual-task","","r","lowercase","38000","1","3","3504a25199d0257290d01dd9b10b2bbb536f491fcc2758c9e431f414e2718f79","38319.40000009537","NA","NA","0","arctic","","","","",""
"dual-task","null","null","null","","swim","swim","NA","","b","null","NA","88","0","arctic-dual-task","","b","lowercase","50000","1","3","3504a25199d0257290d01dd9b10b2bbb536f491fcc2758c9e431f414e2718f79","50000.199999809265","NA","NA","0","arctic","","","","",""
"dual-task","null","null","null","","swim","swim","NA","","h","null","NA","88","0","arctic-dual-task","","h","lowercase","58000","1","3","3504a25199d0257290d01dd9b10b2bbb536f491fcc2758c9e431f414e2718f79","58000.800000190735","NA","NA","0","arctic","","","","",""
"dual-task","null","null","null","","swim","swim","NA","","B","null","NA","77","0","arctic-dual-task","","B","uppercase","70000","1","3","3504a25199d0257290d01dd9b10b2bbb536f491fcc2758c9e431f414e2718f79","70000.09999990463","NA","NA","0","arctic","","","","",""
"dual-task","null","null","null","","swim","swim","NA","","D","null","NA","77","0","arctic-dual-task","","D","uppercase","84000","1","3","3504a25199d0257290d01dd9b10b2bbb536f491fcc2758c9e431f414e2718f79","84000.59999990463","NA","NA","0","arctic","","","","",""
"dual-task","null","null","null","","swim","swim","NA","","D","null","NA","77","0","arctic-dual-task","","D","uppercase","98000","1","3","3504a25199d0257290d01dd9b10b2bbb536f491fcc2758c9e431f414e2718f79","98000.69999980927","NA","NA","0","arctic","","","","",""
"dual-task","null","null","null","","swim","swim","NA","","b","null","NA","88","0","arctic-dual-task","","b","lowercase","112000","1","3","3504a25199d0257290d01dd9b10b2bbb536f491fcc2758c9e431f414e2718f79","112000.30000019073","NA","NA","0","arctic","","","","",""
"dual-task","null","null","null","","swim","swim","NA","","G","null","NA","77","0","arctic-dual-task","","G","uppercase","120000","1","3","3504a25199d0257290d01dd9b10b2bbb536f491fcc2758c9e431f414e2718f79","119999.69999980927","NA","NA","0","arctic","","","","",""
"dual-task","null","null","null","","swim","swim","NA","","t","null","NA","88","0","arctic-dual-task","","t","lowercase","132000","1","3","3504a25199d0257290d01dd9b10b2bbb536f491fcc2758c9e431f414e2718f79","132000.19999980927","NA","NA","0","arctic","","","","",""
"dual-task","null","null","null","","swim","swim","NA","","g","null","NA","88","0","arctic-dual-task","","g","lowercase","146000","1","3","3504a25199d0257290d01dd9b10b2bbb536f491fcc2758c9e431f414e2718f79","146000.69999980927","NA","NA","0","arctic","","","","",""
"dual-task","null","null","null","","swim","swim","NA","","N","null","NA","77","0","arctic-dual-task","","N","uppercase","154000","1","3","3504a25199d0257290d01dd9b10b2bbb536f491fcc2758c9e431f414e2718f79","154001","NA","NA","0","arctic","","","","",""
"dual-task","null","null","null","","swim","swim","NA","","e","null","NA","88","0","arctic-dual-task","","e","lowercase","164000","1","3","3504a25199d0257290d01dd9b10b2bbb536f491fcc2758c9e431f414e2718f79","164000.80000019073","NA","NA","0","arctic","","","","",""
"dual-task","null","null","null","","swim","swim","NA","","Q","null","NA","77","0","arctic-dual-task","","Q","uppercase","178000","1","3","3504a25199d0257290d01dd9b10b2bbb536f491fcc2758c9e431f414e2718f79","178000.30000019073","NA","NA","0","arctic","","","","",""
"dual-task","null","null","null","","swim","swim","NA","","H","null","NA","77","0","arctic-dual-task","","H","uppercase","186000","1","3","3504a25199d0257290d01dd9b10b2bbb536f491fcc2758c9e431f414e2718f79","186000.5","NA","NA","0","arctic","","","","",""
"dual-task","null","null","null","","swim","swim","NA","","g","null","NA","88","0","arctic-dual-task","","g","lowercase","200000","1","3","3504a25199d0257290d01dd9b10b2bbb536f491fcc2758c9e431f414e2718f79","200000.80000019073","NA","NA","0","arctic","","","","",""
"dual-task","null","null","null","","swim","swim","NA","","h","null","NA","88","0","arctic-dual-task","","h","lowercase","212000","1","3","3504a25199d0257290d01dd9b10b2bbb536f491fcc2758c9e431f414e2718f79","212000.5","NA","NA","0","arctic","","","","",""
"dual-task","null","null","null","","swim","swim","NA","","A","null","NA","77","0","arctic-dual-task","","A","uppercase","220000","1","3","3504a25199d0257290d01dd9b10b2bbb536f491fcc2758c9e431f414e2718f79","220000.90000009537","NA","NA","0","arctic","","","","",""
"dual-task","null","null","null","","swim","swim","NA","","R","null","NA","77","0","arctic-dual-task","","R","uppercase","234000","1","3","3504a25199d0257290d01dd9b10b2bbb536f491fcc2758c9e431f414e2718f79","234000.5","NA","NA","0","arctic","","","","",""
"dual-task","null","null","null","","swim","swim","NA","","q","null","NA","88","0","arctic-dual-task","","q","lowercase","246000","1","3","3504a25199d0257290d01dd9b10b2bbb536f491fcc2758c9e431f414e2718f79","246000.59999990463","NA","NA","0","arctic","","","","",""
"dual-task","null","null","null","","swim","swim","NA","","d","null","NA","88","0","arctic-dual-task","","d","lowercase","256000","1","3","3504a25199d0257290d01dd9b10b2bbb536f491fcc2758c9e431f414e2718f79","256000.59999990463","NA","NA","0","arctic","","","","",""
"dual-task","null","null","null","","swim","swim","NA","","T","null","NA","77","0","arctic-dual-task","","T","uppercase","264000","1","3","3504a25199d0257290d01dd9b10b2bbb536f491fcc2758c9e431f414e2718f79","264000.69999980927","NA","NA","0","arctic","","","","",""
"dual-task","null","null","null","","swim","swim","NA","","a","null","NA","88","0","arctic-dual-task","","a","lowercase","274000","1","3","3504a25199d0257290d01dd9b10b2bbb536f491fcc2758c9e431f414e2718f79","274000.5","NA","NA","0","arctic","","","","",""
"dual-task","null","null","null","","swim","swim","NA","","F","null","NA","77","0","arctic-dual-task","","F","uppercase","286000","1","3","3504a25199d0257290d01dd9b10b2bbb536f491fcc2758c9e431f414e2718f79","286012.40000009537","NA","NA","0","arctic","","","","",""
"dual-task","null","null","null","","swim","swim","NA","","d","null","NA","88","0","arctic-dual-task","","d","lowercase","296000","1","3","3504a25199d0257290d01dd9b10b2bbb536f491fcc2758c9e431f414e2718f79","296000.09999990463","NA","NA","0","arctic","","","","",""
"dual-task","null","null","null","","swim","swim","NA","","A","null","NA","77","0","arctic-dual-task","","A","uppercase","306000","1","3","3504a25199d0257290d01dd9b10b2bbb536f491fcc2758c9e431f414e2718f79","306000.59999990463","NA","NA","0","arctic","","","","",""
"dual-task","null","null","null","","swim","swim","NA","","t","null","NA","88","0","arctic-dual-task","","t","lowercase","314000","1","3","3504a25199d0257290d01dd9b10b2bbb536f491fcc2758c9e431f414e2718f79","314000.59999990463","NA","NA","0","arctic","","","","",""
"dual-task","null","null","null","","swim","swim","NA","","G","null","NA","77","0","arctic-dual-task","","G","uppercase","326000","1","3","3504a25199d0257290d01dd9b10b2bbb536f491fcc2758c9e431f414e2718f79","326000.59999990463","NA","NA","0","arctic","","","","",""
"dual-task","null","null","null","","swim","swim","NA","","q","null","NA","88","0","arctic-dual-task","","q","lowercase","334000","1","3","3504a25199d0257290d01dd9b10b2bbb536f491fcc2758c9e431f414e2718f79","334000.09999990463","NA","NA","0","arctic","","","","",""
"dual-task","null","null","null","","swim","swim","NA","","e","null","NA","88","0","arctic-dual-task","","e","lowercase","346000","1","3","3504a25199d0257290d01dd9b10b2bbb536f491fcc2758c9e431f414e2718f79","346001.59999990463","NA","NA","0","arctic","","","","",""
"dual-task","null","null","null","","swim","swim","NA","","r","null","NA","88","0","arctic-dual-task","","r","lowercase","356000","1","3","3504a25199d0257290d01dd9b10b2bbb536f491fcc2758c9e431f414e2718f79","356000.30000019073","NA","NA","0","arctic","","","","",""
"dual-task","null","null","null","","swim","swim","NA","","a","null","NA","88","0","arctic-dual-task","","a","lowercase","366000","1","3","3504a25199d0257290d01dd9b10b2bbb536f491fcc2758c9e431f414e2718f79","366000.80000019073","NA","NA","0","arctic","","","","",""
"dual-task","null","null","null","","swim","swim","NA","","E","null","NA","77","0","arctic-dual-task","","E","uppercase","376000","1","3","3504a25199d0257290d01dd9b10b2bbb536f491fcc2758c9e431f414e2718f79","376013","NA","NA","0","arctic","","","","",""
"dual-task","null","null","null","","swim","swim","NA","","f","null","NA","88","0","arctic-dual-task","","f","lowercase","386000","1","3","3504a25199d0257290d01dd9b10b2bbb536f491fcc2758c9e431f414e2718f79","386000.80000019073","NA","NA","0","arctic","","","","",""
"dual-task","null","null","null","","swim","swim","NA","","E","null","NA","77","0","arctic-dual-task","","E","uppercase","398000","1","3","3504a25199d0257290d01dd9b10b2bbb536f491fcc2758c9e431f414e2718f79","398000.09999990463","NA","NA","0","arctic","","","","",""
"dual-task","null","null","null","","swim","swim","NA","","b","null","NA","88","0","arctic-dual-task","","b","lowercase","404000","1","3","3504a25199d0257290d01dd9b10b2bbb536f491fcc2758c9e431f414e2718f79","404001","NA","NA","0","arctic","","","","",""
"dual-task","null","null","null","","swim","swim","NA","","n","null","NA","88","0","arctic-dual-task","","n","lowercase","418000","1","3","3504a25199d0257290d01dd9b10b2bbb536f491fcc2758c9e431f414e2718f79","418000.30000019073","NA","NA","0","arctic","","","","",""
"dual-task","null","null","null","","swim","swim","NA","","Q","null","NA","77","0","arctic-dual-task","","Q","uppercase","424000","1","3","3504a25199d0257290d01dd9b10b2bbb536f491fcc2758c9e431f414e2718f79","424001.30000019073","NA","NA","0","arctic","","","","",""
"dual-task","null","null","null","","swim","swim","NA","","h","null","NA","88","0","arctic-dual-task","","h","lowercase","436000","1","3","3504a25199d0257290d01dd9b10b2bbb536f491fcc2758c9e431f414e2718f79","436000.40000009537","NA","NA","0","arctic","","","","",""
"dual-task","null","null","null","","swim","swim","NA","","E","null","NA","77","0","arctic-dual-task","","E","uppercase","446000","1","3","3504a25199d0257290d01dd9b10b2bbb536f491fcc2758c9e431f414e2718f79","446001.59999990463","NA","NA","0","arctic","","","","",""
"dual-task","null","null","null","","swim","swim","NA","","R","null","NA","77","0","arctic-dual-task","","R","uppercase","452000","1","3","3504a25199d0257290d01dd9b10b2bbb536f491fcc2758c9e431f414e2718f79","452000.59999990463","NA","NA","0","arctic","","","","",""
"dual-task","null","null","null","","swim","swim","NA","","A","null","NA","77","0","arctic-dual-task","","A","uppercase","460000","1","3","3504a25199d0257290d01dd9b10b2bbb536f491fcc2758c9e431f414e2718f79","460000.40000009537","NA","NA","0","arctic","","","","",""
"dual-task","null","null","null","","swim","swim","NA","","R","null","NA","77","0","arctic-dual-task","","R","uppercase","468000","1","3","3504a25199d0257290d01dd9b10b2bbb536f491fcc2758c9e431f414e2718f79","468001.30000019073","NA","NA","0","arctic","","","","",""
"dual-task","null","null","null","","swim","swim","NA","","r","null","NA","88","0","arctic-dual-task","","r","lowercase","474000","1","3","3504a25199d0257290d01dd9b10b2bbb536f491fcc2758c9e431f414e2718f79","474000.30000019073","NA","NA","0","arctic","","","","",""
"dual-task","null","null","null","","swim","swim","NA","","B","null","NA","77","0","arctic-dual-task","","B","uppercase","484000","1","3","3504a25199d0257290d01dd9b10b2bbb536f491fcc2758c9e431f414e2718f79","484000.90000009537","NA","NA","0","arctic","","","","",""
"dual-task","null","null","null","","swim","swim","NA","","t","null","NA","88","0","arctic-dual-task","","t","lowercase","498000","1","3","3504a25199d0257290d01dd9b10b2bbb536f491fcc2758c9e431f414e2718f79","498001.80000019073","NA","NA","0","arctic","","","","",""
"dual-task","null","null","null","","swim","swim","NA","","H","null","NA","77","0","arctic-dual-task","","H","uppercase","504000","1","3","3504a25199d0257290d01dd9b10b2bbb536f491fcc2758c9e431f414e2718f79","504000.5","NA","NA","0","arctic","","","","",""
"dual-task","null","null","null","","swim","swim","NA","","n","null","NA","88","0","arctic-dual-task","","n","lowercase","512000","1","3","3504a25199d0257290d01dd9b10b2bbb536f491fcc2758c9e431f414e2718f79","512000.59999990463","NA","NA","0","arctic","","","","",""
"dual-task","null","null","null","","swim","swim","NA","","A","null","NA","77","0","arctic-dual-task","","A","uppercase","518000","1","3","3504a25199d0257290d01dd9b10b2bbb536f491fcc2758c9e431f414e2718f79","518001.30000019073","NA","NA","0","arctic","","","","",""
"dual-task","null","null","null","","swim","swim","NA","","D","null","NA","77","0","arctic-dual-task","","D","uppercase","528000","1","3","3504a25199d0257290d01dd9b10b2bbb536f491fcc2758c9e431f414e2718f79","528000.6999998093","NA","NA","0","arctic","","","","",""
"dual-task","null","null","null","","swim","swim","NA","","h","null","NA","88","0","arctic-dual-task","","h","lowercase","536000","1","3","3504a25199d0257290d01dd9b10b2bbb536f491fcc2758c9e431f414e2718f79","536002.9000000954","NA","NA","0","arctic","","","","",""
"dual-task","null","null","null","","swim","swim","NA","","F","null","NA","77","0","arctic-dual-task","","F","uppercase","548000","1","3","3504a25199d0257290d01dd9b10b2bbb536f491fcc2758c9e431f414e2718f79","548001.3000001907","NA","NA","0","arctic","","","","",""
"dual-task","null","null","null","","swim","swim","NA","","a","null","NA","88","0","arctic-dual-task","","a","lowercase","556000","1","3","3504a25199d0257290d01dd9b10b2bbb536f491fcc2758c9e431f414e2718f79","556001.5","NA","NA","0","arctic","","","","",""
"dual-task","null","null","null","","swim","swim","NA","","H","null","NA","77","0","arctic-dual-task","","H","uppercase","568000","1","3","3504a25199d0257290d01dd9b10b2bbb536f491fcc2758c9e431f414e2718f79","568000.9000000954","NA","NA","0","arctic","","","","",""
"dual-task","null","null","null","","swim","swim","NA","","q","null","NA","88","0","arctic-dual-task","","q","lowercase","576000","1","3","3504a25199d0257290d01dd9b10b2bbb536f491fcc2758c9e431f414e2718f79","576001.9000000954","NA","NA","0","arctic","","","","",""
"dual-task","null","null","null","","swim","swim","NA","","N","null","NA","77","0","arctic-dual-task","","N","uppercase","584000","1","3","3504a25199d0257290d01dd9b10b2bbb536f491fcc2758c9e431f414e2718f79","584000.5","NA","NA","0","arctic","","","","",""
"dual-task","null","null","null","","swim","swim","NA","","a","null","NA","88","0","arctic-dual-task","","a","lowercase","592000","1","3","3504a25199d0257290d01dd9b10b2bbb536f491fcc2758c9e431f414e2718f79","592001.5999999046","NA","NA","0","arctic","","","","",""
"dual-task","null","null","null","","swim","swim","NA","","t","null","NA","88","0","arctic-dual-task","","t","lowercase","600000","1","3","3504a25199d0257290d01dd9b10b2bbb536f491fcc2758c9e431f414e2718f79","600001","NA","NA","0","arctic","","","","",""
"dual-task","null","null","null","","swim","swim","NA","","n","null","NA","88","0","arctic-dual-task","","n","lowercase","614000","1","3","3504a25199d0257290d01dd9b10b2bbb536f491fcc2758c9e431f414e2718f79","614000.8000001907","NA","NA","0","arctic","","","","",""
"dual-task","null","null","null","","swim","swim","NA","","f","null","NA","88","0","arctic-dual-task","","f","lowercase","622000","1","3","3504a25199d0257290d01dd9b10b2bbb536f491fcc2758c9e431f414e2718f79","622001.4000000954","NA","NA","0","arctic","","","","",""
"dual-task","null","null","null","","swim","swim","NA","","R","null","NA","77","0","arctic-dual-task","","R","uppercase","628000","1","3","3504a25199d0257290d01dd9b10b2bbb536f491fcc2758c9e431f414e2718f79","628000.3000001907","NA","NA","0","arctic","","","","",""
"dual-task","null","null","null","","swim","swim","NA","","N","null","NA","77","0","arctic-dual-task","","N","uppercase","636000","1","3","3504a25199d0257290d01dd9b10b2bbb536f491fcc2758c9e431f414e2718f79","636000.4000000954","NA","NA","0","arctic","","","","",""
"dual-task","null","null","null","","swim","swim","NA","","e","null","NA","88","0","arctic-dual-task","","e","lowercase","642000","1","3","3504a25199d0257290d01dd9b10b2bbb536f491fcc2758c9e431f414e2718f79","642000.9000000954","NA","NA","0","arctic","","","","",""
"dual-task","null","null","null","","swim","swim","NA","","f","null","NA","88","0","arctic-dual-task","","f","lowercase","650000","1","3","3504a25199d0257290d01dd9b10b2bbb536f491fcc2758c9e431f414e2718f79","650000.8000001907","NA","NA","0","arctic","","","","",""
"dual-task","null","null","null","","swim","swim","NA","","Q","null","NA","77","0","arctic-dual-task","","Q","uppercase","662000","1","3","3504a25199d0257290d01dd9b10b2bbb536f491fcc2758c9e431f414e2718f79","662001.3000001907","NA","NA","0","arctic","","","","",""
"dual-task","null","null","null","","swim","swim","NA","","n","null","NA","88","0","arctic-dual-task","","n","lowercase","668000","1","3","3504a25199d0257290d01dd9b10b2bbb536f491fcc2758c9e431f414e2718f79","668001.5999999046","NA","NA","0","arctic","","","","",""
"dual-task","null","null","null","","swim","swim","NA","","T","null","NA","77","0","arctic-dual-task","","T","uppercase","674000","1","3","3504a25199d0257290d01dd9b10b2bbb536f491fcc2758c9e431f414e2718f79","674001.1999998093","NA","NA","0","arctic","","","","",""
"dual-task","null","null","null","","swim","swim","NA","","F","null","NA","77","0","arctic-dual-task","","F","uppercase","682000","1","3","3504a25199d0257290d01dd9b10b2bbb536f491fcc2758c9e431f414e2718f79","682004.5","NA","NA","0","arctic","","","","",""
"dual-task","null","null","null","","swim","swim","NA","","B","null","NA","77","0","arctic-dual-task","","B","uppercase","696000","1","3","3504a25199d0257290d01dd9b10b2bbb536f491fcc2758c9e431f414e2718f79","696001.8000001907","NA","NA","0","arctic","","","","",""
"dual-task","null","null","null","","swim","swim","NA","","G","null","NA","77","0","arctic-dual-task","","G","uppercase","704000","1","3","3504a25199d0257290d01dd9b10b2bbb536f491fcc2758c9e431f414e2718f79","704001.8000001907","NA","NA","0","arctic","","","","",""
"dual-task","null","null","null","","swim","swim","NA","","g","null","NA","88","0","arctic-dual-task","","g","lowercase","710000","1","3","3504a25199d0257290d01dd9b10b2bbb536f491fcc2758c9e431f414e2718f79","710001.5999999046","NA","NA","0","arctic","","","","",""
"dual-task","null","null","null","","swim","swim","NA","","d","null","NA","88","0","arctic-dual-task","","d","lowercase","722000","1","3","3504a25199d0257290d01dd9b10b2bbb536f491fcc2758c9e431f414e2718f79","722001.9000000954","NA","NA","0","arctic","","","","",""
"dual-task","null","null","null","","swim","swim","NA","","H","null","NA","77","0","arctic-dual-task","","H","uppercase","730000","1","3","3504a25199d0257290d01dd9b10b2bbb536f491fcc2758c9e431f414e2718f79","730002.3000001907","NA","NA","0","arctic","","","","",""
"dual-task","null","null","null","","swim","swim","NA","","r","null","NA","88","0","arctic-dual-task","","r","lowercase","740000","1","3","3504a25199d0257290d01dd9b10b2bbb536f491fcc2758c9e431f414e2718f79","740001.4000000954","NA","NA","0","arctic","","","","",""
"dual-task","null","null","null","","swim","swim","NA","","B","null","NA","77","0","arctic-dual-task","","B","uppercase","750000","1","3","3504a25199d0257290d01dd9b10b2bbb536f491fcc2758c9e431f414e2718f79","750001.3000001907","NA","NA","0","arctic","","","","",""
"dual-task","null","null","null","","swim","swim","NA","","d","null","NA","88","0","arctic-dual-task","","d","lowercase","758000","1","3","3504a25199d0257290d01dd9b10b2bbb536f491fcc2758c9e431f414e2718f79","758000.6999998093","NA","NA","0","arctic","","","","",""
"dual-task","null","null","null","","swim","swim","NA","","g","null","NA","88","0","arctic-dual-task","","g","lowercase","772000","1","3","3504a25199d0257290d01dd9b10b2bbb536f491fcc2758c9e431f414e2718f79","772002.1999998093","NA","NA","0","arctic","","","","",""
"dual-task","null","null","null","","swim","swim","NA","","N","null","NA","77","0","arctic-dual-task","","N","uppercase","782000","1","3","3504a25199d0257290d01dd9b10b2bbb536f491fcc2758c9e431f414e2718f79","782001.4000000954","NA","NA","0","arctic","","","","",""
"audio-keyboard-response","62","2165841","0.0-7.0-2.0-1.0","3504a25199d0257290d01dd9b10b2bbb536f491fcc2758c9e431f414e2718f79","swim","swim","null","","audio/story_arctic.mp3","","null","","","","","","","","","","","","","","","","","","","",""
"html-button-response","63","2190847","0.0-7.0-2.0-2.0","3504a25199d0257290d01dd9b10b2bbb536f491fcc2758c9e431f414e2718f79","swim","swim","25004","","<p>This concludes the story. Thank you for listening.</p><p>You will now answer some questions about the content of the story.</p>","0","","","","","","","","","","","","","","","","","","","","",""
"survey-multi-choice","64","2193787","0.0-7.0-2.0-3.0-0.0","3504a25199d0257290d01dd9b10b2bbb536f491fcc2758c9e431f414e2718f79","swim","swim","2936","","<b>How many sponsorships did the narrator receive to support her expedition?</b>","","","","0","arctic-comprehension","","","","","","","","","","","","","{""Q0"":""Ten""}","","","",""
"survey-multi-choice","65","2197866","0.0-7.0-2.0-3.0-0.1","3504a25199d0257290d01dd9b10b2bbb536f491fcc2758c9e431f414e2718f79","swim","swim","3824","","<b>What was the objective of the narrator&#39;s expedition?</b>","","","","1","arctic-comprehension","","","","","","","","","","","","","{""Q0"":""Dogsled across Arctic America""}","","","",""
"survey-multi-choice","66","2200218","0.0-7.0-2.0-3.0-0.2","3504a25199d0257290d01dd9b10b2bbb536f491fcc2758c9e431f414e2718f79","swim","swim","2095","","<b>How did the dogs respond when they saw the bears?</b>","","","","0","arctic-comprehension","","","","","","","","","","","","","{""Q0"":""Barked aggressively""}","","","",""
"survey-multi-choice","67","2203379","0.0-7.0-2.0-3.0-0.3","3504a25199d0257290d01dd9b10b2bbb536f491fcc2758c9e431f414e2718f79","swim","swim","2907","","<b>What is the name of the narrator&#39;s neighbour?</b>","","","","1","arctic-comprehension","","","","","","","","","","","","","{""Q0"":""Dave""}","","","",""
"survey-multi-choice","68","2205744","0.0-7.0-2.0-3.0-0.4","3504a25199d0257290d01dd9b10b2bbb536f491fcc2758c9e431f414e2718f79","swim","swim","2112","","<b>What were the weather conditions in the Arctic like the winter of the narrator&#39;s expedition?</b>","","","","0","arctic-comprehension","","","","","","","","","","","","","{""Q0"":""It was the coldest winter in recorded history.""}","","","",""
"survey-multi-choice","69","2207989","0.0-7.0-2.0-3.0-0.5","3504a25199d0257290d01dd9b10b2bbb536f491fcc2758c9e431f414e2718f79","swim","swim","1954","","<b>How did the narrator&#39;s encounter with the polar bears end?</b>","","","","1","arctic-comprehension","","","","","","","","","","","","","{""Q0"":""The bears walked back to their den.""}","","","",""
"survey-multi-choice","70","2210324","0.0-7.0-2.0-3.0-0.6","3504a25199d0257290d01dd9b10b2bbb536f491fcc2758c9e431f414e2718f79","swim","swim","2082","","<b>What did the narrator do for leisure while in her tent?</b>","","","","0","arctic-comprehension","","","","","","","","","","","","","{""Q0"":""Take photos""}","","","",""
"survey-multi-choice","71","2212127","0.0-7.0-2.0-3.0-0.7","3504a25199d0257290d01dd9b10b2bbb536f491fcc2758c9e431f414e2718f79","swim","swim","1547","","<b>How did the narrator&#39;s neighbour respond when she told him about her expedition?</b>","","","","0","arctic-comprehension","","","","","","","","","","","","","{""Q0"":""He threw her a party.""}","","","",""
"survey-multi-choice","72","2214574","0.0-7.0-2.0-3.0-0.8","3504a25199d0257290d01dd9b10b2bbb536f491fcc2758c9e431f414e2718f79","swim","swim","2193","","<b>How did the narrator prepare for her expedition?</b>","","","","0","arctic-comprehension","","","","","","","","","","","","","{""Q0"":""Practiced living on rations and taking cold showers""}","","","",""
"survey-multi-choice","73","2216857","0.0-7.0-2.0-3.0-0.9","3504a25199d0257290d01dd9b10b2bbb536f491fcc2758c9e431f414e2718f79","swim","swim","2004","","<b>Which dog on the narrator&#39;s dog team never followed instructions?</b>","","","","1","arctic-comprehension","","","","","","","","","","","","","{""Q0"":""Robert""}","","","",""
"html-button-response","74","2218454","0.0-7.0-2.0-4.0","3504a25199d0257290d01dd9b10b2bbb536f491fcc2758c9e431f414e2718f79","swim","swim","1344","","<p>Thank you for your responses.</p><p>You will now answer some questions about your impressions of the story.</p>","0","","","","","","","","","","","","","","","","","","","","",""
"html-button-response","75","2220020","0.0-7.0-2.0-5.0-0.0","3504a25199d0257290d01dd9b10b2bbb536f491fcc2758c9e431f414e2718f79","swim","swim","1560","","EE1","3","","","","arctic-engagement","","","","","","","","","","","","","","4","emo-engage","",""
"html-button-response","76","2221311","0.0-7.0-2.0-5.0-0.1","3504a25199d0257290d01dd9b10b2bbb536f491fcc2758c9e431f414e2718f79","swim","swim","1039","","MS3","2","","","","arctic-engagement","","","","","","","","","","","","","","3","mental-sim","",""
"html-button-response","77","2222571","0.0-7.0-2.0-5.0-0.2","3504a25199d0257290d01dd9b10b2bbb536f491fcc2758c9e431f414e2718f79","swim","swim","1008","","A2","2","","","","arctic-engagement","","","","","","","","","","","","","","3","absorption","",""
"html-button-response","78","2224087","0.0-7.0-2.0-5.0-0.3","3504a25199d0257290d01dd9b10b2bbb536f491fcc2758c9e431f414e2718f79","swim","swim","1230","","A5","3","","","","arctic-engagement","","","","","","","","","","","","","","4","absorption","",""
"html-button-response","79","2225179","0.0-7.0-2.0-5.0-0.4","3504a25199d0257290d01dd9b10b2bbb536f491fcc2758c9e431f414e2718f79","swim","swim","839","","EE2","4","","","","arctic-engagement","","","","","","","","","","","","","","5","emo-engage","",""
"html-button-response","80","2226279","0.0-7.0-2.0-5.0-0.5","3504a25199d0257290d01dd9b10b2bbb536f491fcc2758c9e431f414e2718f79","swim","swim","847","","A3","2","","","","arctic-engagement","","","","","","","","","","","","","","3","absorption","",""
"html-button-response","81","2227369","0.0-7.0-2.0-5.0-0.6","3504a25199d0257290d01dd9b10b2bbb536f491fcc2758c9e431f414e2718f79","swim","swim","837","","E6","3","","","","arctic-engagement","","","","","","","","","","","","","","4","enjoyment","",""
"html-button-response","82","2228622","0.0-7.0-2.0-5.0-0.7","3504a25199d0257290d01dd9b10b2bbb536f491fcc2758c9e431f414e2718f79","swim","swim","997","","EE4","3","","","","arctic-engagement","","","","","","","","","","","","","","4","emo-engage","",""
"html-button-response","83","2229724","0.0-7.0-2.0-5.0-0.8","3504a25199d0257290d01dd9b10b2bbb536f491fcc2758c9e431f414e2718f79","swim","swim","839","","A1","2","","","","arctic-engagement","","","","","","","","","","","","","","3","absorption","",""
"html-button-response","84","2230765","0.0-7.0-2.0-5.0-0.9","3504a25199d0257290d01dd9b10b2bbb536f491fcc2758c9e431f414e2718f79","swim","swim","788","","EE3","4","","","","arctic-engagement","","","","","","","","","","","","","","5","emo-engage","",""
"html-button-response","85","2232106","0.0-7.0-2.0-5.0-0.10","3504a25199d0257290d01dd9b10b2bbb536f491fcc2758c9e431f414e2718f79","swim","swim","1087","","E8","3","","","","arctic-engagement","","","","","","","","","","","","","","4","enjoyment","",""
"html-button-response","86","2233323","0.0-7.0-2.0-5.0-0.11","3504a25199d0257290d01dd9b10b2bbb536f491fcc2758c9e431f414e2718f79","swim","swim","964","","E7","2","","","","arctic-engagement","","","","","","","","","","","","","","3","enjoyment","",""
"html-button-response","87","2234410","0.0-7.0-2.0-5.0-0.12","3504a25199d0257290d01dd9b10b2bbb536f491fcc2758c9e431f414e2718f79","swim","swim","834","","A4","3","","","","arctic-engagement","","","","","","","","","","","","","","4","absorption","",""
"html-button-response","88","2235477","0.0-7.0-2.0-5.0-0.13","3504a25199d0257290d01dd9b10b2bbb536f491fcc2758c9e431f414e2718f79","swim","swim","814","","MS1","4","","","","arctic-engagement","","","","","","","","","","","","","","5","mental-sim","",""
"html-button-response","89","2236706","0.0-7.0-2.0-5.0-0.14","3504a25199d0257290d01dd9b10b2bbb536f491fcc2758c9e431f414e2718f79","swim","swim","977","","E10","5","","","","arctic-engagement","","","","","","","","","","","","","","6","enjoyment","",""
"html-button-response","90","2237727","0.0-7.0-2.0-5.0-0.15","3504a25199d0257290d01dd9b10b2bbb536f491fcc2758c9e431f414e2718f79","swim","swim","763","","MS2","4","","","","arctic-engagement","","","","","","","","","","","","","","5","mental-sim","",""
"html-button-response","91","2238854","0.0-7.0-2.0-5.0-0.16","3504a25199d0257290d01dd9b10b2bbb536f491fcc2758c9e431f414e2718f79","swim","swim","828","","EE5","5","","","","arctic-engagement","","","","","","","","","","","","","","6","emo-engage","",""
"html-button-response","92","2240197","0.0-7.0-2.0-5.0-0.17","3504a25199d0257290d01dd9b10b2bbb536f491fcc2758c9e431f414e2718f79","swim","swim","1090","","E1","4","","","","arctic-engagement","","","","","","","","","","","","","","5","enjoyment","",""
"html-button-response","93","2242529","0.0-8.0","3504a25199d0257290d01dd9b10b2bbb536f491fcc2758c9e431f414e2718f79","swim","swim","2080","","<p>Thank you for your responses.</p><p>You will now answer some demographic, hearing, and general health questions.</p>","0","","","","","","","","","","","","","","","","","","","","",""
"survey-multi-choice","94","2246521","0.0-9.0-0.0","3504a25199d0257290d01dd9b10b2bbb536f491fcc2758c9e431f414e2718f79","swim","swim","3987","","","","","","","survey","","","","","","","","","","","","","{""Q0"":""Chrome""}","","","browser",""
"survey-text","95","2250116","0.0-9.0-1.0","3504a25199d0257290d01dd9b10b2bbb536f491fcc2758c9e431f414e2718f79","swim","swim","3337.2999997138977","","","","","","","survey","","","","","","","","","","","","","{""AGE"":""32""}","","","age","32"
"survey-multi-choice","96","2254444","0.0-9.0-2.0","3504a25199d0257290d01dd9b10b2bbb536f491fcc2758c9e431f414e2718f79","swim","swim","4075","","","","","","","survey","","","","","","","","","","","","","{""Q0"":""Male""}","","","gender","Male"
"survey-multi-choice","97","2257146","0.0-9.0-4.0","3504a25199d0257290d01dd9b10b2bbb536f491fcc2758c9e431f414e2718f79","swim","swim","2449","","","","","","","survey","","","","","","","","","","","","","{""Q0"":""Right""}","","","handedness","Right"
"survey-multi-choice","98","2260485","0.0-9.0-5.0","3504a25199d0257290d01dd9b10b2bbb536f491fcc2758c9e431f414e2718f79","swim","swim","3084","","","","","","","survey","","","","","","","","","","","","","{""Q0"":""College Degree (2 years)""}","","","education","College Degree (2 years)"
"survey-text","99","2268647","0.0-10.0-0.0","3504a25199d0257290d01dd9b10b2bbb536f491fcc2758c9e431f414e2718f79","swim","swim","7907.5","","","","","","","survey","","","","","","","","","","","","","{""L1"":""ENGLISH""}","","","first-language","ENGLISH"
"survey-text","100","2276042","0.0-10.0-1.0","3504a25199d0257290d01dd9b10b2bbb536f491fcc2758c9e431f414e2718f79","swim","swim","6989.60000038147","","","","","","","survey","","","","","","","","","","","","","{""L2name"":""N/A"",""L2fluency"":"""",""L3name"":"""",""L3fluency"":"""",""L4name"":"""",""L4fluency"":""""}","","","additional-languages","{""L2name"":""N/A"",""L2fluency"":"""",""L3name"":"""",""L3fluency"":"""",""L4name"":"""",""L4fluency"":""""}"
"survey-multi-choice","101","2280464","0.0-10.0-2.0","3504a25199d0257290d01dd9b10b2bbb536f491fcc2758c9e431f414e2718f79","swim","swim","4167","","","","","","","survey","","","","","","","","","","","","","{""Q0"":""No""}","","","hearing-aid","No"
"survey-multi-choice","102","2290396","0.0-10.0-3.0","3504a25199d0257290d01dd9b10b2bbb536f491fcc2758c9e431f414e2718f79","swim","swim","9680","","","","","","","survey","","","","","","","","","","","","","{""Q0"":""Sometimes""}","","","ringing-ears","Sometimes"
"survey-multi-choice","103","2298744","0.0-10.0-4.0-0.0","3504a25199d0257290d01dd9b10b2bbb536f491fcc2758c9e431f414e2718f79","swim","swim","8093","","","","","","","survey","","","","","","","","","","","","","{""Q0"":""Left Ear""}","","","ringing-ear-loc","Left Ear"
"survey-multi-choice","104","2301970","0.0-10.0-5.0","3504a25199d0257290d01dd9b10b2bbb536f491fcc2758c9e431f414e2718f79","swim","swim","2972","","","","","","","survey","","","","","","","","","","","","","{""Q0"":""No""}","","","neuro-disease","No"
"survey-multi-choice","105","2307589","0.0-10.0-7.0","3504a25199d0257290d01dd9b10b2bbb536f491fcc2758c9e431f414e2718f79","swim","swim","5354","","","","","","","survey","","","","","","","","","","","","","{""Q0"":""No""}","","","take-meds","No"
"survey-text","106","2322839","0.0-10.0-9.0","3504a25199d0257290d01dd9b10b2bbb536f491fcc2758c9e431f414e2718f79","swim","swim","14856","","","","","","","survey","","","","","","","","","","","","","{""HC"":""NOT MUCH""}","","","health-concerns","NOT MUCH"
"html-button-response","107","2327245","0.0-11.0-0.0","3504a25199d0257290d01dd9b10b2bbb536f491fcc2758c9e431f414e2718f79","swim","swim","4153","","<p>How would you describe your musical skills/experiences?</p>","4","","","","survey","","","","","","","","","","","","","","","","music-skill","5"
"survey-multi-choice","108","2330506","0.0-11.0-1.0","3504a25199d0257290d01dd9b10b2bbb536f491fcc2758c9e431f414e2718f79","swim","swim","3007","","","","","","","survey","","","","","","","","","","","","","{""Q0"":""No""}","","","music-instrument","No"
"html-button-response","109","2332698","0.0-12.0-0.0","3504a25199d0257290d01dd9b10b2bbb536f491fcc2758c9e431f414e2718f79","swim","swim","1939","","<p>How would you describe your general hearing abilities?</p>","2","","","","survey","","","","","","","","","","","","","","","","ssq-01","3"
"html-button-response","110","2334257","0.0-12.0-1.0","3504a25199d0257290d01dd9b10b2bbb536f491fcc2758c9e431f414e2718f79","swim","swim","1307","","<p>When you talk with someone at a place that strongly reverberates/echoes (e.g., in a church or train station),</br>can you understand what the person says?</p>","5","","","","survey","","","","","","","","","","","","","","","","ssq-02","5"
"html-button-response","111","2336047","0.0-12.0-2.0","3504a25199d0257290d01dd9b10b2bbb536f491fcc2758c9e431f414e2718f79","swim","swim","1536","","<p>When you are with a group (~5 people) in a lively restaurant, can you follow the group's conversation?</p>","4","","","","survey","","","","","","","","","","","","","","","","ssq-03","4"
"html-button-response","112","2337215","0.0-12.0-3.0","3504a25199d0257290d01dd9b10b2bbb536f491fcc2758c9e431f414e2718f79","swim","swim","914","","<p>Based on the sound of a bus or truck, can you tell whether it is moving towards or away from you?</p>","5","","","","survey","","","","","","","","","","","","","","","","ssq-04","5"
"html-button-response","113","2338382","0.0-12.0-4.0","3504a25199d0257290d01dd9b10b2bbb536f491fcc2758c9e431f414e2718f79","swim","swim","914","","<p>When you are in an unknown environment, can you tell from which direction a brief sound originates?</p>","6","","","","survey","","","","","","","","","","","","","","","","ssq-05","6"
"html-button-response","114","2339787","0.0-12.0-5.0","3504a25199d0257290d01dd9b10b2bbb536f491fcc2758c9e431f414e2718f79","swim","swim","1151","","<p>Are you able to ignore distracting sounds when you concentrate on a specific aspect of your acoustic surrounding?</p>","5","","","","survey","","","","","","","","","","","","","","","","ssq-06","5"
"fullscreen","115","2341040","0.0-13.0","3504a25199d0257290d01dd9b10b2bbb536f491fcc2758c9e431f414e2718f79","swim","swim","","","","","","","","","true","","","","","","","","","","","","","","","",""
