"trial_type","trial_index","time_elapsed","internal_node_id","ParticipantID","firstStory","scramStory","rt","url","stimulus","button_pressed","key_press","correctRESP","correct","designation","success","letterStim","letterType","ONSET","TIMEOUT","CONDITION","Participant","ONSET_ACTUAL","RT","RESP","ACC","STORY","responses","response","type","surveyQuestion","QRESP"
"pavlovia","0","10","0.0-0.0","7c9722f615e16d1e84ee220d5b98e3d6324fe67f163924cf527862eb078834cc","arctic","arctic","","","","","","","","","","","","","","","","","","","","","","","","",""
"external-html","1","133430","0.0-1.0","7c9722f615e16d1e84ee220d5b98e3d6324fe67f163924cf527862eb078834cc","arctic","arctic","133169","consent/consent_updated.html","","","","","","","","","","","","","","","","","","","","","","",""
"html-button-response","2","202568","0.0-2.0-0.0","7c9722f615e16d1e84ee220d5b98e3d6324fe67f163924cf527862eb078834cc","arctic","arctic","69136","","<p>Before we begin the main task, you will complete a short volume calibration and headphone check.</p><p>Please make sure you are in a quiet listening environment, that you are wearing headphones, and that your computer's volume is turned on.<p></p>","0","","","","","","","","","","","","","","","","","","","","",""
"html-button-response","3","205867","0.0-2.0-1.0","7c9722f615e16d1e84ee220d5b98e3d6324fe67f163924cf527862eb078834cc","arctic","arctic","3047","","<p>The volume calibration will be first.</p><p>You will hear a thirty-second noise. Please adjust your computer's volume so that this noise is being presented at a comfortable level.<p></p>","0","","","","","","","","","","","","","","","","","","","","",""
"audio-button-response","4","210064","0.0-2.0-2.0","7c9722f615e16d1e84ee220d5b98e3d6324fe67f163924cf527862eb078834cc","arctic","arctic","3716","","audio/volumetest.mp3","0","","","","","","","","","","","","","","","","","","","","",""
"html-keyboard-response","5","216149","0.0-3.0-0.0","7c9722f615e16d1e84ee220d5b98e3d6324fe67f163924cf527862eb078834cc","arctic","arctic","6083","","<p>You will now complete a short headphone check.</p><p>On each trial, you will hear three tones. One of these tones will be quieter than the others. Your task is to identify whether the quiet tone occurred first, second, or third.</p><p>There are six trials in total.<p></p><p></p>(Press SPACEBAR to begin)","","32","","","","","","","","","","","","","","","","","","","",""
"html-keyboard-response","6","216902","0.0-3.0-1.0-0.0","7c9722f615e16d1e84ee220d5b98e3d6324fe67f163924cf527862eb078834cc","arctic","arctic","null","","<div style=""font-size:60px;"">+</div>","","null","","","","","","","","","","","","","","","","","","","",""
"audio-button-response","7","221539","0.0-3.0-1.0-1.0","7c9722f615e16d1e84ee220d5b98e3d6324fe67f163924cf527862eb078834cc","arctic","arctic","4635","","audio/t3_2.mp3","2","","2","1","headphone-test","","","","","","","","","","","","","","","","",""
"html-keyboard-response","8","222041","0.0-3.0-1.0-2.0","7c9722f615e16d1e84ee220d5b98e3d6324fe67f163924cf527862eb078834cc","arctic","arctic","null","","<p>Correct</p>","","null","","","","","","","","","","","","","","","","","","","",""
"html-keyboard-response","9","222554","0.0-3.0-1.0-0.1","7c9722f615e16d1e84ee220d5b98e3d6324fe67f163924cf527862eb078834cc","arctic","arctic","null","","<div style=""font-size:60px;"">+</div>","","null","","","","","","","","","","","","","","","","","","","",""
"audio-button-response","10","227403","0.0-3.0-1.0-1.1","7c9722f615e16d1e84ee220d5b98e3d6324fe67f163924cf527862eb078834cc","arctic","arctic","4848","","audio/t1_2.mp3","0","","0","1","headphone-test","","","","","","","","","","","","","","","","",""
"html-keyboard-response","11","227904","0.0-3.0-1.0-2.1","7c9722f615e16d1e84ee220d5b98e3d6324fe67f163924cf527862eb078834cc","arctic","arctic","null","","<p>Correct</p>","","null","","","","","","","","","","","","","","","","","","","",""
"html-keyboard-response","12","228408","0.0-3.0-1.0-0.2","7c9722f615e16d1e84ee220d5b98e3d6324fe67f163924cf527862eb078834cc","arctic","arctic","null","","<div style=""font-size:60px;"">+</div>","","null","","","","","","","","","","","","","","","","","","","",""
"audio-button-response","13","232875","0.0-3.0-1.0-1.2","7c9722f615e16d1e84ee220d5b98e3d6324fe67f163924cf527862eb078834cc","arctic","arctic","4465","","audio/t1_1.mp3","0","","0","1","headphone-test","","","","","","","","","","","","","","","","",""
"html-keyboard-response","14","233377","0.0-3.0-1.0-2.2","7c9722f615e16d1e84ee220d5b98e3d6324fe67f163924cf527862eb078834cc","arctic","arctic","null","","<p>Correct</p>","","null","","","","","","","","","","","","","","","","","","","",""
"html-keyboard-response","15","233879","0.0-3.0-1.0-0.3","7c9722f615e16d1e84ee220d5b98e3d6324fe67f163924cf527862eb078834cc","arctic","arctic","null","","<div style=""font-size:60px;"">+</div>","","null","","","","","","","","","","","","","","","","","","","",""
"audio-button-response","16","238251","0.0-3.0-1.0-1.3","7c9722f615e16d1e84ee220d5b98e3d6324fe67f163924cf527862eb078834cc","arctic","arctic","4370","","audio/t2_2.mp3","1","","1","1","headphone-test","","","","","","","","","","","","","","","","",""
"html-keyboard-response","17","238752","0.0-3.0-1.0-2.3","7c9722f615e16d1e84ee220d5b98e3d6324fe67f163924cf527862eb078834cc","arctic","arctic","null","","<p>Correct</p>","","null","","","","","","","","","","","","","","","","","","","",""
"html-keyboard-response","18","239253","0.0-3.0-1.0-0.4","7c9722f615e16d1e84ee220d5b98e3d6324fe67f163924cf527862eb078834cc","arctic","arctic","null","","<div style=""font-size:60px;"">+</div>","","null","","","","","","","","","","","","","","","","","","","",""
"audio-button-response","19","243623","0.0-3.0-1.0-1.4","7c9722f615e16d1e84ee220d5b98e3d6324fe67f163924cf527862eb078834cc","arctic","arctic","4368","","audio/t2_1.mp3","1","","1","1","headphone-test","","","","","","","","","","","","","","","","",""
"html-keyboard-response","20","244124","0.0-3.0-1.0-2.4","7c9722f615e16d1e84ee220d5b98e3d6324fe67f163924cf527862eb078834cc","arctic","arctic","null","","<p>Correct</p>","","null","","","","","","","","","","","","","","","","","","","",""
"html-keyboard-response","21","244626","0.0-3.0-1.0-0.5","7c9722f615e16d1e84ee220d5b98e3d6324fe67f163924cf527862eb078834cc","arctic","arctic","null","","<div style=""font-size:60px;"">+</div>","","null","","","","","","","","","","","","","","","","","","","",""
"audio-button-response","22","249079","0.0-3.0-1.0-1.5","7c9722f615e16d1e84ee220d5b98e3d6324fe67f163924cf527862eb078834cc","arctic","arctic","4451","","audio/t3_1.mp3","2","","2","1","headphone-test","","","","","","","","","","","","","","","","",""
"html-keyboard-response","23","249581","0.0-3.0-1.0-2.5","7c9722f615e16d1e84ee220d5b98e3d6324fe67f163924cf527862eb078834cc","arctic","arctic","null","","<p>Correct</p>","","null","","","","","","","","","","","","","","","","","","","",""
"fullscreen","24","251699","0.0-4.0","7c9722f615e16d1e84ee220d5b98e3d6324fe67f163924cf527862eb078834cc","arctic","arctic","","","","","","","","","true","","","","","","","","","","","","","","","",""
"html-button-response","25","471140","0.0-5.0-0.0","7c9722f615e16d1e84ee220d5b98e3d6324fe67f163924cf527862eb078834cc","arctic","arctic","219440","","<p>There are two blocks to this experiment.</p><p>In each block, you will hear a ~13.5 minute story. One of the stories will be scrambled. Please listen carefully to both stories and understand them as best you can.</p><p>After each story, you will be asked some questions to assess your comprehension.</p>","0","","","","","","","","","","","","","","","","","","","","",""
"html-button-response","26","482257","0.0-5.0-1.0","7c9722f615e16d1e84ee220d5b98e3d6324fe67f163924cf527862eb078834cc","arctic","arctic","11115","","<p>During each story, there will be an additional task.</p><p>A letter will occasionally appear on the screen.</br>Your job is to - as quickly as you can - decide whether the letter is lowercase or uppercase and press one of two keys on the keyboard:</p><p>If the letter is <b>lowercase</b>, press key &lt;<b>x</b>&gt;.</p><p>If the letter is <b>uppercase</b>, press key &lt;<b>m</b>&gt;.</p>","0","","","","","","","","","","","","","","","","","","","","",""
"html-keyboard-response","27","1737319","0.0-5.0-2.0","7c9722f615e16d1e84ee220d5b98e3d6324fe67f163924cf527862eb078834cc","arctic","arctic","1255062","","<p>Because we want your responses to be as quick as possible, please keep your index fingers over the keys while listening.</p><p>Each block lasts about 20 minutes.</p><p><b>Press &lt;x&gt; or &lt;m&gt; to start the first block!</b></p>","","88","","","","","","","","","","","","","","","","","","","",""
"html-keyboard-response","28","1737820","0.0-6.0-0.0-0.0","7c9722f615e16d1e84ee220d5b98e3d6324fe67f163924cf527862eb078834cc","arctic","arctic","null","","<div style=""font-size:60px;"" tabindex=""0"">+</div>","","null","","","","","","","","","","","","","","","","","","","",""
"dual-task","null","null","null","","arctic","arctic","1714.9000000059605","","a","null","88","88","1","arctic-dual-task","","a","lowercase","16000","0","4","7c9722f615e16d1e84ee220d5b98e3d6324fe67f163924cf527862eb078834cc","16013.300000011921","1714.9000000059605","88","1","arctic","","","","",""
"dual-task","null","null","null","","arctic","arctic","1110.7999999970198","","H","null","88","77","0","arctic-dual-task","","H","uppercase","22000","0","4","7c9722f615e16d1e84ee220d5b98e3d6324fe67f163924cf527862eb078834cc","22001","1110.7999999970198","88","0","arctic","","","","",""
"dual-task","null","null","null","","arctic","arctic","963.0999999940395","","T","null","77","77","1","arctic-dual-task","","T","uppercase","30000","0","4","7c9722f615e16d1e84ee220d5b98e3d6324fe67f163924cf527862eb078834cc","30012.90000000596","963.0999999940395","77","1","arctic","","","","",""
"dual-task","null","null","null","","arctic","arctic","1178.7999999970198","","T","null","77","77","1","arctic-dual-task","","T","uppercase","40000","0","4","7c9722f615e16d1e84ee220d5b98e3d6324fe67f163924cf527862eb078834cc","40005.10000000894","1178.7999999970198","77","1","arctic","","","","",""
"dual-task","null","null","null","","arctic","arctic","685.9000000059605","","D","null","77","77","1","arctic-dual-task","","D","uppercase","52000","0","4","7c9722f615e16d1e84ee220d5b98e3d6324fe67f163924cf527862eb078834cc","52001.90000000596","685.9000000059605","77","1","arctic","","","","",""
"dual-task","null","null","null","","arctic","arctic","612.4000000059605","","B","null","77","77","1","arctic-dual-task","","B","uppercase","60000","0","4","7c9722f615e16d1e84ee220d5b98e3d6324fe67f163924cf527862eb078834cc","60003","612.4000000059605","77","1","arctic","","","","",""
"dual-task","null","null","null","","arctic","arctic","580.8999999910593","","D","null","77","77","1","arctic-dual-task","","D","uppercase","66000","0","4","7c9722f615e16d1e84ee220d5b98e3d6324fe67f163924cf527862eb078834cc","66002.70000000298","580.8999999910593","77","1","arctic","","","","",""
"dual-task","null","null","null","","arctic","arctic","488.70000000298023","","B","null","77","77","1","arctic-dual-task","","B","uppercase","74000","0","4","7c9722f615e16d1e84ee220d5b98e3d6324fe67f163924cf527862eb078834cc","74022.70000000298","488.70000000298023","77","1","arctic","","","","",""
"dual-task","null","null","null","","arctic","arctic","682.5","","q","null","88","88","1","arctic-dual-task","","q","lowercase","80000","0","4","7c9722f615e16d1e84ee220d5b98e3d6324fe67f163924cf527862eb078834cc","80012.90000000596","682.5","88","1","arctic","","","","",""
"dual-task","null","null","null","","arctic","arctic","622.0999999940395","","e","null","88","88","1","arctic-dual-task","","e","lowercase","94000","0","4","7c9722f615e16d1e84ee220d5b98e3d6324fe67f163924cf527862eb078834cc","94001.30000001192","622.0999999940395","88","1","arctic","","","","",""
"dual-task","null","null","null","","arctic","arctic","698.7999999970198","","f","null","88","88","1","arctic-dual-task","","f","lowercase","106000","0","4","7c9722f615e16d1e84ee220d5b98e3d6324fe67f163924cf527862eb078834cc","106012.5","698.7999999970198","88","1","arctic","","","","",""
"dual-task","null","null","null","","arctic","arctic","900.9000000059605","","E","null","77","77","1","arctic-dual-task","","E","uppercase","118000","0","4","7c9722f615e16d1e84ee220d5b98e3d6324fe67f163924cf527862eb078834cc","118002.5","900.9000000059605","77","1","arctic","","","","",""
"dual-task","null","null","null","","arctic","arctic","659.0999999940395","","G","null","77","77","1","arctic-dual-task","","G","uppercase","130000","0","4","7c9722f615e16d1e84ee220d5b98e3d6324fe67f163924cf527862eb078834cc","130012.10000000894","659.0999999940395","77","1","arctic","","","","",""
"dual-task","null","null","null","","arctic","arctic","699.2000000029802","","N","null","77","77","1","arctic-dual-task","","N","uppercase","142000","0","4","7c9722f615e16d1e84ee220d5b98e3d6324fe67f163924cf527862eb078834cc","142011.80000001192","699.2000000029802","77","1","arctic","","","","",""
"dual-task","null","null","null","","arctic","arctic","798.0999999940395","","d","null","88","88","1","arctic-dual-task","","d","lowercase","156000","0","4","7c9722f615e16d1e84ee220d5b98e3d6324fe67f163924cf527862eb078834cc","156008.5","798.0999999940395","88","1","arctic","","","","",""
"dual-task","null","null","null","","arctic","arctic","784.4000000059605","","t","null","88","88","1","arctic-dual-task","","t","lowercase","162000","0","4","7c9722f615e16d1e84ee220d5b98e3d6324fe67f163924cf527862eb078834cc","162014.20000000298","784.4000000059605","88","1","arctic","","","","",""
"dual-task","null","null","null","","arctic","arctic","510.09999999403954","","B","null","77","77","1","arctic-dual-task","","B","uppercase","176000","0","4","7c9722f615e16d1e84ee220d5b98e3d6324fe67f163924cf527862eb078834cc","176000.60000000894","510.09999999403954","77","1","arctic","","","","",""
"dual-task","null","null","null","","arctic","arctic","842.7999999970198","","b","null","77","88","0","arctic-dual-task","","b","lowercase","184000","0","4","7c9722f615e16d1e84ee220d5b98e3d6324fe67f163924cf527862eb078834cc","184011.60000000894","842.7999999970198","77","0","arctic","","","","",""
"dual-task","null","null","null","","arctic","arctic","638.6999999880791","","r","null","88","88","1","arctic-dual-task","","r","lowercase","192000","0","4","7c9722f615e16d1e84ee220d5b98e3d6324fe67f163924cf527862eb078834cc","192007.80000001192","638.6999999880791","88","1","arctic","","","","",""
"dual-task","null","null","null","","arctic","arctic","778.7000000029802","","N","null","77","77","1","arctic-dual-task","","N","uppercase","206000","0","4","7c9722f615e16d1e84ee220d5b98e3d6324fe67f163924cf527862eb078834cc","206011.70000000298","778.7000000029802","77","1","arctic","","","","",""
"dual-task","null","null","null","","arctic","arctic","619.8999999910593","","a","null","88","88","1","arctic-dual-task","","a","lowercase","216000","0","4","7c9722f615e16d1e84ee220d5b98e3d6324fe67f163924cf527862eb078834cc","216002.10000000894","619.8999999910593","88","1","arctic","","","","",""
"dual-task","null","null","null","","arctic","arctic","719.7999999970198","","Q","null","77","77","1","arctic-dual-task","","Q","uppercase","226000","0","4","7c9722f615e16d1e84ee220d5b98e3d6324fe67f163924cf527862eb078834cc","226014.30000001192","719.7999999970198","77","1","arctic","","","","",""
"dual-task","null","null","null","","arctic","arctic","666.1000000089407","","f","null","88","88","1","arctic-dual-task","","f","lowercase","238000","0","4","7c9722f615e16d1e84ee220d5b98e3d6324fe67f163924cf527862eb078834cc","238011.90000000596","666.1000000089407","88","1","arctic","","","","",""
"dual-task","null","null","null","","arctic","arctic","668.7999999970198","","G","null","77","77","1","arctic-dual-task","","G","uppercase","252000","0","4","7c9722f615e16d1e84ee220d5b98e3d6324fe67f163924cf527862eb078834cc","252001.20000000298","668.7999999970198","77","1","arctic","","","","",""
"dual-task","null","null","null","","arctic","arctic","973.0999999940395","","T","null","77","77","1","arctic-dual-task","","T","uppercase","262000","0","4","7c9722f615e16d1e84ee220d5b98e3d6324fe67f163924cf527862eb078834cc","262000.70000000298","973.0999999940395","77","1","arctic","","","","",""
"dual-task","null","null","null","","arctic","arctic","610.7000000029802","","T","null","77","77","1","arctic-dual-task","","T","uppercase","272000","0","4","7c9722f615e16d1e84ee220d5b98e3d6324fe67f163924cf527862eb078834cc","272010.8000000119","610.7000000029802","77","1","arctic","","","","",""
"dual-task","null","null","null","","arctic","arctic","630.4000000059605","","g","null","88","88","1","arctic-dual-task","","g","lowercase","280000","0","4","7c9722f615e16d1e84ee220d5b98e3d6324fe67f163924cf527862eb078834cc","280007.200000003","630.4000000059605","88","1","arctic","","","","",""
"dual-task","null","null","null","","arctic","arctic","681.9000000059605","","Q","null","77","77","1","arctic-dual-task","","Q","uppercase","288000","0","4","7c9722f615e16d1e84ee220d5b98e3d6324fe67f163924cf527862eb078834cc","288011.5","681.9000000059605","77","1","arctic","","","","",""
"dual-task","null","null","null","","arctic","arctic","700","","g","null","88","88","1","arctic-dual-task","","g","lowercase","294000","0","4","7c9722f615e16d1e84ee220d5b98e3d6324fe67f163924cf527862eb078834cc","294001.5","700","88","1","arctic","","","","",""
"dual-task","null","null","null","","arctic","arctic","809","","F","null","77","77","1","arctic-dual-task","","F","uppercase","302000","0","4","7c9722f615e16d1e84ee220d5b98e3d6324fe67f163924cf527862eb078834cc","302004.200000003","809","77","1","arctic","","","","",""
"dual-task","null","null","null","","arctic","arctic","701","","h","null","88","88","1","arctic-dual-task","","h","lowercase","308000","0","4","7c9722f615e16d1e84ee220d5b98e3d6324fe67f163924cf527862eb078834cc","308000.40000000596","701","88","1","arctic","","","","",""
"dual-task","null","null","null","","arctic","arctic","714.5","","D","null","77","77","1","arctic-dual-task","","D","uppercase","318000","0","4","7c9722f615e16d1e84ee220d5b98e3d6324fe67f163924cf527862eb078834cc","318010.700000003","714.5","77","1","arctic","","","","",""
"dual-task","null","null","null","","arctic","arctic","764.5","","F","null","77","77","1","arctic-dual-task","","F","uppercase","324000","0","4","7c9722f615e16d1e84ee220d5b98e3d6324fe67f163924cf527862eb078834cc","324000.5","764.5","77","1","arctic","","","","",""
"dual-task","null","null","null","","arctic","arctic","971.0999999940395","","t","null","88","88","1","arctic-dual-task","","t","lowercase","330000","0","4","7c9722f615e16d1e84ee220d5b98e3d6324fe67f163924cf527862eb078834cc","330010.40000000596","971.0999999940395","88","1","arctic","","","","",""
"dual-task","null","null","null","","arctic","arctic","880.7000000029802","","q","null","88","88","1","arctic-dual-task","","q","lowercase","338000","0","4","7c9722f615e16d1e84ee220d5b98e3d6324fe67f163924cf527862eb078834cc","338012","880.7000000029802","88","1","arctic","","","","",""
"dual-task","null","null","null","","arctic","arctic","873","","a","null","88","88","1","arctic-dual-task","","a","lowercase","348000","0","4","7c9722f615e16d1e84ee220d5b98e3d6324fe67f163924cf527862eb078834cc","348019.8000000119","873","88","1","arctic","","","","",""
"dual-task","null","null","null","","arctic","arctic","906.5999999940395","","R","null","88","77","0","arctic-dual-task","","R","uppercase","362000","0","4","7c9722f615e16d1e84ee220d5b98e3d6324fe67f163924cf527862eb078834cc","362010.10000000894","906.5999999940395","88","0","arctic","","","","",""
"dual-task","null","null","null","","arctic","arctic","765","","E","null","77","77","1","arctic-dual-task","","E","uppercase","374000","0","4","7c9722f615e16d1e84ee220d5b98e3d6324fe67f163924cf527862eb078834cc","373999.90000000596","765","77","1","arctic","","","","",""
"dual-task","null","null","null","","arctic","arctic","672.7999999970198","","b","null","88","88","1","arctic-dual-task","","b","lowercase","384000","0","4","7c9722f615e16d1e84ee220d5b98e3d6324fe67f163924cf527862eb078834cc","384019.60000000894","672.7999999970198","88","1","arctic","","","","",""
"dual-task","null","null","null","","arctic","arctic","764.7999999970198","","H","null","77","77","1","arctic-dual-task","","H","uppercase","390000","0","4","7c9722f615e16d1e84ee220d5b98e3d6324fe67f163924cf527862eb078834cc","389999.8000000119","764.7999999970198","77","1","arctic","","","","",""
"dual-task","null","null","null","","arctic","arctic","1082.7999999970198","","A","null","77","77","1","arctic-dual-task","","A","uppercase","402000","0","4","7c9722f615e16d1e84ee220d5b98e3d6324fe67f163924cf527862eb078834cc","402009.5","1082.7999999970198","77","1","arctic","","","","",""
"dual-task","null","null","null","","arctic","arctic","834.5999999940395","","G","null","77","77","1","arctic-dual-task","","G","uppercase","410000","0","4","7c9722f615e16d1e84ee220d5b98e3d6324fe67f163924cf527862eb078834cc","410009.60000000894","834.5999999940395","77","1","arctic","","","","",""
"dual-task","null","null","null","","arctic","arctic","787.0999999940395","","h","null","88","88","1","arctic-dual-task","","h","lowercase","416000","0","4","7c9722f615e16d1e84ee220d5b98e3d6324fe67f163924cf527862eb078834cc","416009.40000000596","787.0999999940395","88","1","arctic","","","","",""
"dual-task","null","null","null","","arctic","arctic","837.5","","h","null","88","88","1","arctic-dual-task","","h","lowercase","426000","0","4","7c9722f615e16d1e84ee220d5b98e3d6324fe67f163924cf527862eb078834cc","426006.8000000119","837.5","88","1","arctic","","","","",""
"dual-task","null","null","null","","arctic","arctic","922.9000000059605","","B","null","77","77","1","arctic-dual-task","","B","uppercase","434000","0","4","7c9722f615e16d1e84ee220d5b98e3d6324fe67f163924cf527862eb078834cc","434009.10000000894","922.9000000059605","77","1","arctic","","","","",""
"dual-task","null","null","null","","arctic","arctic","690.9000000059605","","E","null","77","77","1","arctic-dual-task","","E","uppercase","444000","0","4","7c9722f615e16d1e84ee220d5b98e3d6324fe67f163924cf527862eb078834cc","444017.3000000119","690.9000000059605","77","1","arctic","","","","",""
"dual-task","null","null","null","","arctic","arctic","826.2000000029802","","N","null","77","77","1","arctic-dual-task","","N","uppercase","458000","0","4","7c9722f615e16d1e84ee220d5b98e3d6324fe67f163924cf527862eb078834cc","458000.8000000119","826.2000000029802","77","1","arctic","","","","",""
"dual-task","null","null","null","","arctic","arctic","872.4000000059605","","R","null","77","77","1","arctic-dual-task","","R","uppercase","466000","0","4","7c9722f615e16d1e84ee220d5b98e3d6324fe67f163924cf527862eb078834cc","466019.200000003","872.4000000059605","77","1","arctic","","","","",""
"dual-task","null","null","null","","arctic","arctic","778.9000000059605","","n","null","88","88","1","arctic-dual-task","","n","lowercase","478000","0","4","7c9722f615e16d1e84ee220d5b98e3d6324fe67f163924cf527862eb078834cc","478008.90000000596","778.9000000059605","88","1","arctic","","","","",""
"dual-task","null","null","null","","arctic","arctic","705","","r","null","88","88","1","arctic-dual-task","","r","lowercase","492000","0","4","7c9722f615e16d1e84ee220d5b98e3d6324fe67f163924cf527862eb078834cc","492018.60000000894","705","88","1","arctic","","","","",""
"dual-task","null","null","null","","arctic","arctic","849.0999999940395","","n","null","88","88","1","arctic-dual-task","","n","lowercase","506000","0","4","7c9722f615e16d1e84ee220d5b98e3d6324fe67f163924cf527862eb078834cc","506018.5","849.0999999940395","88","1","arctic","","","","",""
"dual-task","null","null","null","","arctic","arctic","1061.7999999970198","","H","null","77","77","1","arctic-dual-task","","H","uppercase","520000","0","4","7c9722f615e16d1e84ee220d5b98e3d6324fe67f163924cf527862eb078834cc","520005.3000000119","1061.7999999970198","77","1","arctic","","","","",""
"dual-task","null","null","null","","arctic","arctic","754.9000000059605","","n","null","88","88","1","arctic-dual-task","","n","lowercase","532000","0","4","7c9722f615e16d1e84ee220d5b98e3d6324fe67f163924cf527862eb078834cc","532008.5","754.9000000059605","88","1","arctic","","","","",""
"dual-task","null","null","null","","arctic","arctic","680.5999999940395","","e","null","88","88","1","arctic-dual-task","","e","lowercase","544000","0","4","7c9722f615e16d1e84ee220d5b98e3d6324fe67f163924cf527862eb078834cc","544018.5","680.5999999940395","88","1","arctic","","","","",""
"dual-task","null","null","null","","arctic","arctic","1386.5999999940395","","G","null","77","77","1","arctic-dual-task","","G","uppercase","550000","0","4","7c9722f615e16d1e84ee220d5b98e3d6324fe67f163924cf527862eb078834cc","550008.3000000119","1386.5999999940395","77","1","arctic","","","","",""
"dual-task","null","null","null","","arctic","arctic","619","","r","null","88","88","1","arctic-dual-task","","r","lowercase","558000","0","4","7c9722f615e16d1e84ee220d5b98e3d6324fe67f163924cf527862eb078834cc","558007.900000006","619","88","1","arctic","","","","",""
"dual-task","null","null","null","","arctic","arctic","650.7999999970198","","f","null","88","88","1","arctic-dual-task","","f","lowercase","566000","0","4","7c9722f615e16d1e84ee220d5b98e3d6324fe67f163924cf527862eb078834cc","566007.900000006","650.7999999970198","88","1","arctic","","","","",""
"dual-task","null","null","null","","arctic","arctic","794.2000000029802","","n","null","88","88","1","arctic-dual-task","","n","lowercase","580000","0","4","7c9722f615e16d1e84ee220d5b98e3d6324fe67f163924cf527862eb078834cc","580008.700000003","794.2000000029802","88","1","arctic","","","","",""
"dual-task","null","null","null","","arctic","arctic","840.6000000089407","","g","null","88","88","1","arctic-dual-task","","g","lowercase","588000","0","4","7c9722f615e16d1e84ee220d5b98e3d6324fe67f163924cf527862eb078834cc","588018","840.6000000089407","88","1","arctic","","","","",""
"dual-task","null","null","null","","arctic","arctic","1160.5","","A","null","77","77","1","arctic-dual-task","","A","uppercase","598000","0","4","7c9722f615e16d1e84ee220d5b98e3d6324fe67f163924cf527862eb078834cc","598017.900000006","1160.5","77","1","arctic","","","","",""
"dual-task","null","null","null","","arctic","arctic","682.4000000059605","","N","null","77","77","1","arctic-dual-task","","N","uppercase","606000","0","4","7c9722f615e16d1e84ee220d5b98e3d6324fe67f163924cf527862eb078834cc","606007.900000006","682.4000000059605","77","1","arctic","","","","",""
"dual-task","null","null","null","","arctic","arctic","969","","Q","null","77","77","1","arctic-dual-task","","Q","uppercase","616000","0","4","7c9722f615e16d1e84ee220d5b98e3d6324fe67f163924cf527862eb078834cc","616017.5","969","77","1","arctic","","","","",""
"dual-task","null","null","null","","arctic","arctic","675.0999999940395","","R","null","88","77","0","arctic-dual-task","","R","uppercase","630000","0","4","7c9722f615e16d1e84ee220d5b98e3d6324fe67f163924cf527862eb078834cc","630007.400000006","675.0999999940395","88","0","arctic","","","","",""
"dual-task","null","null","null","","arctic","arctic","731.0999999940395","","d","null","88","88","1","arctic-dual-task","","d","lowercase","640000","0","4","7c9722f615e16d1e84ee220d5b98e3d6324fe67f163924cf527862eb078834cc","640007.3000000119","731.0999999940395","88","1","arctic","","","","",""
"dual-task","null","null","null","","arctic","arctic","848.7000000029802","","e","null","88","88","1","arctic-dual-task","","e","lowercase","652000","0","4","7c9722f615e16d1e84ee220d5b98e3d6324fe67f163924cf527862eb078834cc","652017.400000006","848.7000000029802","88","1","arctic","","","","",""
"dual-task","null","null","null","","arctic","arctic","715","","g","null","88","88","1","arctic-dual-task","","g","lowercase","666000","0","4","7c9722f615e16d1e84ee220d5b98e3d6324fe67f163924cf527862eb078834cc","666006.900000006","715","88","1","arctic","","","","",""
"dual-task","null","null","null","","arctic","arctic","464.59999999403954","","e","null","88","88","1","arctic-dual-task","","e","lowercase","676000","0","4","7c9722f615e16d1e84ee220d5b98e3d6324fe67f163924cf527862eb078834cc","676017.1000000089","464.59999999403954","88","1","arctic","","","","",""
"dual-task","null","null","null","","arctic","arctic","1459.2000000029802","","H","null","88","77","0","arctic-dual-task","","H","uppercase","684000","0","4","7c9722f615e16d1e84ee220d5b98e3d6324fe67f163924cf527862eb078834cc","684006.700000003","1459.2000000029802","88","0","arctic","","","","",""
"dual-task","null","null","null","","arctic","arctic","822.7999999970198","","q","null","88","88","1","arctic-dual-task","","q","lowercase","694000","0","4","7c9722f615e16d1e84ee220d5b98e3d6324fe67f163924cf527862eb078834cc","694010.6000000089","822.7999999970198","88","1","arctic","","","","",""
"dual-task","null","null","null","","arctic","arctic","735.5","","q","null","88","88","1","arctic-dual-task","","q","lowercase","706000","0","4","7c9722f615e16d1e84ee220d5b98e3d6324fe67f163924cf527862eb078834cc","706001.900000006","735.5","88","1","arctic","","","","",""
"dual-task","null","null","null","","arctic","arctic","675.2000000029802","","b","null","88","88","1","arctic-dual-task","","b","lowercase","714000","0","4","7c9722f615e16d1e84ee220d5b98e3d6324fe67f163924cf527862eb078834cc","714006.5","675.2000000029802","88","1","arctic","","","","",""
"dual-task","null","null","null","","arctic","arctic","1867","","t","null","88","88","1","arctic-dual-task","","t","lowercase","728000","0","4","7c9722f615e16d1e84ee220d5b98e3d6324fe67f163924cf527862eb078834cc","728006.400000006","1867","88","1","arctic","","","","",""
"dual-task","null","null","null","","arctic","arctic","595.0999999940395","","F","null","77","77","1","arctic-dual-task","","F","uppercase","742000","0","4","7c9722f615e16d1e84ee220d5b98e3d6324fe67f163924cf527862eb078834cc","742006.3000000119","595.0999999940395","77","1","arctic","","","","",""
"dual-task","null","null","null","","arctic","arctic","699","","r","null","88","88","1","arctic-dual-task","","r","lowercase","756000","0","4","7c9722f615e16d1e84ee220d5b98e3d6324fe67f163924cf527862eb078834cc","756014.200000003","699","88","1","arctic","","","","",""
"dual-task","null","null","null","","arctic","arctic","1421.800000011921","","F","null","77","77","1","arctic-dual-task","","F","uppercase","762000","0","4","7c9722f615e16d1e84ee220d5b98e3d6324fe67f163924cf527862eb078834cc","762002.900000006","1421.800000011921","77","1","arctic","","","","",""
"dual-task","null","null","null","","arctic","arctic","751.7000000029802","","E","null","77","77","1","arctic-dual-task","","E","uppercase","770000","0","4","7c9722f615e16d1e84ee220d5b98e3d6324fe67f163924cf527862eb078834cc","770001.3000000119","751.7000000029802","77","1","arctic","","","","",""
"dual-task","null","null","null","","arctic","arctic","578.8999999910593","","A","null","77","77","1","arctic-dual-task","","A","uppercase","776000","0","4","7c9722f615e16d1e84ee220d5b98e3d6324fe67f163924cf527862eb078834cc","776005.700000003","578.8999999910593","77","1","arctic","","","","",""
"dual-task","null","null","null","","arctic","arctic","675.7999999970198","","f","null","88","88","1","arctic-dual-task","","f","lowercase","784000","0","4","7c9722f615e16d1e84ee220d5b98e3d6324fe67f163924cf527862eb078834cc","784013.1000000089","675.7999999970198","88","1","arctic","","","","",""
"audio-keyboard-response","29","2535840","0.0-6.0-0.0-1.0","7c9722f615e16d1e84ee220d5b98e3d6324fe67f163924cf527862eb078834cc","arctic","arctic","null","","audio/story_arctic_scrambled.mp3","","null","","","","","","","","","","","","","","","","","","","",""
"html-button-response","30","3056320","0.0-6.0-0.0-2.0","7c9722f615e16d1e84ee220d5b98e3d6324fe67f163924cf527862eb078834cc","arctic","arctic","520480","","<p>This concludes the story. Thank you for listening.</p><p>You will now answer some questions about the content of the story.</p>","0","","","","","","","","","","","","","","","","","","","","",""
"survey-multi-choice","31","3064588","0.0-6.0-0.0-3.0-0.0","7c9722f615e16d1e84ee220d5b98e3d6324fe67f163924cf527862eb078834cc","arctic","arctic","8266","","<b>How did the narrator&#39;s encounter with the polar bears end?</b>","","","","0","arctic-comprehension","","","","","","","","","","","","","{""Q0"":""She shot the bear with her shotgun.""}","","","",""
"survey-multi-choice","32","3070348","0.0-6.0-0.0-3.0-0.1","7c9722f615e16d1e84ee220d5b98e3d6324fe67f163924cf527862eb078834cc","arctic","arctic","5506","","<b>What is the name of the narrator&#39;s neighbour?</b>","","","","1","arctic-comprehension","","","","","","","","","","","","","{""Q0"":""Dave""}","","","",""
"survey-multi-choice","33","3075284","0.0-6.0-0.0-3.0-0.2","7c9722f615e16d1e84ee220d5b98e3d6324fe67f163924cf527862eb078834cc","arctic","arctic","4682","","<b>How many sponsorships did the narrator receive to support her expedition?</b>","","","","0","arctic-comprehension","","","","","","","","","","","","","{""Q0"":""Ten""}","","","",""
"survey-multi-choice","34","3082052","0.0-6.0-0.0-3.0-0.3","7c9722f615e16d1e84ee220d5b98e3d6324fe67f163924cf527862eb078834cc","arctic","arctic","6515","","<b>How did the dogs respond when they saw the bears?</b>","","","","1","arctic-comprehension","","","","","","","","","","","","","{""Q0"":""Approached them""}","","","",""
"survey-multi-choice","35","3086888","0.0-6.0-0.0-3.0-0.4","7c9722f615e16d1e84ee220d5b98e3d6324fe67f163924cf527862eb078834cc","arctic","arctic","4583","","<b>Which dog on the narrator&#39;s dog team never followed instructions?</b>","","","","0","arctic-comprehension","","","","","","","","","","","","","{""Q0"":""Douggie-dog""}","","","",""
"survey-multi-choice","36","3093932","0.0-6.0-0.0-3.0-0.5","7c9722f615e16d1e84ee220d5b98e3d6324fe67f163924cf527862eb078834cc","arctic","arctic","6789","","<b>What did the narrator do for leisure while in her tent?</b>","","","","1","arctic-comprehension","","","","","","","","","","","","","{""Q0"":""Read""}","","","",""
"survey-multi-choice","37","3100700","0.0-6.0-0.0-3.0-0.6","7c9722f615e16d1e84ee220d5b98e3d6324fe67f163924cf527862eb078834cc","arctic","arctic","6514","","<b>How did the narrator&#39;s neighbour respond when she told him about her expedition?</b>","","","","0","arctic-comprehension","","","","","","","","","","","","","{""Q0"":""He said he was worried about her.""}","","","",""
"survey-multi-choice","38","3109127","0.0-6.0-0.0-3.0-0.7","7c9722f615e16d1e84ee220d5b98e3d6324fe67f163924cf527862eb078834cc","arctic","arctic","8173","","<b>What was the objective of the narrator&#39;s expedition?</b>","","","","1","arctic-comprehension","","","","","","","","","","","","","{""Q0"":""Dogsled across Arctic America""}","","","",""
"survey-multi-choice","39","3123224","0.0-6.0-0.0-3.0-0.8","7c9722f615e16d1e84ee220d5b98e3d6324fe67f163924cf527862eb078834cc","arctic","arctic","13844","","<b>How did the narrator prepare for her expedition?</b>","","","","1","arctic-comprehension","","","","","","","","","","","","","{""Q0"":""Trained in Alaska learning how to dogsled""}","","","",""
"survey-multi-choice","40","3199451","0.0-6.0-0.0-3.0-0.9","7c9722f615e16d1e84ee220d5b98e3d6324fe67f163924cf527862eb078834cc","arctic","arctic","75973","","<b>What were the weather conditions in the Arctic like the winter of the narrator&#39;s expedition?</b>","","","","1","arctic-comprehension","","","","","","","","","","","","","{""Q0"":""There were more storms than any other winter in recorded history.""}","","","",""
"html-button-response","41","3201562","0.0-6.0-0.0-4.0","7c9722f615e16d1e84ee220d5b98e3d6324fe67f163924cf527862eb078834cc","arctic","arctic","1860","","<p>Thank you for your responses.</p><p>You will now answer some questions about your impressions of the story.</p>","0","","","","","","","","","","","","","","","","","","","","",""
"html-button-response","42","3204423","0.0-6.0-0.0-5.0-0.0","7c9722f615e16d1e84ee220d5b98e3d6324fe67f163924cf527862eb078834cc","arctic","arctic","2859","","MS3","5","","","","arctic-engagement","","","","","","","","","","","","","","6","mental-sim","",""
"html-button-response","43","3222382","0.0-6.0-0.0-5.0-0.1","7c9722f615e16d1e84ee220d5b98e3d6324fe67f163924cf527862eb078834cc","arctic","arctic","17708","","A3","4","","","","arctic-engagement","","","","","","","","","","","","","","5","absorption","",""
"html-button-response","44","3234082","0.0-6.0-0.0-5.0-0.2","7c9722f615e16d1e84ee220d5b98e3d6324fe67f163924cf527862eb078834cc","arctic","arctic","11439","","E10","5","","","","arctic-engagement","","","","","","","","","","","","","","6","enjoyment","",""
"html-button-response","45","3242958","0.0-6.0-0.0-5.0-0.3","7c9722f615e16d1e84ee220d5b98e3d6324fe67f163924cf527862eb078834cc","arctic","arctic","8623","","E7","4","","","","arctic-engagement","","","","","","","","","","","","","","5","enjoyment","",""
"html-button-response","46","3245570","0.0-6.0-0.0-5.0-0.4","7c9722f615e16d1e84ee220d5b98e3d6324fe67f163924cf527862eb078834cc","arctic","arctic","2360","","EE2","4","","","","arctic-engagement","","","","","","","","","","","","","","5","emo-engage","",""
"html-button-response","47","3283486","0.0-6.0-0.0-5.0-0.5","7c9722f615e16d1e84ee220d5b98e3d6324fe67f163924cf527862eb078834cc","arctic","arctic","37663","","MS1","5","","","","arctic-engagement","","","","","","","","","","","","","","6","mental-sim","",""
"html-button-response","48","3287002","0.0-6.0-0.0-5.0-0.6","7c9722f615e16d1e84ee220d5b98e3d6324fe67f163924cf527862eb078834cc","arctic","arctic","3264","","E6","4","","","","arctic-engagement","","","","","","","","","","","","","","5","enjoyment","",""
"html-button-response","49","3306314","0.0-6.0-0.0-5.0-0.7","7c9722f615e16d1e84ee220d5b98e3d6324fe67f163924cf527862eb078834cc","arctic","arctic","19059","","A2","6","","","","arctic-engagement","","","","","","","","","","","","","","7","absorption","",""
"html-button-response","50","3331830","0.0-6.0-0.0-5.0-0.8","7c9722f615e16d1e84ee220d5b98e3d6324fe67f163924cf527862eb078834cc","arctic","arctic","25264","","E1","5","","","","arctic-engagement","","","","","","","","","","","","","","6","enjoyment","",""
"html-button-response","51","3345382","0.0-6.0-0.0-5.0-0.9","7c9722f615e16d1e84ee220d5b98e3d6324fe67f163924cf527862eb078834cc","arctic","arctic","13300","","EE3","4","","","","arctic-engagement","","","","","","","","","","","","","","5","emo-engage","",""
"html-button-response","52","3354318","0.0-6.0-0.0-5.0-0.10","7c9722f615e16d1e84ee220d5b98e3d6324fe67f163924cf527862eb078834cc","arctic","arctic","8684","","EE5","5","","","","arctic-engagement","","","","","","","","","","","","","","6","emo-engage","",""
"html-button-response","53","3390293","0.0-6.0-0.0-5.0-0.11","7c9722f615e16d1e84ee220d5b98e3d6324fe67f163924cf527862eb078834cc","arctic","arctic","35723","","MS2","4","","","","arctic-engagement","","","","","","","","","","","","","","5","mental-sim","",""
"html-button-response","54","3460005","0.0-6.0-0.0-5.0-0.12","7c9722f615e16d1e84ee220d5b98e3d6324fe67f163924cf527862eb078834cc","arctic","arctic","69460","","A1","2","","","","arctic-engagement","","","","","","","","","","","","","","3","absorption","",""
"html-button-response","55","3527532","0.0-6.0-0.0-5.0-0.13","7c9722f615e16d1e84ee220d5b98e3d6324fe67f163924cf527862eb078834cc","arctic","arctic","67275","","E8","5","","","","arctic-engagement","","","","","","","","","","","","","","6","enjoyment","",""
"html-button-response","56","3559616","0.0-6.0-0.0-5.0-0.14","7c9722f615e16d1e84ee220d5b98e3d6324fe67f163924cf527862eb078834cc","arctic","arctic","31832","","EE1","4","","","","arctic-engagement","","","","","","","","","","","","","","5","emo-engage","",""
"html-button-response","57","3567996","0.0-6.0-0.0-5.0-0.15","7c9722f615e16d1e84ee220d5b98e3d6324fe67f163924cf527862eb078834cc","arctic","arctic","8128","","A5","2","","","","arctic-engagement","","","","","","","","","","","","","","3","absorption","",""
"html-button-response","58","3571360","0.0-6.0-0.0-5.0-0.16","7c9722f615e16d1e84ee220d5b98e3d6324fe67f163924cf527862eb078834cc","arctic","arctic","3113","","A4","2","","","","arctic-engagement","","","","","","","","","","","","","","3","absorption","",""
"html-button-response","59","3574996","0.0-6.0-0.0-5.0-0.17","7c9722f615e16d1e84ee220d5b98e3d6324fe67f163924cf527862eb078834cc","arctic","arctic","3383","","EE4","4","","","","arctic-engagement","","","","","","","","","","","","","","5","emo-engage","",""
"html-keyboard-response","60","3801035","0.0-6.0-1.0","7c9722f615e16d1e84ee220d5b98e3d6324fe67f163924cf527862eb078834cc","arctic","arctic","225787","","<p>Thank you for your responses. You will now listen to the second story.</p><p>Remember, as you listen to the story you will see letters appear on the screen.</br>As quickly as possible, press <b>&lt;x&gt;</b> if the letter is lowercase and <b>&lt;m&gt;</b> if the letter is uppercase.</p><p>Press <b>&lt;x&gt;</b> or <b>&lt;m&gt;</b> to begin listening!</p>","","88","","","","","","","","","","","","","","","","","","","",""
"html-keyboard-response","61","3801536","0.0-6.0-2.0-0.0","7c9722f615e16d1e84ee220d5b98e3d6324fe67f163924cf527862eb078834cc","arctic","arctic","null","","<div style=""font-size:60px;"" tabindex=""0"">+</div>","","null","","","","","","","","","","","","","","","","","","","",""
"dual-task","null","null","null","","arctic","arctic","916.7999999970198","","f","null","88","88","1","swim-dual-task","","f","lowercase","16000","0","4","7c9722f615e16d1e84ee220d5b98e3d6324fe67f163924cf527862eb078834cc","16020.10000000894","916.7999999970198","88","1","swim","","","","",""
"dual-task","null","null","null","","arctic","arctic","575","","t","null","88","88","1","swim-dual-task","","t","lowercase","22000","0","4","7c9722f615e16d1e84ee220d5b98e3d6324fe67f163924cf527862eb078834cc","22009.80000001192","575","88","1","swim","","","","",""
"dual-task","null","null","null","","arctic","arctic","471.5","","h","null","88","88","1","swim-dual-task","","h","lowercase","36000","0","4","7c9722f615e16d1e84ee220d5b98e3d6324fe67f163924cf527862eb078834cc","36009.40000000596","471.5","88","1","swim","","","","",""
"dual-task","null","null","null","","arctic","arctic","970.5","","a","null","88","88","1","swim-dual-task","","a","lowercase","46000","0","4","7c9722f615e16d1e84ee220d5b98e3d6324fe67f163924cf527862eb078834cc","46014.40000000596","970.5","88","1","swim","","","","",""
"dual-task","null","null","null","","arctic","arctic","606.4000000059605","","H","null","88","77","0","swim-dual-task","","H","uppercase","52000","0","4","7c9722f615e16d1e84ee220d5b98e3d6324fe67f163924cf527862eb078834cc","52002.10000000894","606.4000000059605","88","0","swim","","","","",""
"dual-task","null","null","null","","arctic","arctic","557.5","","R","null","77","77","1","swim-dual-task","","R","uppercase","60000","0","4","7c9722f615e16d1e84ee220d5b98e3d6324fe67f163924cf527862eb078834cc","60011.20000000298","557.5","77","1","swim","","","","",""
"dual-task","null","null","null","","arctic","arctic","557.5","","Q","null","77","77","1","swim-dual-task","","Q","uppercase","70000","0","4","7c9722f615e16d1e84ee220d5b98e3d6324fe67f163924cf527862eb078834cc","70002.60000000894","557.5","77","1","swim","","","","",""
"dual-task","null","null","null","","arctic","arctic","727.5","","Q","null","77","77","1","swim-dual-task","","Q","uppercase","84000","0","4","7c9722f615e16d1e84ee220d5b98e3d6324fe67f163924cf527862eb078834cc","84009","727.5","77","1","swim","","","","",""
"dual-task","null","null","null","","arctic","arctic","640.7999999970198","","A","null","77","77","1","swim-dual-task","","A","uppercase","90000","0","4","7c9722f615e16d1e84ee220d5b98e3d6324fe67f163924cf527862eb078834cc","90015.20000000298","640.7999999970198","77","1","swim","","","","",""
"dual-task","null","null","null","","arctic","arctic","614.2000000029802","","B","null","77","77","1","swim-dual-task","","B","uppercase","102000","0","4","7c9722f615e16d1e84ee220d5b98e3d6324fe67f163924cf527862eb078834cc","102009.70000000298","614.2000000029802","77","1","swim","","","","",""
"dual-task","null","null","null","","arctic","arctic","605.6000000089407","","A","null","77","77","1","swim-dual-task","","A","uppercase","114000","0","4","7c9722f615e16d1e84ee220d5b98e3d6324fe67f163924cf527862eb078834cc","114018.60000000894","605.6000000089407","77","1","swim","","","","",""
"dual-task","null","null","null","","arctic","arctic","669","","b","null","88","88","1","swim-dual-task","","b","lowercase","122000","0","4","7c9722f615e16d1e84ee220d5b98e3d6324fe67f163924cf527862eb078834cc","122018.60000000894","669","88","1","swim","","","","",""
"dual-task","null","null","null","","arctic","arctic","784.7999999970198","","d","null","88","88","1","swim-dual-task","","d","lowercase","130000","0","4","7c9722f615e16d1e84ee220d5b98e3d6324fe67f163924cf527862eb078834cc","130014.90000000596","784.7999999970198","88","1","swim","","","","",""
"dual-task","null","null","null","","arctic","arctic","908.4000000059605","","h","null","88","88","1","swim-dual-task","","h","lowercase","142000","0","4","7c9722f615e16d1e84ee220d5b98e3d6324fe67f163924cf527862eb078834cc","142011.60000000894","908.4000000059605","88","1","swim","","","","",""
"dual-task","null","null","null","","arctic","arctic","1791.6000000089407","","d","null","88","88","1","swim-dual-task","","d","lowercase","148000","0","4","7c9722f615e16d1e84ee220d5b98e3d6324fe67f163924cf527862eb078834cc","148007.40000000596","1791.6000000089407","88","1","swim","","","","",""
"dual-task","null","null","null","","arctic","arctic","988.6000000089407","","D","null","77","77","1","swim-dual-task","","D","uppercase","158000","0","4","7c9722f615e16d1e84ee220d5b98e3d6324fe67f163924cf527862eb078834cc","158011.10000000894","988.6000000089407","77","1","swim","","","","",""
"dual-task","null","null","null","","arctic","arctic","639","","q","null","88","88","1","swim-dual-task","","q","lowercase","166000","0","4","7c9722f615e16d1e84ee220d5b98e3d6324fe67f163924cf527862eb078834cc","166008.40000000596","639","88","1","swim","","","","",""
"dual-task","null","null","null","","arctic","arctic","647.5999999940395","","n","null","88","88","1","swim-dual-task","","n","lowercase","180000","0","4","7c9722f615e16d1e84ee220d5b98e3d6324fe67f163924cf527862eb078834cc","180008.10000000894","647.5999999940395","88","1","swim","","","","",""
"dual-task","null","null","null","","arctic","arctic","818.2999999970198","","d","null","88","88","1","swim-dual-task","","d","lowercase","192000","0","4","7c9722f615e16d1e84ee220d5b98e3d6324fe67f163924cf527862eb078834cc","192004.80000001192","818.2999999970198","88","1","swim","","","","",""
"dual-task","null","null","null","","arctic","arctic","590.6000000089407","","e","null","88","88","1","swim-dual-task","","e","lowercase","200000","0","4","7c9722f615e16d1e84ee220d5b98e3d6324fe67f163924cf527862eb078834cc","200000.5","590.6000000089407","88","1","swim","","","","",""
"dual-task","null","null","null","","arctic","arctic","575.7000000029802","","D","null","77","77","1","swim-dual-task","","D","uppercase","206000","0","4","7c9722f615e16d1e84ee220d5b98e3d6324fe67f163924cf527862eb078834cc","206015.60000000894","575.7000000029802","77","1","swim","","","","",""
"dual-task","null","null","null","","arctic","arctic","574.8000000119209","","g","null","88","88","1","swim-dual-task","","g","lowercase","216000","0","4","7c9722f615e16d1e84ee220d5b98e3d6324fe67f163924cf527862eb078834cc","216008","574.8000000119209","88","1","swim","","","","",""
"dual-task","null","null","null","","arctic","arctic","908","","B","null","77","77","1","swim-dual-task","","B","uppercase","222000","0","4","7c9722f615e16d1e84ee220d5b98e3d6324fe67f163924cf527862eb078834cc","222011.30000001192","908","77","1","swim","","","","",""
"dual-task","null","null","null","","arctic","arctic","665.5","","T","null","77","77","1","swim-dual-task","","T","uppercase","232000","0","4","7c9722f615e16d1e84ee220d5b98e3d6324fe67f163924cf527862eb078834cc","232013.40000000596","665.5","77","1","swim","","","","",""
"dual-task","null","null","null","","arctic","arctic","637.3999999910593","","T","null","77","77","1","swim-dual-task","","T","uppercase","244000","0","4","7c9722f615e16d1e84ee220d5b98e3d6324fe67f163924cf527862eb078834cc","244017.5","637.3999999910593","77","1","swim","","","","",""
"dual-task","null","null","null","","arctic","arctic","1235.3999999910593","","B","null","77","77","1","swim-dual-task","","B","uppercase","250000","0","4","7c9722f615e16d1e84ee220d5b98e3d6324fe67f163924cf527862eb078834cc","250010.40000000596","1235.3999999910593","77","1","swim","","","","",""
"dual-task","null","null","null","","arctic","arctic","789.7000000029802","","r","null","88","88","1","swim-dual-task","","r","lowercase","262000","0","4","7c9722f615e16d1e84ee220d5b98e3d6324fe67f163924cf527862eb078834cc","262001.20000000298","789.7000000029802","88","1","swim","","","","",""
"dual-task","null","null","null","","arctic","arctic","653","","R","null","77","77","1","swim-dual-task","","R","uppercase","272000","0","4","7c9722f615e16d1e84ee220d5b98e3d6324fe67f163924cf527862eb078834cc","272017.3000000119","653","77","1","swim","","","","",""
"dual-task","null","null","null","","arctic","arctic","925.7000000029802","","n","null","88","88","1","swim-dual-task","","n","lowercase","278000","0","4","7c9722f615e16d1e84ee220d5b98e3d6324fe67f163924cf527862eb078834cc","278017","925.7000000029802","88","1","swim","","","","",""
"dual-task","null","null","null","","arctic","arctic","779.7999999970198","","E","null","77","77","1","swim-dual-task","","E","uppercase","292000","0","4","7c9722f615e16d1e84ee220d5b98e3d6324fe67f163924cf527862eb078834cc","292010.700000003","779.7999999970198","77","1","swim","","","","",""
"dual-task","null","null","null","","arctic","arctic","615.7000000029802","","h","null","88","88","1","swim-dual-task","","h","lowercase","304000","0","4","7c9722f615e16d1e84ee220d5b98e3d6324fe67f163924cf527862eb078834cc","304006.8000000119","615.7000000029802","88","1","swim","","","","",""
"dual-task","null","null","null","","arctic","arctic","988.9000000059605","","N","null","77","77","1","swim-dual-task","","N","uppercase","316000","0","4","7c9722f615e16d1e84ee220d5b98e3d6324fe67f163924cf527862eb078834cc","316001.3000000119","988.9000000059605","77","1","swim","","","","",""
"dual-task","null","null","null","","arctic","arctic","775.2000000029802","","G","null","77","77","1","swim-dual-task","","G","uppercase","324000","0","4","7c9722f615e16d1e84ee220d5b98e3d6324fe67f163924cf527862eb078834cc","324006.5","775.2000000029802","77","1","swim","","","","",""
"dual-task","null","null","null","","arctic","arctic","678.5999999940395","","Q","null","77","77","1","swim-dual-task","","Q","uppercase","336000","0","4","7c9722f615e16d1e84ee220d5b98e3d6324fe67f163924cf527862eb078834cc","336015.60000000894","678.5999999940395","77","1","swim","","","","",""
"dual-task","null","null","null","","arctic","arctic","703.7999999970198","","G","null","77","77","1","swim-dual-task","","G","uppercase","346000","0","4","7c9722f615e16d1e84ee220d5b98e3d6324fe67f163924cf527862eb078834cc","346014.3000000119","703.7999999970198","77","1","swim","","","","",""
"dual-task","null","null","null","","arctic","arctic","599.5","","H","null","77","77","1","swim-dual-task","","H","uppercase","360000","0","4","7c9722f615e16d1e84ee220d5b98e3d6324fe67f163924cf527862eb078834cc","360006.200000003","599.5","77","1","swim","","","","",""
"dual-task","null","null","null","","arctic","arctic","752.5","","q","null","88","88","1","swim-dual-task","","q","lowercase","368000","0","4","7c9722f615e16d1e84ee220d5b98e3d6324fe67f163924cf527862eb078834cc","368012.3000000119","752.5","88","1","swim","","","","",""
"dual-task","null","null","null","","arctic","arctic","603.5","","B","null","77","77","1","swim-dual-task","","B","uppercase","378000","0","4","7c9722f615e16d1e84ee220d5b98e3d6324fe67f163924cf527862eb078834cc","378010.200000003","603.5","77","1","swim","","","","",""
"dual-task","null","null","null","","arctic","arctic","687.2000000029802","","f","null","88","88","1","swim-dual-task","","f","lowercase","386000","0","4","7c9722f615e16d1e84ee220d5b98e3d6324fe67f163924cf527862eb078834cc","386006.10000000894","687.2000000029802","88","1","swim","","","","",""
"dual-task","null","null","null","","arctic","arctic","965.5999999940395","","F","null","77","77","1","swim-dual-task","","F","uppercase","398000","0","4","7c9722f615e16d1e84ee220d5b98e3d6324fe67f163924cf527862eb078834cc","398015.90000000596","965.5999999940395","77","1","swim","","","","",""
"dual-task","null","null","null","","arctic","arctic","665.8999999910593","","b","null","88","88","1","swim-dual-task","","b","lowercase","408000","0","4","7c9722f615e16d1e84ee220d5b98e3d6324fe67f163924cf527862eb078834cc","408011.3000000119","665.8999999910593","88","1","swim","","","","",""
"dual-task","null","null","null","","arctic","arctic","1241.9000000059605","","N","null","77","77","1","swim-dual-task","","N","uppercase","418000","0","4","7c9722f615e16d1e84ee220d5b98e3d6324fe67f163924cf527862eb078834cc","418011.10000000894","1241.9000000059605","77","1","swim","","","","",""
"dual-task","null","null","null","","arctic","arctic","712.5999999940395","","f","null","88","88","1","swim-dual-task","","f","lowercase","426000","0","4","7c9722f615e16d1e84ee220d5b98e3d6324fe67f163924cf527862eb078834cc","426012.40000000596","712.5999999940395","88","1","swim","","","","",""
"dual-task","null","null","null","","arctic","arctic","902.5","","G","null","77","77","1","swim-dual-task","","G","uppercase","432000","0","4","7c9722f615e16d1e84ee220d5b98e3d6324fe67f163924cf527862eb078834cc","432014.700000003","902.5","77","1","swim","","","","",""
"dual-task","null","null","null","","arctic","arctic","747.7000000029802","","F","null","77","77","1","swim-dual-task","","F","uppercase","440000","0","4","7c9722f615e16d1e84ee220d5b98e3d6324fe67f163924cf527862eb078834cc","440001.200000003","747.7000000029802","77","1","swim","","","","",""
"dual-task","null","null","null","","arctic","arctic","654.9000000059605","","A","null","77","77","1","swim-dual-task","","A","uppercase","448000","0","4","7c9722f615e16d1e84ee220d5b98e3d6324fe67f163924cf527862eb078834cc","448006.200000003","654.9000000059605","77","1","swim","","","","",""
"dual-task","null","null","null","","arctic","arctic","1048.5999999940395","","a","null","88","88","1","swim-dual-task","","a","lowercase","458000","0","4","7c9722f615e16d1e84ee220d5b98e3d6324fe67f163924cf527862eb078834cc","458004.40000000596","1048.5999999940395","88","1","swim","","","","",""
"dual-task","null","null","null","","arctic","arctic","550.7000000029802","","g","null","88","88","1","swim-dual-task","","g","lowercase","472000","0","4","7c9722f615e16d1e84ee220d5b98e3d6324fe67f163924cf527862eb078834cc","472006","550.7000000029802","88","1","swim","","","","",""
"dual-task","null","null","null","","arctic","arctic","893.5","","b","null","88","88","1","swim-dual-task","","b","lowercase","484000","0","4","7c9722f615e16d1e84ee220d5b98e3d6324fe67f163924cf527862eb078834cc","484015.10000000894","893.5","88","1","swim","","","","",""
"dual-task","null","null","null","","arctic","arctic","857.6000000089407","","h","null","88","88","1","swim-dual-task","","h","lowercase","492000","0","4","7c9722f615e16d1e84ee220d5b98e3d6324fe67f163924cf527862eb078834cc","492002.60000000894","857.6000000089407","88","1","swim","","","","",""
"dual-task","null","null","null","","arctic","arctic","784.5","","T","null","77","77","1","swim-dual-task","","T","uppercase","502000","0","4","7c9722f615e16d1e84ee220d5b98e3d6324fe67f163924cf527862eb078834cc","502012","784.5","77","1","swim","","","","",""
"dual-task","null","null","null","","arctic","arctic","587.1999999880791","","a","null","88","88","1","swim-dual-task","","a","lowercase","514000","0","4","7c9722f615e16d1e84ee220d5b98e3d6324fe67f163924cf527862eb078834cc","514001.200000003","587.1999999880791","88","1","swim","","","","",""
"dual-task","null","null","null","","arctic","arctic","750.2000000029802","","t","null","88","88","1","swim-dual-task","","t","lowercase","526000","0","4","7c9722f615e16d1e84ee220d5b98e3d6324fe67f163924cf527862eb078834cc","526006.1000000089","750.2000000029802","88","1","swim","","","","",""
"dual-task","null","null","null","","arctic","arctic","825.2999999970198","","E","null","77","77","1","swim-dual-task","","E","uppercase","538000","0","4","7c9722f615e16d1e84ee220d5b98e3d6324fe67f163924cf527862eb078834cc","538010.900000006","825.2999999970198","77","1","swim","","","","",""
"dual-task","null","null","null","","arctic","arctic","1085.3999999910593","","r","null","88","88","1","swim-dual-task","","r","lowercase","548000","0","4","7c9722f615e16d1e84ee220d5b98e3d6324fe67f163924cf527862eb078834cc","548014.5","1085.3999999910593","88","1","swim","","","","",""
"dual-task","null","null","null","","arctic","arctic","652.5","","b","null","88","88","1","swim-dual-task","","b","lowercase","560000","0","4","7c9722f615e16d1e84ee220d5b98e3d6324fe67f163924cf527862eb078834cc","560007.5","652.5","88","1","swim","","","","",""
"dual-task","null","null","null","","arctic","arctic","972.5","","R","null","77","77","1","swim-dual-task","","R","uppercase","570000","0","4","7c9722f615e16d1e84ee220d5b98e3d6324fe67f163924cf527862eb078834cc","570007.400000006","972.5","77","1","swim","","","","",""
"dual-task","null","null","null","","arctic","arctic","905.4000000059605","","D","null","77","77","1","swim-dual-task","","D","uppercase","576000","0","4","7c9722f615e16d1e84ee220d5b98e3d6324fe67f163924cf527862eb078834cc","576002.1000000089","905.4000000059605","77","1","swim","","","","",""
"dual-task","null","null","null","","arctic","arctic","789.8000000119209","","A","null","77","77","1","swim-dual-task","","A","uppercase","584000","0","4","7c9722f615e16d1e84ee220d5b98e3d6324fe67f163924cf527862eb078834cc","584013.900000006","789.8000000119209","77","1","swim","","","","",""
"dual-task","null","null","null","","arctic","arctic","575.5999999940395","","a","null","88","88","1","swim-dual-task","","a","lowercase","596000","0","4","7c9722f615e16d1e84ee220d5b98e3d6324fe67f163924cf527862eb078834cc","596004.1000000089","575.5999999940395","88","1","swim","","","","",""
"dual-task","null","null","null","","arctic","arctic","615.4000000059605","","e","null","88","88","1","swim-dual-task","","e","lowercase","608000","0","4","7c9722f615e16d1e84ee220d5b98e3d6324fe67f163924cf527862eb078834cc","608004.1000000089","615.4000000059605","88","1","swim","","","","",""
"dual-task","null","null","null","","arctic","arctic","893.7000000029802","","D","null","77","77","1","swim-dual-task","","D","uppercase","618000","0","4","7c9722f615e16d1e84ee220d5b98e3d6324fe67f163924cf527862eb078834cc","618005.6000000089","893.7000000029802","77","1","swim","","","","",""
"dual-task","null","null","null","","arctic","arctic","692.1000000089407","","H","null","77","77","1","swim-dual-task","","H","uppercase","626000","0","4","7c9722f615e16d1e84ee220d5b98e3d6324fe67f163924cf527862eb078834cc","626007","692.1000000089407","77","1","swim","","","","",""
"dual-task","null","null","null","","arctic","arctic","911.5999999940395","","N","null","77","77","1","swim-dual-task","","N","uppercase","638000","0","4","7c9722f615e16d1e84ee220d5b98e3d6324fe67f163924cf527862eb078834cc","638003.6000000089","911.5999999940395","77","1","swim","","","","",""
"dual-task","null","null","null","","arctic","arctic","645","","n","null","88","88","1","swim-dual-task","","n","lowercase","644000","0","4","7c9722f615e16d1e84ee220d5b98e3d6324fe67f163924cf527862eb078834cc","644013.900000006","645","88","1","swim","","","","",""
"dual-task","null","null","null","","arctic","arctic","871.5","","e","null","88","88","1","swim-dual-task","","e","lowercase","658000","0","4","7c9722f615e16d1e84ee220d5b98e3d6324fe67f163924cf527862eb078834cc","658003.700000003","871.5","88","1","swim","","","","",""
"dual-task","null","null","null","","arctic","arctic","659.7999999970198","","n","null","88","88","1","swim-dual-task","","n","lowercase","668000","0","4","7c9722f615e16d1e84ee220d5b98e3d6324fe67f163924cf527862eb078834cc","668006.8000000119","659.7999999970198","88","1","swim","","","","",""
"dual-task","null","null","null","","arctic","arctic","983.7000000029802","","T","null","77","77","1","swim-dual-task","","T","uppercase","678000","0","4","7c9722f615e16d1e84ee220d5b98e3d6324fe67f163924cf527862eb078834cc","678003.1000000089","983.7000000029802","77","1","swim","","","","",""
"dual-task","null","null","null","","arctic","arctic","671.2000000029802","","r","null","88","88","1","swim-dual-task","","r","lowercase","686000","0","4","7c9722f615e16d1e84ee220d5b98e3d6324fe67f163924cf527862eb078834cc","686003.200000003","671.2000000029802","88","1","swim","","","","",""
"dual-task","null","null","null","","arctic","arctic","1037.3999999910593","","G","null","77","77","1","swim-dual-task","","G","uppercase","698000","0","4","7c9722f615e16d1e84ee220d5b98e3d6324fe67f163924cf527862eb078834cc","698013.3000000119","1037.3999999910593","77","1","swim","","","","",""
"dual-task","null","null","null","","arctic","arctic","607.2000000029802","","g","null","88","88","1","swim-dual-task","","g","lowercase","706000","0","4","7c9722f615e16d1e84ee220d5b98e3d6324fe67f163924cf527862eb078834cc","706003","607.2000000029802","88","1","swim","","","","",""
"dual-task","null","null","null","","arctic","arctic","613.7999999970198","","q","null","88","88","1","swim-dual-task","","q","lowercase","714000","0","4","7c9722f615e16d1e84ee220d5b98e3d6324fe67f163924cf527862eb078834cc","714012.6000000089","613.7999999970198","88","1","swim","","","","",""
"dual-task","null","null","null","","arctic","arctic","765.2999999970198","","E","null","88","77","0","swim-dual-task","","E","uppercase","728000","0","4","7c9722f615e16d1e84ee220d5b98e3d6324fe67f163924cf527862eb078834cc","728013","765.2999999970198","88","0","swim","","","","",""
"dual-task","null","null","null","","arctic","arctic","599.1000000089407","","q","null","88","88","1","swim-dual-task","","q","lowercase","738000","0","4","7c9722f615e16d1e84ee220d5b98e3d6324fe67f163924cf527862eb078834cc","738002.8000000119","599.1000000089407","88","1","swim","","","","",""
"dual-task","null","null","null","","arctic","arctic","780.8999999910593","","N","null","77","77","1","swim-dual-task","","N","uppercase","750000","0","4","7c9722f615e16d1e84ee220d5b98e3d6324fe67f163924cf527862eb078834cc","750005.3000000119","780.8999999910593","77","1","swim","","","","",""
"dual-task","null","null","null","","arctic","arctic","799.2000000029802","","f","null","88","88","1","swim-dual-task","","f","lowercase","758000","0","4","7c9722f615e16d1e84ee220d5b98e3d6324fe67f163924cf527862eb078834cc","758002.6000000089","799.2000000029802","88","1","swim","","","","",""
"dual-task","null","null","null","","arctic","arctic","1236","","H","null","77","77","1","swim-dual-task","","H","uppercase","764000","0","4","7c9722f615e16d1e84ee220d5b98e3d6324fe67f163924cf527862eb078834cc","764005.8000000119","1236","77","1","swim","","","","",""
"dual-task","null","null","null","","arctic","arctic","788.4000000059605","","e","null","88","88","1","swim-dual-task","","e","lowercase","774000","0","4","7c9722f615e16d1e84ee220d5b98e3d6324fe67f163924cf527862eb078834cc","774005.3000000119","788.4000000059605","88","1","swim","","","","",""
"dual-task","null","null","null","","arctic","arctic","637.5999999940395","","R","null","77","77","1","swim-dual-task","","R","uppercase","780000","0","4","7c9722f615e16d1e84ee220d5b98e3d6324fe67f163924cf527862eb078834cc","780012.3000000119","637.5999999940395","77","1","swim","","","","",""
"dual-task","null","null","null","","arctic","arctic","957.1000000089407","","Q","null","77","77","1","swim-dual-task","","Q","uppercase","786000","0","4","7c9722f615e16d1e84ee220d5b98e3d6324fe67f163924cf527862eb078834cc","786012.400000006","957.1000000089407","77","1","swim","","","","",""
"dual-task","null","null","null","","arctic","arctic","743.2999999970198","","t","null","88","88","1","swim-dual-task","","t","lowercase","796000","0","4","7c9722f615e16d1e84ee220d5b98e3d6324fe67f163924cf527862eb078834cc","796002.400000006","743.2999999970198","88","1","swim","","","","",""
"audio-keyboard-response","62","4611580","0.0-6.0-2.0-1.0","7c9722f615e16d1e84ee220d5b98e3d6324fe67f163924cf527862eb078834cc","arctic","arctic","null","","audio/story_swim.mp3","","null","","","","","","","","","","","","","","","","","","","",""
"html-button-response","63","4615509","0.0-6.0-2.0-2.0","7c9722f615e16d1e84ee220d5b98e3d6324fe67f163924cf527862eb078834cc","arctic","arctic","3927","","<p>This concludes the story. Thank you for listening.</p><p>You will now answer some questions about the content of the story.</p>","0","","","","","","","","","","","","","","","","","","","","",""
"survey-multi-choice","64","4625573","0.0-6.0-2.0-3.0-0.0","7c9722f615e16d1e84ee220d5b98e3d6324fe67f163924cf527862eb078834cc","arctic","arctic","10063","","<b>What was the final step of the first swim test in the pool?</b>","","","","1","swim-comprehension","","","","","","","","","","","","","{""Q0"":""Tread water with hands above the water""}","","","",""
"survey-multi-choice","65","4629449","0.0-6.0-2.0-3.0-0.1","7c9722f615e16d1e84ee220d5b98e3d6324fe67f163924cf527862eb078834cc","arctic","arctic","3623","","<b>Where is the home of naval aviation?</b>","","","","1","swim-comprehension","","","","","","","","","","","","","{""Q0"":""Pensacola""}","","","",""
"survey-multi-choice","66","4636274","0.0-6.0-2.0-3.0-0.2","7c9722f615e16d1e84ee220d5b98e3d6324fe67f163924cf527862eb078834cc","arctic","arctic","6570","","<b>How many times did the astronaut candidates have to complete the final exercise to pass?</b>","","","","1","swim-comprehension","","","","","","","","","","","","","{""Q0"":""Two""}","","","",""
"survey-multi-choice","67","4643693","0.0-6.0-2.0-3.0-0.3","7c9722f615e16d1e84ee220d5b98e3d6324fe67f163924cf527862eb078834cc","arctic","arctic","7166","","<b>How often does the narrator swim, now that he is a good swimmer?</b>","","","","1","swim-comprehension","","","","","","","","","","","","","{""Q0"":""Never swam again in his life""}","","","",""
"survey-multi-choice","68","4653721","0.0-6.0-2.0-3.0-0.4","7c9722f615e16d1e84ee220d5b98e3d6324fe67f163924cf527862eb078834cc","arctic","arctic","9774","","<b>What were the astronaut candidates trained to do at the naval air station?</b>","","","","1","swim-comprehension","","","","","","","","","","","","","{""Q0"":""Eject out of aircraft and survive in water long enough to be rescued""}","","","",""
"survey-multi-choice","69","4665217","0.0-6.0-2.0-3.0-0.5","7c9722f615e16d1e84ee220d5b98e3d6324fe67f163924cf527862eb078834cc","arctic","arctic","11241","","<b>How did the narrator train for his swim test?</b>","","","","0","swim-comprehension","","","","","","","","","","","","","{""Q0"":""Swam at the lake every day""}","","","",""
"survey-multi-choice","70","4674525","0.0-6.0-2.0-3.0-0.6","7c9722f615e16d1e84ee220d5b98e3d6324fe67f163924cf527862eb078834cc","arctic","arctic","9055","","<b>How many astronaut candidates passed the first swim test?</b>","","","","1","swim-comprehension","","","","","","","","","","","","","{""Q0"":""All of them""}","","","",""
"survey-multi-choice","71","4680293","0.0-6.0-2.0-3.0-0.7","7c9722f615e16d1e84ee220d5b98e3d6324fe67f163924cf527862eb078834cc","arctic","arctic","5515","","<b>What is the narrator afraid of, aside from the water?</b>","","","","1","swim-comprehension","","","","","","","","","","","","","{""Q0"":""Heights""}","","","",""
"survey-multi-choice","72","4709513","0.0-6.0-2.0-3.0-0.8","7c9722f615e16d1e84ee220d5b98e3d6324fe67f163924cf527862eb078834cc","arctic","arctic","28966","","<b>What gave the narrator his greatest feeling of accomplishment?</b>","","","","1","swim-comprehension","","","","","","","","","","","","","{""Q0"":""Passing the water survival course""}","","","",""
"survey-multi-choice","73","4713813","0.0-6.0-2.0-3.0-0.9","7c9722f615e16d1e84ee220d5b98e3d6324fe67f163924cf527862eb078834cc","arctic","arctic","4045","","<b>How many astronaut candidates reported for duty at the Johnson Space Center?</b>","","","","1","swim-comprehension","","","","","","","","","","","","","{""Q0"":""Forty-four""}","","","",""
"html-button-response","74","4716856","0.0-6.0-2.0-4.0","7c9722f615e16d1e84ee220d5b98e3d6324fe67f163924cf527862eb078834cc","arctic","arctic","2792","","<p>Thank you for your responses.</p><p>You will now answer some questions about your impressions of the story.</p>","0","","","","","","","","","","","","","","","","","","","","",""
"html-button-response","75","4721824","0.0-6.0-2.0-5.0-0.0","7c9722f615e16d1e84ee220d5b98e3d6324fe67f163924cf527862eb078834cc","arctic","arctic","4967","","A1","5","","","","swim-engagement","","","","","","","","","","","","","","6","absorption","",""
"html-button-response","76","4730944","0.0-6.0-2.0-5.0-0.1","7c9722f615e16d1e84ee220d5b98e3d6324fe67f163924cf527862eb078834cc","arctic","arctic","8869","","MS3","5","","","","swim-engagement","","","","","","","","","","","","","","6","mental-sim","",""
"html-button-response","77","4736568","0.0-6.0-2.0-5.0-0.2","7c9722f615e16d1e84ee220d5b98e3d6324fe67f163924cf527862eb078834cc","arctic","arctic","5372","","A4","4","","","","swim-engagement","","","","","","","","","","","","","","5","absorption","",""
"html-button-response","78","4741496","0.0-6.0-2.0-5.0-0.3","7c9722f615e16d1e84ee220d5b98e3d6324fe67f163924cf527862eb078834cc","arctic","arctic","4676","","A3","6","","","","swim-engagement","","","","","","","","","","","","","","7","absorption","",""
"html-button-response","79","4748056","0.0-6.0-2.0-5.0-0.4","7c9722f615e16d1e84ee220d5b98e3d6324fe67f163924cf527862eb078834cc","arctic","arctic","6307","","MS2","5","","","","swim-engagement","","","","","","","","","","","","","","6","mental-sim","",""
"html-button-response","80","4750733","0.0-6.0-2.0-5.0-0.5","7c9722f615e16d1e84ee220d5b98e3d6324fe67f163924cf527862eb078834cc","arctic","arctic","2425","","EE3","5","","","","swim-engagement","","","","","","","","","","","","","","6","emo-engage","",""
"html-button-response","81","4766696","0.0-6.0-2.0-5.0-0.6","7c9722f615e16d1e84ee220d5b98e3d6324fe67f163924cf527862eb078834cc","arctic","arctic","15711","","E8","5","","","","swim-engagement","","","","","","","","","","","","","","6","enjoyment","",""
"html-button-response","82","4770492","0.0-6.0-2.0-5.0-0.7","7c9722f615e16d1e84ee220d5b98e3d6324fe67f163924cf527862eb078834cc","arctic","arctic","3543","","E6","6","","","","swim-engagement","","","","","","","","","","","","","","7","enjoyment","",""
"html-button-response","83","4773456","0.0-6.0-2.0-5.0-0.8","7c9722f615e16d1e84ee220d5b98e3d6324fe67f163924cf527862eb078834cc","arctic","arctic","2711","","MS1","4","","","","swim-engagement","","","","","","","","","","","","","","5","mental-sim","",""
"html-button-response","84","4776804","0.0-6.0-2.0-5.0-0.9","7c9722f615e16d1e84ee220d5b98e3d6324fe67f163924cf527862eb078834cc","arctic","arctic","3096","","EE5","5","","","","swim-engagement","","","","","","","","","","","","","","6","emo-engage","",""
"html-button-response","85","4782164","0.0-6.0-2.0-5.0-0.10","7c9722f615e16d1e84ee220d5b98e3d6324fe67f163924cf527862eb078834cc","arctic","arctic","5106","","EE4","4","","","","swim-engagement","","","","","","","","","","","","","","5","emo-engage","",""
"html-button-response","86","4784496","0.0-6.0-2.0-5.0-0.11","7c9722f615e16d1e84ee220d5b98e3d6324fe67f163924cf527862eb078834cc","arctic","arctic","2079","","E7","6","","","","swim-engagement","","","","","","","","","","","","","","7","enjoyment","",""
"html-button-response","87","4821939","0.0-6.0-2.0-5.0-0.12","7c9722f615e16d1e84ee220d5b98e3d6324fe67f163924cf527862eb078834cc","arctic","arctic","37191","","A2","6","","","","swim-engagement","","","","","","","","","","","","","","7","absorption","",""
"html-button-response","88","4827339","0.0-6.0-2.0-5.0-0.13","7c9722f615e16d1e84ee220d5b98e3d6324fe67f163924cf527862eb078834cc","arctic","arctic","5148","","A5","5","","","","swim-engagement","","","","","","","","","","","","","","6","absorption","",""
"html-button-response","89","4829367","0.0-6.0-2.0-5.0-0.14","7c9722f615e16d1e84ee220d5b98e3d6324fe67f163924cf527862eb078834cc","arctic","arctic","1776","","E1","6","","","","swim-engagement","","","","","","","","","","","","","","7","enjoyment","",""
"html-button-response","90","4831955","0.0-6.0-2.0-5.0-0.15","7c9722f615e16d1e84ee220d5b98e3d6324fe67f163924cf527862eb078834cc","arctic","arctic","2336","","EE2","5","","","","swim-engagement","","","","","","","","","","","","","","6","emo-engage","",""
"html-button-response","91","4836999","0.0-6.0-2.0-5.0-0.16","7c9722f615e16d1e84ee220d5b98e3d6324fe67f163924cf527862eb078834cc","arctic","arctic","4793","","EE1","5","","","","swim-engagement","","","","","","","","","","","","","","6","emo-engage","",""
"html-button-response","92","4839203","0.0-6.0-2.0-5.0-0.17","7c9722f615e16d1e84ee220d5b98e3d6324fe67f163924cf527862eb078834cc","arctic","arctic","1952","","E10","6","","","","swim-engagement","","","","","","","","","","","","","","7","enjoyment","",""
"html-button-response","93","4840659","0.0-8.0","7c9722f615e16d1e84ee220d5b98e3d6324fe67f163924cf527862eb078834cc","arctic","arctic","1204","","<p>Thank you for your responses.</p><p>You will now answer some demographic, hearing, and general health questions.</p>","0","","","","","","","","","","","","","","","","","","","","",""
"survey-multi-choice","94","4857027","0.0-9.0-0.0","7c9722f615e16d1e84ee220d5b98e3d6324fe67f163924cf527862eb078834cc","arctic","arctic","16364","","","","","","","survey","","","","","","","","","","","","","{""Q0"":""Chrome""}","","","browser",""
"survey-text","95","4865479","0.0-9.0-1.0","7c9722f615e16d1e84ee220d5b98e3d6324fe67f163924cf527862eb078834cc","arctic","arctic","8198.60000000894","","","","","","","survey","","","","","","","","","","","","","{""AGE"":""37""}","","","age","37"
"survey-multi-choice","96","4873050","0.0-9.0-2.0","7c9722f615e16d1e84ee220d5b98e3d6324fe67f163924cf527862eb078834cc","arctic","arctic","7317","","","","","","","survey","","","","","","","","","","","","","{""Q0"":""Male""}","","","gender","Male"
"survey-multi-choice","97","4875366","0.0-9.0-4.0","7c9722f615e16d1e84ee220d5b98e3d6324fe67f163924cf527862eb078834cc","arctic","arctic","2063","","","","","","","survey","","","","","","","","","","","","","{""Q0"":""Right""}","","","handedness","Right"
"survey-multi-choice","98","4877899","0.0-9.0-5.0","7c9722f615e16d1e84ee220d5b98e3d6324fe67f163924cf527862eb078834cc","arctic","arctic","2279","","","","","","","survey","","","","","","","","","","","","","{""Q0"":""Some university undergraduate schooling""}","","","education","Some university undergraduate schooling"
"survey-text","99","4918082","0.0-10.0-0.0","7c9722f615e16d1e84ee220d5b98e3d6324fe67f163924cf527862eb078834cc","arctic","arctic","39931.09999999404","","","","","","","survey","","","","","","","","","","","","","{""L1"":""English""}","","","first-language","English"
"survey-text","100","4922694","0.0-10.0-1.0","7c9722f615e16d1e84ee220d5b98e3d6324fe67f163924cf527862eb078834cc","arctic","arctic","4357","","","","","","","survey","","","","","","","","","","","","","{""L2name"":"""",""L2fluency"":"""",""L3name"":"""",""L3fluency"":"""",""L4name"":"""",""L4fluency"":""""}","","","additional-languages","{""L2name"":"""",""L2fluency"":"""",""L3name"":"""",""L3fluency"":"""",""L4name"":"""",""L4fluency"":""""}"
"survey-multi-choice","101","4930026","0.0-10.0-2.0","7c9722f615e16d1e84ee220d5b98e3d6324fe67f163924cf527862eb078834cc","arctic","arctic","7079","","","","","","","survey","","","","","","","","","","","","","{""Q0"":""No""}","","","hearing-aid","No"
"survey-multi-choice","102","4934134","0.0-10.0-3.0","7c9722f615e16d1e84ee220d5b98e3d6324fe67f163924cf527862eb078834cc","arctic","arctic","3855","","","","","","","survey","","","","","","","","","","","","","{""Q0"":""Never""}","","","ringing-ears","Never"
"survey-multi-choice","103","4936698","0.0-10.0-5.0","7c9722f615e16d1e84ee220d5b98e3d6324fe67f163924cf527862eb078834cc","arctic","arctic","2312","","","","","","","survey","","","","","","","","","","","","","{""Q0"":""No""}","","","neuro-disease","No"
"survey-multi-choice","104","4941038","0.0-10.0-7.0","7c9722f615e16d1e84ee220d5b98e3d6324fe67f163924cf527862eb078834cc","arctic","arctic","4087","","","","","","","survey","","","","","","","","","","","","","{""Q0"":""Yes""}","","","take-meds","Yes"
"survey-text","105","4963834","0.0-10.0-8.0-0.0","7c9722f615e16d1e84ee220d5b98e3d6324fe67f163924cf527862eb078834cc","arctic","arctic","22542.70000000298","","","","","","","survey","","","","","","","","","","","","","{""MED"":""Clonidine for hypertension""}","","","take-meds-clarify","Clonidine for hypertension"
"survey-text","106","4972030","0.0-10.0-9.0","7c9722f615e16d1e84ee220d5b98e3d6324fe67f163924cf527862eb078834cc","arctic","arctic","7930.20000000298","","","","","","","survey","","","","","","","","","","","","","{""HC"":""N/A""}","","","health-concerns","N/A"
"html-button-response","107","4976058","0.0-11.0-0.0","7c9722f615e16d1e84ee220d5b98e3d6324fe67f163924cf527862eb078834cc","arctic","arctic","3775","","<p>How would you describe your musical skills/experiences?</p>","4","","","","survey","","","","","","","","","","","","","","","","music-skill","5"
"survey-multi-choice","108","4979698","0.0-11.0-1.0","7c9722f615e16d1e84ee220d5b98e3d6324fe67f163924cf527862eb078834cc","arctic","arctic","3388","","","","","","","survey","","","","","","","","","","","","","{""Q0"":""Yes""}","","","music-instrument","Yes"
"survey-text","109","4989158","0.0-11.0-2.0-0.0","7c9722f615e16d1e84ee220d5b98e3d6324fe67f163924cf527862eb078834cc","arctic","arctic","9207.90000000596","","","","","","","survey","","","","","","","","","","","","","{""MEXP"":""8""}","","","music-training-yrs","8"
"html-button-response","110","4996622","0.0-12.0-0.0","7c9722f615e16d1e84ee220d5b98e3d6324fe67f163924cf527862eb078834cc","arctic","arctic","7212","","<p>How would you describe your general hearing abilities?</p>","4","","","","survey","","","","","","","","","","","","","","","","ssq-01","5"
"html-button-response","111","5000334","0.0-12.0-1.0","7c9722f615e16d1e84ee220d5b98e3d6324fe67f163924cf527862eb078834cc","arctic","arctic","3448","","<p>When you talk with someone at a place that strongly reverberates/echoes (e.g., in a church or train station),</br>can you understand what the person says?</p>","8","","","","survey","","","","","","","","","","","","","","","","ssq-02","8"
"html-button-response","112","5029870","0.0-12.0-2.0","7c9722f615e16d1e84ee220d5b98e3d6324fe67f163924cf527862eb078834cc","arctic","arctic","29284","","<p>When you are with a group (~5 people) in a lively restaurant, can you follow the group's conversation?</p>","8","","","","survey","","","","","","","","","","","","","","","","ssq-03","8"
"html-button-response","113","5042578","0.0-12.0-3.0","7c9722f615e16d1e84ee220d5b98e3d6324fe67f163924cf527862eb078834cc","arctic","arctic","12456","","<p>Based on the sound of a bus or truck, can you tell whether it is moving towards or away from you?</p>","9","","","","survey","","","","","","","","","","","","","","","","ssq-04","9"
"html-button-response","114","5046870","0.0-12.0-4.0","7c9722f615e16d1e84ee220d5b98e3d6324fe67f163924cf527862eb078834cc","arctic","arctic","4039","","<p>When you are in an unknown environment, can you tell from which direction a brief sound originates?</p>","8","","","","survey","","","","","","","","","","","","","","","","ssq-05","8"
"html-button-response","115","5052269","0.0-12.0-5.0","7c9722f615e16d1e84ee220d5b98e3d6324fe67f163924cf527862eb078834cc","arctic","arctic","5149","","<p>Are you able to ignore distracting sounds when you concentrate on a specific aspect of your acoustic surrounding?</p>","7","","","","survey","","","","","","","","","","","","","","","","ssq-06","7"
"fullscreen","116","5053522","0.0-13.0","7c9722f615e16d1e84ee220d5b98e3d6324fe67f163924cf527862eb078834cc","arctic","arctic","","","","","","","","","true","","","","","","","","","","","","","","","",""
