"trial_type","trial_index","time_elapsed","internal_node_id","ParticipantID","firstStory","scramStory","rt","url","stimulus","button_pressed","key_press","correctRESP","correct","designation","success","letterStim","letterType","ONSET","TIMEOUT","CONDITION","Participant","ONSET_ACTUAL","RT","RESP","ACC","STORY","responses","response","type","surveyQuestion","QRESP"
"pavlovia","0","7","0.0-0.0","2728e999db7dc07153bae68cac63e761b8f05fc1ace311991247e8190a22aa4d","swim","arctic","","","","","","","","","","","","","","","","","","","","","","","","",""
"external-html","1","38037","0.0-1.0","2728e999db7dc07153bae68cac63e761b8f05fc1ace311991247e8190a22aa4d","swim","arctic","37858","consent/consent_updated.html","","","","","","","","","","","","","","","","","","","","","","",""
"html-button-response","2","1414842","0.0-2.0-0.0","2728e999db7dc07153bae68cac63e761b8f05fc1ace311991247e8190a22aa4d","swim","arctic","1376803","","<p>Before we begin the main task, you will complete a short volume calibration and headphone check.</p><p>Please make sure you are in a quiet listening environment, that you are wearing headphones, and that your computer's volume is turned on.<p></p>","0","","","","","","","","","","","","","","","","","","","","",""
"html-button-response","3","1419292","0.0-2.0-1.0","2728e999db7dc07153bae68cac63e761b8f05fc1ace311991247e8190a22aa4d","swim","arctic","4193","","<p>The volume calibration will be first.</p><p>You will hear a thirty-second noise. Please adjust your computer's volume so that this noise is being presented at a comfortable level.<p></p>","0","","","","","","","","","","","","","","","","","","","","",""
"audio-button-response","4","1434831","0.0-2.0-2.0","2728e999db7dc07153bae68cac63e761b8f05fc1ace311991247e8190a22aa4d","swim","arctic","15278","","audio/volumetest.mp3","0","","","","","","","","","","","","","","","","","","","","",""
"html-keyboard-response","5","1441915","0.0-3.0-0.0","2728e999db7dc07153bae68cac63e761b8f05fc1ace311991247e8190a22aa4d","swim","arctic","7083","","<p>You will now complete a short headphone check.</p><p>On each trial, you will hear three tones. One of these tones will be quieter than the others. Your task is to identify whether the quiet tone occurred first, second, or third.</p><p>There are six trials in total.<p></p><p></p>(Press SPACEBAR to begin)","","32","","","","","","","","","","","","","","","","","","","",""
"html-keyboard-response","6","1442672","0.0-3.0-1.0-0.0","2728e999db7dc07153bae68cac63e761b8f05fc1ace311991247e8190a22aa4d","swim","arctic","null","","<div style=""font-size:60px;"">+</div>","","null","","","","","","","","","","","","","","","","","","","",""
"audio-button-response","7","1447440","0.0-3.0-1.0-1.0","2728e999db7dc07153bae68cac63e761b8f05fc1ace311991247e8190a22aa4d","swim","arctic","4759","","audio/t1_2.mp3","0","","0","1","headphone-test","","","","","","","","","","","","","","","","",""
"html-keyboard-response","8","1447943","0.0-3.0-1.0-2.0","2728e999db7dc07153bae68cac63e761b8f05fc1ace311991247e8190a22aa4d","swim","arctic","null","","<p>Correct</p>","","null","","","","","","","","","","","","","","","","","","","",""
"html-keyboard-response","9","1448445","0.0-3.0-1.0-0.1","2728e999db7dc07153bae68cac63e761b8f05fc1ace311991247e8190a22aa4d","swim","arctic","null","","<div style=""font-size:60px;"">+</div>","","null","","","","","","","","","","","","","","","","","","","",""
"audio-button-response","10","1453820","0.0-3.0-1.0-1.1","2728e999db7dc07153bae68cac63e761b8f05fc1ace311991247e8190a22aa4d","swim","arctic","5373","","audio/t2_1.mp3","1","","1","1","headphone-test","","","","","","","","","","","","","","","","",""
"html-keyboard-response","11","1454322","0.0-3.0-1.0-2.1","2728e999db7dc07153bae68cac63e761b8f05fc1ace311991247e8190a22aa4d","swim","arctic","null","","<p>Correct</p>","","null","","","","","","","","","","","","","","","","","","","",""
"html-keyboard-response","12","1454824","0.0-3.0-1.0-0.2","2728e999db7dc07153bae68cac63e761b8f05fc1ace311991247e8190a22aa4d","swim","arctic","null","","<div style=""font-size:60px;"">+</div>","","null","","","","","","","","","","","","","","","","","","","",""
"audio-button-response","13","1459236","0.0-3.0-1.0-1.2","2728e999db7dc07153bae68cac63e761b8f05fc1ace311991247e8190a22aa4d","swim","arctic","4409","","audio/t1_1.mp3","0","","0","1","headphone-test","","","","","","","","","","","","","","","","",""
"html-keyboard-response","14","1459738","0.0-3.0-1.0-2.2","2728e999db7dc07153bae68cac63e761b8f05fc1ace311991247e8190a22aa4d","swim","arctic","null","","<p>Correct</p>","","null","","","","","","","","","","","","","","","","","","","",""
"html-keyboard-response","15","1460240","0.0-3.0-1.0-0.3","2728e999db7dc07153bae68cac63e761b8f05fc1ace311991247e8190a22aa4d","swim","arctic","null","","<div style=""font-size:60px;"">+</div>","","null","","","","","","","","","","","","","","","","","","","",""
"audio-button-response","16","1464392","0.0-3.0-1.0-1.3","2728e999db7dc07153bae68cac63e761b8f05fc1ace311991247e8190a22aa4d","swim","arctic","4150","","audio/t3_2.mp3","2","","2","1","headphone-test","","","","","","","","","","","","","","","","",""
"html-keyboard-response","17","1464894","0.0-3.0-1.0-2.3","2728e999db7dc07153bae68cac63e761b8f05fc1ace311991247e8190a22aa4d","swim","arctic","null","","<p>Correct</p>","","null","","","","","","","","","","","","","","","","","","","",""
"html-keyboard-response","18","1465395","0.0-3.0-1.0-0.4","2728e999db7dc07153bae68cac63e761b8f05fc1ace311991247e8190a22aa4d","swim","arctic","null","","<div style=""font-size:60px;"">+</div>","","null","","","","","","","","","","","","","","","","","","","",""
"audio-button-response","19","1469766","0.0-3.0-1.0-1.4","2728e999db7dc07153bae68cac63e761b8f05fc1ace311991247e8190a22aa4d","swim","arctic","4370","","audio/t2_2.mp3","1","","1","1","headphone-test","","","","","","","","","","","","","","","","",""
"html-keyboard-response","20","1470269","0.0-3.0-1.0-2.4","2728e999db7dc07153bae68cac63e761b8f05fc1ace311991247e8190a22aa4d","swim","arctic","null","","<p>Correct</p>","","null","","","","","","","","","","","","","","","","","","","",""
"html-keyboard-response","21","1470771","0.0-3.0-1.0-0.5","2728e999db7dc07153bae68cac63e761b8f05fc1ace311991247e8190a22aa4d","swim","arctic","null","","<div style=""font-size:60px;"">+</div>","","null","","","","","","","","","","","","","","","","","","","",""
"audio-button-response","22","1475460","0.0-3.0-1.0-1.5","2728e999db7dc07153bae68cac63e761b8f05fc1ace311991247e8190a22aa4d","swim","arctic","4687","","audio/t3_1.mp3","2","","2","1","headphone-test","","","","","","","","","","","","","","","","",""
"html-keyboard-response","23","1475962","0.0-3.0-1.0-2.5","2728e999db7dc07153bae68cac63e761b8f05fc1ace311991247e8190a22aa4d","swim","arctic","null","","<p>Correct</p>","","null","","","","","","","","","","","","","","","","","","","",""
"fullscreen","24","1478935","0.0-4.0","2728e999db7dc07153bae68cac63e761b8f05fc1ace311991247e8190a22aa4d","swim","arctic","","","","","","","","","true","","","","","","","","","","","","","","","",""
"html-button-response","25","1487667","0.0-5.0-0.0","2728e999db7dc07153bae68cac63e761b8f05fc1ace311991247e8190a22aa4d","swim","arctic","8730","","<p>There are two blocks to this experiment.</p><p>In each block, you will hear a ~13.5 minute story. One of the stories will be scrambled. Please listen carefully to both stories and understand them as best you can.</p><p>After each story, you will be asked some questions to assess your comprehension.</p>","0","","","","","","","","","","","","","","","","","","","","",""
"html-button-response","26","1783463","0.0-5.0-1.0","2728e999db7dc07153bae68cac63e761b8f05fc1ace311991247e8190a22aa4d","swim","arctic","295795","","<p>During each story, there will be an additional task.</p><p>A letter will occasionally appear on the screen.</br>Your job is to - as quickly as you can - decide whether the letter is lowercase or uppercase and press one of two keys on the keyboard:</p><p>If the letter is <b>lowercase</b>, press key &lt;<b>x</b>&gt;.</p><p>If the letter is <b>uppercase</b>, press key &lt;<b>m</b>&gt;.</p>","0","","","","","","","","","","","","","","","","","","","","",""
"html-keyboard-response","27","1790708","0.0-5.0-2.0","2728e999db7dc07153bae68cac63e761b8f05fc1ace311991247e8190a22aa4d","swim","arctic","7244","","<p>Because we want your responses to be as quick as possible, please keep your index fingers over the keys while listening.</p><p>Each block lasts about 20 minutes.</p><p><b>Press &lt;x&gt; or &lt;m&gt; to start the first block!</b></p>","","88","","","","","","","","","","","","","","","","","","","",""
"html-keyboard-response","28","1791216","0.0-7.0-0.0-0.0","2728e999db7dc07153bae68cac63e761b8f05fc1ace311991247e8190a22aa4d","swim","arctic","null","","<div style=""font-size:60px;"" tabindex=""0"">+</div>","","null","","","","","","","","","","","","","","","","","","","",""
"dual-task","null","null","null","","swim","arctic","NA","","n","null","NA","88","0","swim-dual-task","","n","lowercase","18000","1","6","2728e999db7dc07153bae68cac63e761b8f05fc1ace311991247e8190a22aa4d","17999.20000000298","NA","NA","0","swim","","","","",""
"dual-task","null","null","null","","swim","arctic","516.7999999970198","","g","null","88","88","1","swim-dual-task","","g","lowercase","30000","0","6","2728e999db7dc07153bae68cac63e761b8f05fc1ace311991247e8190a22aa4d","29999","516.7999999970198","88","1","swim","","","","",""
"dual-task","null","null","null","","swim","arctic","797.8999999910593","","B","null","77","77","1","swim-dual-task","","B","uppercase","40000","0","6","2728e999db7dc07153bae68cac63e761b8f05fc1ace311991247e8190a22aa4d","40002.59999999404","797.8999999910593","77","1","swim","","","","",""
"dual-task","null","null","null","","swim","arctic","657.4000000059605","","n","null","88","88","1","swim-dual-task","","n","lowercase","54000","0","6","2728e999db7dc07153bae68cac63e761b8f05fc1ace311991247e8190a22aa4d","54001.70000000298","657.4000000059605","88","1","swim","","","","",""
"dual-task","null","null","null","","swim","arctic","719.5999999940395","","F","null","77","77","1","swim-dual-task","","F","uppercase","62000","0","6","2728e999db7dc07153bae68cac63e761b8f05fc1ace311991247e8190a22aa4d","61999.20000000298","719.5999999940395","77","1","swim","","","","",""
"dual-task","null","null","null","","swim","arctic","621.1000000089407","","H","null","77","77","1","swim-dual-task","","H","uppercase","76000","0","6","2728e999db7dc07153bae68cac63e761b8f05fc1ace311991247e8190a22aa4d","76000.79999999702","621.1000000089407","77","1","swim","","","","",""
"dual-task","null","null","null","","swim","arctic","486.6000000089407","","g","null","88","88","1","swim-dual-task","","g","lowercase","86000","0","6","2728e999db7dc07153bae68cac63e761b8f05fc1ace311991247e8190a22aa4d","86002.79999999702","486.6000000089407","88","1","swim","","","","",""
"dual-task","null","null","null","","swim","arctic","622.7999999970198","","H","null","77","77","1","swim-dual-task","","H","uppercase","100000","0","6","2728e999db7dc07153bae68cac63e761b8f05fc1ace311991247e8190a22aa4d","99999","622.7999999970198","77","1","swim","","","","",""
"dual-task","null","null","null","","swim","arctic","715","","N","null","77","77","1","swim-dual-task","","N","uppercase","106000","0","6","2728e999db7dc07153bae68cac63e761b8f05fc1ace311991247e8190a22aa4d","106001.20000000298","715","77","1","swim","","","","",""
"dual-task","null","null","null","","swim","arctic","588.7000000029802","","E","null","77","77","1","swim-dual-task","","E","uppercase","114000","0","6","2728e999db7dc07153bae68cac63e761b8f05fc1ace311991247e8190a22aa4d","114003.79999999702","588.7000000029802","77","1","swim","","","","",""
"dual-task","null","null","null","","swim","arctic","575.5","","h","null","88","88","1","swim-dual-task","","h","lowercase","128000","0","6","2728e999db7dc07153bae68cac63e761b8f05fc1ace311991247e8190a22aa4d","128000.09999999404","575.5","88","1","swim","","","","",""
"dual-task","null","null","null","","swim","arctic","625.4000000059605","","R","null","77","77","1","swim-dual-task","","R","uppercase","140000","0","6","2728e999db7dc07153bae68cac63e761b8f05fc1ace311991247e8190a22aa4d","140001.29999999702","625.4000000059605","77","1","swim","","","","",""
"dual-task","null","null","null","","swim","arctic","574.3999999910593","","G","null","77","77","1","swim-dual-task","","G","uppercase","152000","0","6","2728e999db7dc07153bae68cac63e761b8f05fc1ace311991247e8190a22aa4d","152000","574.3999999910593","77","1","swim","","","","",""
"dual-task","null","null","null","","swim","arctic","653.5999999940395","","F","null","77","77","1","swim-dual-task","","F","uppercase","164000","0","6","2728e999db7dc07153bae68cac63e761b8f05fc1ace311991247e8190a22aa4d","163999.09999999404","653.5999999940395","77","1","swim","","","","",""
"dual-task","null","null","null","","swim","arctic","969.3999999910593","","D","null","77","77","1","swim-dual-task","","D","uppercase","172000","0","6","2728e999db7dc07153bae68cac63e761b8f05fc1ace311991247e8190a22aa4d","172001.09999999404","969.3999999910593","77","1","swim","","","","",""
"dual-task","null","null","null","","swim","arctic","1222.5","","r","null","88","88","1","swim-dual-task","","r","lowercase","184000","0","6","2728e999db7dc07153bae68cac63e761b8f05fc1ace311991247e8190a22aa4d","184002","1222.5","88","1","swim","","","","",""
"dual-task","null","null","null","","swim","arctic","1493.5","","a","null","88","88","1","swim-dual-task","","a","lowercase","194000","0","6","2728e999db7dc07153bae68cac63e761b8f05fc1ace311991247e8190a22aa4d","193999.29999999702","1493.5","88","1","swim","","","","",""
"dual-task","null","null","null","","swim","arctic","468.5","","B","null","77","77","1","swim-dual-task","","B","uppercase","206000","0","6","2728e999db7dc07153bae68cac63e761b8f05fc1ace311991247e8190a22aa4d","206003.79999999702","468.5","77","1","swim","","","","",""
"dual-task","null","null","null","","swim","arctic","1118.2000000029802","","e","null","88","88","1","swim-dual-task","","e","lowercase","220000","0","6","2728e999db7dc07153bae68cac63e761b8f05fc1ace311991247e8190a22aa4d","220003.40000000596","1118.2000000029802","88","1","swim","","","","",""
"dual-task","null","null","null","","swim","arctic","911.2000000029802","","D","null","77","77","1","swim-dual-task","","D","uppercase","232000","0","6","2728e999db7dc07153bae68cac63e761b8f05fc1ace311991247e8190a22aa4d","231999.29999999702","911.2000000029802","77","1","swim","","","","",""
"dual-task","null","null","null","","swim","arctic","610.8999999910593","","N","null","77","77","1","swim-dual-task","","N","uppercase","242000","0","6","2728e999db7dc07153bae68cac63e761b8f05fc1ace311991247e8190a22aa4d","242000.59999999404","610.8999999910593","77","1","swim","","","","",""
"dual-task","null","null","null","","swim","arctic","650.7999999970198","","G","null","77","77","1","swim-dual-task","","G","uppercase","256000","0","6","2728e999db7dc07153bae68cac63e761b8f05fc1ace311991247e8190a22aa4d","256001.09999999404","650.7999999970198","77","1","swim","","","","",""
"dual-task","null","null","null","","swim","arctic","NA","","g","null","NA","88","0","swim-dual-task","","g","lowercase","262000","1","6","2728e999db7dc07153bae68cac63e761b8f05fc1ace311991247e8190a22aa4d","262000.40000000596","NA","NA","0","swim","","","","",""
"dual-task","null","null","null","","swim","arctic","748.2000000029802","","f","null","88","88","1","swim-dual-task","","f","lowercase","272000","0","6","2728e999db7dc07153bae68cac63e761b8f05fc1ace311991247e8190a22aa4d","272000.40000000596","748.2000000029802","88","1","swim","","","","",""
"dual-task","null","null","null","","swim","arctic","700","","B","null","77","77","1","swim-dual-task","","B","uppercase","280000","0","6","2728e999db7dc07153bae68cac63e761b8f05fc1ace311991247e8190a22aa4d","280002.700000003","700","77","1","swim","","","","",""
"dual-task","null","null","null","","swim","arctic","1224.5999999940395","","f","null","88","88","1","swim-dual-task","","f","lowercase","288000","0","6","2728e999db7dc07153bae68cac63e761b8f05fc1ace311991247e8190a22aa4d","288001.799999997","1224.5999999940395","88","1","swim","","","","",""
"dual-task","null","null","null","","swim","arctic","719.3000000119209","","t","null","88","88","1","swim-dual-task","","t","lowercase","300000","0","6","2728e999db7dc07153bae68cac63e761b8f05fc1ace311991247e8190a22aa4d","300002.299999997","719.3000000119209","88","1","swim","","","","",""
"dual-task","null","null","null","","swim","arctic","1209.0999999940395","","q","null","88","88","1","swim-dual-task","","q","lowercase","308000","0","6","2728e999db7dc07153bae68cac63e761b8f05fc1ace311991247e8190a22aa4d","308003.09999999404","1209.0999999940395","88","1","swim","","","","",""
"dual-task","null","null","null","","swim","arctic","1037","","g","null","88","88","1","swim-dual-task","","g","lowercase","314000","0","6","2728e999db7dc07153bae68cac63e761b8f05fc1ace311991247e8190a22aa4d","314001.09999999404","1037","88","1","swim","","","","",""
"dual-task","null","null","null","","swim","arctic","645.3000000119209","","q","null","88","88","1","swim-dual-task","","q","lowercase","324000","0","6","2728e999db7dc07153bae68cac63e761b8f05fc1ace311991247e8190a22aa4d","324003.700000003","645.3000000119209","88","1","swim","","","","",""
"dual-task","null","null","null","","swim","arctic","626.5","","H","null","77","77","1","swim-dual-task","","H","uppercase","334000","0","6","2728e999db7dc07153bae68cac63e761b8f05fc1ace311991247e8190a22aa4d","334000","626.5","77","1","swim","","","","",""
"dual-task","null","null","null","","swim","arctic","833.7999999970198","","e","null","88","88","1","swim-dual-task","","e","lowercase","342000","0","6","2728e999db7dc07153bae68cac63e761b8f05fc1ace311991247e8190a22aa4d","342003.200000003","833.7999999970198","88","1","swim","","","","",""
"dual-task","null","null","null","","swim","arctic","606.5","","Q","null","77","77","1","swim-dual-task","","Q","uppercase","350000","0","6","2728e999db7dc07153bae68cac63e761b8f05fc1ace311991247e8190a22aa4d","350002.299999997","606.5","77","1","swim","","","","",""
"dual-task","null","null","null","","swim","arctic","655.5","","t","null","88","88","1","swim-dual-task","","t","lowercase","358000","0","6","2728e999db7dc07153bae68cac63e761b8f05fc1ace311991247e8190a22aa4d","358001.40000000596","655.5","88","1","swim","","","","",""
"dual-task","null","null","null","","swim","arctic","495.29999999701977","","f","null","88","88","1","swim-dual-task","","f","lowercase","368000","0","6","2728e999db7dc07153bae68cac63e761b8f05fc1ace311991247e8190a22aa4d","368002.40000000596","495.29999999701977","88","1","swim","","","","",""
"dual-task","null","null","null","","swim","arctic","806.5","","d","null","88","88","1","swim-dual-task","","d","lowercase","376000","0","6","2728e999db7dc07153bae68cac63e761b8f05fc1ace311991247e8190a22aa4d","376002.90000000596","806.5","88","1","swim","","","","",""
"dual-task","null","null","null","","swim","arctic","812.8999999910593","","F","null","77","77","1","swim-dual-task","","F","uppercase","386000","0","6","2728e999db7dc07153bae68cac63e761b8f05fc1ace311991247e8190a22aa4d","385999.90000000596","812.8999999910593","77","1","swim","","","","",""
"dual-task","null","null","null","","swim","arctic","886.7999999970198","","h","null","88","88","1","swim-dual-task","","h","lowercase","396000","0","6","2728e999db7dc07153bae68cac63e761b8f05fc1ace311991247e8190a22aa4d","396001.09999999404","886.7999999970198","88","1","swim","","","","",""
"dual-task","null","null","null","","swim","arctic","852.5999999940395","","D","null","77","77","1","swim-dual-task","","D","uppercase","402000","0","6","2728e999db7dc07153bae68cac63e761b8f05fc1ace311991247e8190a22aa4d","402003.59999999404","852.5999999940395","77","1","swim","","","","",""
"dual-task","null","null","null","","swim","arctic","768.9000000059605","","A","null","77","77","1","swim-dual-task","","A","uppercase","414000","0","6","2728e999db7dc07153bae68cac63e761b8f05fc1ace311991247e8190a22aa4d","414002.40000000596","768.9000000059605","77","1","swim","","","","",""
"dual-task","null","null","null","","swim","arctic","620.9000000059605","","A","null","77","77","1","swim-dual-task","","A","uppercase","426000","0","6","2728e999db7dc07153bae68cac63e761b8f05fc1ace311991247e8190a22aa4d","426002","620.9000000059605","77","1","swim","","","","",""
"dual-task","null","null","null","","swim","arctic","780.7000000029802","","G","null","77","77","1","swim-dual-task","","G","uppercase","434000","0","6","2728e999db7dc07153bae68cac63e761b8f05fc1ace311991247e8190a22aa4d","434002.90000000596","780.7000000029802","77","1","swim","","","","",""
"dual-task","null","null","null","","swim","arctic","614.8000000119209","","T","null","77","77","1","swim-dual-task","","T","uppercase","446000","0","6","2728e999db7dc07153bae68cac63e761b8f05fc1ace311991247e8190a22aa4d","445999.799999997","614.8000000119209","77","1","swim","","","","",""
"dual-task","null","null","null","","swim","arctic","646.7000000029802","","q","null","77","88","0","swim-dual-task","","q","lowercase","452000","0","6","2728e999db7dc07153bae68cac63e761b8f05fc1ace311991247e8190a22aa4d","452001.5","646.7000000029802","77","0","swim","","","","",""
"dual-task","null","null","null","","swim","arctic","569.7999999970198","","R","null","77","77","1","swim-dual-task","","R","uppercase","462000","0","6","2728e999db7dc07153bae68cac63e761b8f05fc1ace311991247e8190a22aa4d","462003.90000000596","569.7999999970198","77","1","swim","","","","",""
"dual-task","null","null","null","","swim","arctic","1019.6000000089407","","h","null","88","88","1","swim-dual-task","","h","lowercase","468000","0","6","2728e999db7dc07153bae68cac63e761b8f05fc1ace311991247e8190a22aa4d","468000.299999997","1019.6000000089407","88","1","swim","","","","",""
"dual-task","null","null","null","","swim","arctic","679.1000000089407","","d","null","88","88","1","swim-dual-task","","d","lowercase","480000","0","6","2728e999db7dc07153bae68cac63e761b8f05fc1ace311991247e8190a22aa4d","480003.5","679.1000000089407","88","1","swim","","","","",""
"dual-task","null","null","null","","swim","arctic","576.1000000089407","","d","null","88","88","1","swim-dual-task","","d","lowercase","488000","0","6","2728e999db7dc07153bae68cac63e761b8f05fc1ace311991247e8190a22aa4d","488004.299999997","576.1000000089407","88","1","swim","","","","",""
"dual-task","null","null","null","","swim","arctic","535.2999999970198","","R","null","77","77","1","swim-dual-task","","R","uppercase","496000","0","6","2728e999db7dc07153bae68cac63e761b8f05fc1ace311991247e8190a22aa4d","496003.700000003","535.2999999970198","77","1","swim","","","","",""
"dual-task","null","null","null","","swim","arctic","619.8999999910593","","N","null","77","77","1","swim-dual-task","","N","uppercase","504000","0","6","2728e999db7dc07153bae68cac63e761b8f05fc1ace311991247e8190a22aa4d","504002.90000000596","619.8999999910593","77","1","swim","","","","",""
"dual-task","null","null","null","","swim","arctic","1059.8999999910593","","n","null","88","88","1","swim-dual-task","","n","lowercase","514000","0","6","2728e999db7dc07153bae68cac63e761b8f05fc1ace311991247e8190a22aa4d","513999.799999997","1059.8999999910593","88","1","swim","","","","",""
"dual-task","null","null","null","","swim","arctic","713.2999999970198","","b","null","88","88","1","swim-dual-task","","b","lowercase","526000","0","6","2728e999db7dc07153bae68cac63e761b8f05fc1ace311991247e8190a22aa4d","526001.5","713.2999999970198","88","1","swim","","","","",""
"dual-task","null","null","null","","swim","arctic","593.6000000089407","","a","null","88","88","1","swim-dual-task","","a","lowercase","534000","0","6","2728e999db7dc07153bae68cac63e761b8f05fc1ace311991247e8190a22aa4d","534003","593.6000000089407","88","1","swim","","","","",""
"dual-task","null","null","null","","swim","arctic","557.2000000029802","","e","null","88","88","1","swim-dual-task","","e","lowercase","546000","0","6","2728e999db7dc07153bae68cac63e761b8f05fc1ace311991247e8190a22aa4d","546003.5","557.2000000029802","88","1","swim","","","","",""
"dual-task","null","null","null","","swim","arctic","464.70000000298023","","f","null","88","88","1","swim-dual-task","","f","lowercase","558000","0","6","2728e999db7dc07153bae68cac63e761b8f05fc1ace311991247e8190a22aa4d","558000.799999997","464.70000000298023","88","1","swim","","","","",""
"dual-task","null","null","null","","swim","arctic","584.5","","T","null","77","77","1","swim-dual-task","","T","uppercase","570000","0","6","2728e999db7dc07153bae68cac63e761b8f05fc1ace311991247e8190a22aa4d","570004.599999994","584.5","77","1","swim","","","","",""
"dual-task","null","null","null","","swim","arctic","550","","q","null","77","88","0","swim-dual-task","","q","lowercase","582000","0","6","2728e999db7dc07153bae68cac63e761b8f05fc1ace311991247e8190a22aa4d","582001.099999994","550","77","0","swim","","","","",""
"dual-task","null","null","null","","swim","arctic","620.2000000029802","","A","null","77","77","1","swim-dual-task","","A","uppercase","594000","0","6","2728e999db7dc07153bae68cac63e761b8f05fc1ace311991247e8190a22aa4d","594003.5","620.2000000029802","77","1","swim","","","","",""
"dual-task","null","null","null","","swim","arctic","568.5999999940395","","r","null","88","88","1","swim-dual-task","","r","lowercase","602000","0","6","2728e999db7dc07153bae68cac63e761b8f05fc1ace311991247e8190a22aa4d","602002.799999997","568.5999999940395","88","1","swim","","","","",""
"dual-task","null","null","null","","swim","arctic","529.2000000029802","","a","null","88","88","1","swim-dual-task","","a","lowercase","616000","0","6","2728e999db7dc07153bae68cac63e761b8f05fc1ace311991247e8190a22aa4d","616003.5","529.2000000029802","88","1","swim","","","","",""
"dual-task","null","null","null","","swim","arctic","615.2000000029802","","B","null","77","77","1","swim-dual-task","","B","uppercase","622000","0","6","2728e999db7dc07153bae68cac63e761b8f05fc1ace311991247e8190a22aa4d","622000.700000003","615.2000000029802","77","1","swim","","","","",""
"dual-task","null","null","null","","swim","arctic","551.6000000089407","","T","null","77","77","1","swim-dual-task","","T","uppercase","636000","0","6","2728e999db7dc07153bae68cac63e761b8f05fc1ace311991247e8190a22aa4d","636003.400000006","551.6000000089407","77","1","swim","","","","",""
"dual-task","null","null","null","","swim","arctic","629.7000000029802","","b","null","88","88","1","swim-dual-task","","b","lowercase","644000","0","6","2728e999db7dc07153bae68cac63e761b8f05fc1ace311991247e8190a22aa4d","644001.900000006","629.7000000029802","88","1","swim","","","","",""
"dual-task","null","null","null","","swim","arctic","639.5","","t","null","88","88","1","swim-dual-task","","t","lowercase","654000","0","6","2728e999db7dc07153bae68cac63e761b8f05fc1ace311991247e8190a22aa4d","654003.900000006","639.5","88","1","swim","","","","",""
"dual-task","null","null","null","","swim","arctic","569.4000000059605","","E","null","77","77","1","swim-dual-task","","E","uppercase","668000","0","6","2728e999db7dc07153bae68cac63e761b8f05fc1ace311991247e8190a22aa4d","668005.299999997","569.4000000059605","77","1","swim","","","","",""
"dual-task","null","null","null","","swim","arctic","626.5","","R","null","77","77","1","swim-dual-task","","R","uppercase","676000","0","6","2728e999db7dc07153bae68cac63e761b8f05fc1ace311991247e8190a22aa4d","676004.700000003","626.5","77","1","swim","","","","",""
"dual-task","null","null","null","","swim","arctic","589","","a","null","88","88","1","swim-dual-task","","a","lowercase","686000","0","6","2728e999db7dc07153bae68cac63e761b8f05fc1ace311991247e8190a22aa4d","686000.900000006","589","88","1","swim","","","","",""
"dual-task","null","null","null","","swim","arctic","608.2999999970198","","n","null","88","88","1","swim-dual-task","","n","lowercase","698000","0","6","2728e999db7dc07153bae68cac63e761b8f05fc1ace311991247e8190a22aa4d","698001","608.2999999970198","88","1","swim","","","","",""
"dual-task","null","null","null","","swim","arctic","614.7999999970198","","D","null","77","77","1","swim-dual-task","","D","uppercase","708000","0","6","2728e999db7dc07153bae68cac63e761b8f05fc1ace311991247e8190a22aa4d","708004.5","614.7999999970198","77","1","swim","","","","",""
"dual-task","null","null","null","","swim","arctic","700.4000000059605","","N","null","77","77","1","swim-dual-task","","N","uppercase","720000","0","6","2728e999db7dc07153bae68cac63e761b8f05fc1ace311991247e8190a22aa4d","720000.5","700.4000000059605","77","1","swim","","","","",""
"dual-task","null","null","null","","swim","arctic","745.3999999910593","","t","null","88","88","1","swim-dual-task","","t","lowercase","728000","0","6","2728e999db7dc07153bae68cac63e761b8f05fc1ace311991247e8190a22aa4d","728000.200000003","745.3999999910593","88","1","swim","","","","",""
"dual-task","null","null","null","","swim","arctic","554.2999999970198","","b","null","88","88","1","swim-dual-task","","b","lowercase","740000","0","6","2728e999db7dc07153bae68cac63e761b8f05fc1ace311991247e8190a22aa4d","740004.900000006","554.2999999970198","88","1","swim","","","","",""
"dual-task","null","null","null","","swim","arctic","562","","E","null","77","77","1","swim-dual-task","","E","uppercase","754000","0","6","2728e999db7dc07153bae68cac63e761b8f05fc1ace311991247e8190a22aa4d","754000.599999994","562","77","1","swim","","","","",""
"dual-task","null","null","null","","swim","arctic","810.7999999970198","","e","null","88","88","1","swim-dual-task","","e","lowercase","762000","0","6","2728e999db7dc07153bae68cac63e761b8f05fc1ace311991247e8190a22aa4d","762004.400000006","810.7999999970198","88","1","swim","","","","",""
"dual-task","null","null","null","","swim","arctic","856.6000000089407","","G","null","77","77","1","swim-dual-task","","G","uppercase","770000","0","6","2728e999db7dc07153bae68cac63e761b8f05fc1ace311991247e8190a22aa4d","770004.799999997","856.6000000089407","77","1","swim","","","","",""
"dual-task","null","null","null","","swim","arctic","544.5","","Q","null","77","77","1","swim-dual-task","","Q","uppercase","778000","0","6","2728e999db7dc07153bae68cac63e761b8f05fc1ace311991247e8190a22aa4d","778005.099999994","544.5","77","1","swim","","","","",""
"dual-task","null","null","null","","swim","arctic","491.8999999910593","","H","null","77","77","1","swim-dual-task","","H","uppercase","786000","0","6","2728e999db7dc07153bae68cac63e761b8f05fc1ace311991247e8190a22aa4d","786003.400000006","491.8999999910593","77","1","swim","","","","",""
"dual-task","null","null","null","","swim","arctic","553.2999999970198","","T","null","77","77","1","swim-dual-task","","T","uppercase","800000","0","6","2728e999db7dc07153bae68cac63e761b8f05fc1ace311991247e8190a22aa4d","800010.599999994","553.2999999970198","77","1","swim","","","","",""
"audio-keyboard-response","29","2601247","0.0-7.0-0.0-1.0","2728e999db7dc07153bae68cac63e761b8f05fc1ace311991247e8190a22aa4d","swim","arctic","null","","audio/story_swim.mp3","","null","","","","","","","","","","","","","","","","","","","",""
"html-button-response","30","2603408","0.0-7.0-0.0-2.0","2728e999db7dc07153bae68cac63e761b8f05fc1ace311991247e8190a22aa4d","swim","arctic","2160","","<p>This concludes the story. Thank you for listening.</p><p>You will now answer some questions about the content of the story.</p>","0","","","","","","","","","","","","","","","","","","","","",""
"survey-multi-choice","31","2611060","0.0-7.0-0.0-3.0-0.0","2728e999db7dc07153bae68cac63e761b8f05fc1ace311991247e8190a22aa4d","swim","arctic","7647","","<b>How many astronaut candidates reported for duty at the Johnson Space Center?</b>","","","","1","swim-comprehension","","","","","","","","","","","","","{""Q0"":""Forty-four""}","","","",""
"survey-multi-choice","32","2617410","0.0-7.0-0.0-3.0-0.1","2728e999db7dc07153bae68cac63e761b8f05fc1ace311991247e8190a22aa4d","swim","arctic","6094","","<b>How many times did the astronaut candidates have to complete the final exercise to pass?</b>","","","","1","swim-comprehension","","","","","","","","","","","","","{""Q0"":""Two""}","","","",""
"survey-multi-choice","33","2622713","0.0-7.0-0.0-3.0-0.2","2728e999db7dc07153bae68cac63e761b8f05fc1ace311991247e8190a22aa4d","swim","arctic","5046","","<b>How often does the narrator swim, now that he is a good swimmer?</b>","","","","1","swim-comprehension","","","","","","","","","","","","","{""Q0"":""Never swam again in his life""}","","","",""
"survey-multi-choice","34","2626163","0.0-7.0-0.0-3.0-0.3","2728e999db7dc07153bae68cac63e761b8f05fc1ace311991247e8190a22aa4d","swim","arctic","3191","","<b>Where is the home of naval aviation?</b>","","","","1","swim-comprehension","","","","","","","","","","","","","{""Q0"":""Pensacola""}","","","",""
"survey-multi-choice","35","2638361","0.0-7.0-0.0-3.0-0.4","2728e999db7dc07153bae68cac63e761b8f05fc1ace311991247e8190a22aa4d","swim","arctic","11940","","<b>How did the narrator train for his swim test?</b>","","","","0","swim-comprehension","","","","","","","","","","","","","{""Q0"":""Swam at the lake every day""}","","","",""
"survey-multi-choice","36","2644484","0.0-7.0-0.0-3.0-0.5","2728e999db7dc07153bae68cac63e761b8f05fc1ace311991247e8190a22aa4d","swim","arctic","5868","","<b>How many astronaut candidates passed the first swim test?</b>","","","","1","swim-comprehension","","","","","","","","","","","","","{""Q0"":""All of them""}","","","",""
"survey-multi-choice","37","2649360","0.0-7.0-0.0-3.0-0.6","2728e999db7dc07153bae68cac63e761b8f05fc1ace311991247e8190a22aa4d","swim","arctic","4618","","<b>What gave the narrator his greatest feeling of accomplishment?</b>","","","","1","swim-comprehension","","","","","","","","","","","","","{""Q0"":""Passing the water survival course""}","","","",""
"survey-multi-choice","38","2664496","0.0-7.0-0.0-3.0-0.7","2728e999db7dc07153bae68cac63e761b8f05fc1ace311991247e8190a22aa4d","swim","arctic","14878","","<b>What was the final step of the first swim test in the pool?</b>","","","","1","swim-comprehension","","","","","","","","","","","","","{""Q0"":""Tread water with hands above the water""}","","","",""
"survey-multi-choice","39","2667944","0.0-7.0-0.0-3.0-0.8","2728e999db7dc07153bae68cac63e761b8f05fc1ace311991247e8190a22aa4d","swim","arctic","3193","","<b>What is the narrator afraid of, aside from the water?</b>","","","","1","swim-comprehension","","","","","","","","","","","","","{""Q0"":""Heights""}","","","",""
"survey-multi-choice","40","2676666","0.0-7.0-0.0-3.0-0.9","2728e999db7dc07153bae68cac63e761b8f05fc1ace311991247e8190a22aa4d","swim","arctic","8466","","<b>What were the astronaut candidates trained to do at the naval air station?</b>","","","","1","swim-comprehension","","","","","","","","","","","","","{""Q0"":""Eject out of aircraft and survive in water long enough to be rescued""}","","","",""
"html-button-response","41","2678986","0.0-7.0-0.0-4.0","2728e999db7dc07153bae68cac63e761b8f05fc1ace311991247e8190a22aa4d","swim","arctic","2069","","<p>Thank you for your responses.</p><p>You will now answer some questions about your impressions of the story.</p>","0","","","","","","","","","","","","","","","","","","","","",""
"html-button-response","42","2681911","0.0-7.0-0.0-5.0-0.0","2728e999db7dc07153bae68cac63e761b8f05fc1ace311991247e8190a22aa4d","swim","arctic","2923","","A5","5","","","","swim-engagement","","","","","","","","","","","","","","6","absorption","",""
"html-button-response","43","2683372","0.0-7.0-0.0-5.0-0.1","2728e999db7dc07153bae68cac63e761b8f05fc1ace311991247e8190a22aa4d","swim","arctic","1209","","E7","5","","","","swim-engagement","","","","","","","","","","","","","","6","enjoyment","",""
"html-button-response","44","2685065","0.0-7.0-0.0-5.0-0.2","2728e999db7dc07153bae68cac63e761b8f05fc1ace311991247e8190a22aa4d","swim","arctic","1438","","E6","6","","","","swim-engagement","","","","","","","","","","","","","","7","enjoyment","",""
"html-button-response","45","2686313","0.0-7.0-0.0-5.0-0.3","2728e999db7dc07153bae68cac63e761b8f05fc1ace311991247e8190a22aa4d","swim","arctic","992","","E8","6","","","","swim-engagement","","","","","","","","","","","","","","7","enjoyment","",""
"html-button-response","46","2688687","0.0-7.0-0.0-5.0-0.4","2728e999db7dc07153bae68cac63e761b8f05fc1ace311991247e8190a22aa4d","swim","arctic","2117","","A4","4","","","","swim-engagement","","","","","","","","","","","","","","5","absorption","",""
"html-button-response","47","2690299","0.0-7.0-0.0-5.0-0.5","2728e999db7dc07153bae68cac63e761b8f05fc1ace311991247e8190a22aa4d","swim","arctic","1357","","MS3","5","","","","swim-engagement","","","","","","","","","","","","","","6","mental-sim","",""
"html-button-response","48","2691914","0.0-7.0-0.0-5.0-0.6","2728e999db7dc07153bae68cac63e761b8f05fc1ace311991247e8190a22aa4d","swim","arctic","1363","","EE5","5","","","","swim-engagement","","","","","","","","","","","","","","6","emo-engage","",""
"html-button-response","49","2693615","0.0-7.0-0.0-5.0-0.7","2728e999db7dc07153bae68cac63e761b8f05fc1ace311991247e8190a22aa4d","swim","arctic","1444","","E10","6","","","","swim-engagement","","","","","","","","","","","","","","7","enjoyment","",""
"html-button-response","50","2695529","0.0-7.0-0.0-5.0-0.8","2728e999db7dc07153bae68cac63e761b8f05fc1ace311991247e8190a22aa4d","swim","arctic","1661","","MS1","6","","","","swim-engagement","","","","","","","","","","","","","","7","mental-sim","",""
"html-button-response","51","2697095","0.0-7.0-0.0-5.0-0.9","2728e999db7dc07153bae68cac63e761b8f05fc1ace311991247e8190a22aa4d","swim","arctic","1313","","EE2","5","","","","swim-engagement","","","","","","","","","","","","","","6","emo-engage","",""
"html-button-response","52","2698374","0.0-7.0-0.0-5.0-0.10","2728e999db7dc07153bae68cac63e761b8f05fc1ace311991247e8190a22aa4d","swim","arctic","1026","","EE4","5","","","","swim-engagement","","","","","","","","","","","","","","6","emo-engage","",""
"html-button-response","53","2700742","0.0-7.0-0.0-5.0-0.11","2728e999db7dc07153bae68cac63e761b8f05fc1ace311991247e8190a22aa4d","swim","arctic","2114","","MS2","5","","","","swim-engagement","","","","","","","","","","","","","","6","mental-sim","",""
"html-button-response","54","2702958","0.0-7.0-0.0-5.0-0.12","2728e999db7dc07153bae68cac63e761b8f05fc1ace311991247e8190a22aa4d","swim","arctic","1964","","A2","6","","","","swim-engagement","","","","","","","","","","","","","","7","absorption","",""
"html-button-response","55","2704401","0.0-7.0-0.0-5.0-0.13","2728e999db7dc07153bae68cac63e761b8f05fc1ace311991247e8190a22aa4d","swim","arctic","1186","","A3","6","","","","swim-engagement","","","","","","","","","","","","","","7","absorption","",""
"html-button-response","56","2705514","0.0-7.0-0.0-5.0-0.14","2728e999db7dc07153bae68cac63e761b8f05fc1ace311991247e8190a22aa4d","swim","arctic","856","","E1","6","","","","swim-engagement","","","","","","","","","","","","","","7","enjoyment","",""
"html-button-response","57","2707186","0.0-7.0-0.0-5.0-0.15","2728e999db7dc07153bae68cac63e761b8f05fc1ace311991247e8190a22aa4d","swim","arctic","1420","","EE3","6","","","","swim-engagement","","","","","","","","","","","","","","7","emo-engage","",""
"html-button-response","58","2709882","0.0-7.0-0.0-5.0-0.16","2728e999db7dc07153bae68cac63e761b8f05fc1ace311991247e8190a22aa4d","swim","arctic","2444","","EE1","6","","","","swim-engagement","","","","","","","","","","","","","","7","emo-engage","",""
"html-button-response","59","2712990","0.0-7.0-0.0-5.0-0.17","2728e999db7dc07153bae68cac63e761b8f05fc1ace311991247e8190a22aa4d","swim","arctic","2857","","A1","4","","","","swim-engagement","","","","","","","","","","","","","","5","absorption","",""
"html-keyboard-response","60","2717290","0.0-7.0-1.0","2728e999db7dc07153bae68cac63e761b8f05fc1ace311991247e8190a22aa4d","swim","arctic","4045","","<p>Thank you for your responses. You will now listen to the second story.</p><p>Remember, as you listen to the story you will see letters appear on the screen.</br>As quickly as possible, press <b>&lt;x&gt;</b> if the letter is lowercase and <b>&lt;m&gt;</b> if the letter is uppercase.</p><p>Press <b>&lt;x&gt;</b> or <b>&lt;m&gt;</b> to begin listening!</p>","","88","","","","","","","","","","","","","","","","","","","",""
"html-keyboard-response","61","2717792","0.0-7.0-2.0-0.0","2728e999db7dc07153bae68cac63e761b8f05fc1ace311991247e8190a22aa4d","swim","arctic","null","","<div style=""font-size:60px;"" tabindex=""0"">+</div>","","null","","","","","","","","","","","","","","","","","","","",""
"dual-task","null","null","null","","swim","arctic","712.5999999940395","","t","null","88","88","1","arctic-dual-task","","t","lowercase","12000","0","6","2728e999db7dc07153bae68cac63e761b8f05fc1ace311991247e8190a22aa4d","12000.70000000298","712.5999999940395","88","1","arctic","","","","",""
"dual-task","null","null","null","","swim","arctic","631","","N","null","77","77","1","arctic-dual-task","","N","uppercase","24000","0","6","2728e999db7dc07153bae68cac63e761b8f05fc1ace311991247e8190a22aa4d","24004.5","631","77","1","arctic","","","","",""
"dual-task","null","null","null","","swim","arctic","725.8999999910593","","t","null","88","88","1","arctic-dual-task","","t","lowercase","36000","0","6","2728e999db7dc07153bae68cac63e761b8f05fc1ace311991247e8190a22aa4d","36001.29999999702","725.8999999910593","88","1","arctic","","","","",""
"dual-task","null","null","null","","swim","arctic","592.3999999910593","","h","null","88","88","1","arctic-dual-task","","h","lowercase","46000","0","6","2728e999db7dc07153bae68cac63e761b8f05fc1ace311991247e8190a22aa4d","46005.79999999702","592.3999999910593","88","1","arctic","","","","",""
"dual-task","null","null","null","","swim","arctic","695.7000000029802","","A","null","77","77","1","arctic-dual-task","","A","uppercase","60000","0","6","2728e999db7dc07153bae68cac63e761b8f05fc1ace311991247e8190a22aa4d","59999.29999999702","695.7000000029802","77","1","arctic","","","","",""
"dual-task","null","null","null","","swim","arctic","609.2999999970198","","d","null","88","88","1","arctic-dual-task","","d","lowercase","70000","0","6","2728e999db7dc07153bae68cac63e761b8f05fc1ace311991247e8190a22aa4d","70000","609.2999999970198","88","1","arctic","","","","",""
"dual-task","null","null","null","","swim","arctic","577.8000000119209","","e","null","88","88","1","arctic-dual-task","","e","lowercase","82000","0","6","2728e999db7dc07153bae68cac63e761b8f05fc1ace311991247e8190a22aa4d","82000.20000000298","577.8000000119209","88","1","arctic","","","","",""
"dual-task","null","null","null","","swim","arctic","671.2999999970198","","H","null","77","77","1","arctic-dual-task","","H","uppercase","92000","0","6","2728e999db7dc07153bae68cac63e761b8f05fc1ace311991247e8190a22aa4d","92010","671.2999999970198","77","1","arctic","","","","",""
"dual-task","null","null","null","","swim","arctic","566.5","","f","null","88","88","1","arctic-dual-task","","f","lowercase","104000","0","6","2728e999db7dc07153bae68cac63e761b8f05fc1ace311991247e8190a22aa4d","103999.79999999702","566.5","88","1","arctic","","","","",""
"dual-task","null","null","null","","swim","arctic","820.2000000029802","","F","null","77","77","1","arctic-dual-task","","F","uppercase","112000","0","6","2728e999db7dc07153bae68cac63e761b8f05fc1ace311991247e8190a22aa4d","112000.29999999702","820.2000000029802","77","1","arctic","","","","",""
"dual-task","null","null","null","","swim","arctic","638.1999999880791","","F","null","77","77","1","arctic-dual-task","","F","uppercase","120000","0","6","2728e999db7dc07153bae68cac63e761b8f05fc1ace311991247e8190a22aa4d","120007","638.1999999880791","77","1","arctic","","","","",""
"dual-task","null","null","null","","swim","arctic","623.3999999910593","","B","null","77","77","1","arctic-dual-task","","B","uppercase","130000","0","6","2728e999db7dc07153bae68cac63e761b8f05fc1ace311991247e8190a22aa4d","130000.20000000298","623.3999999910593","77","1","arctic","","","","",""
"dual-task","null","null","null","","swim","arctic","763.8000000119209","","D","null","77","77","1","arctic-dual-task","","D","uppercase","136000","0","6","2728e999db7dc07153bae68cac63e761b8f05fc1ace311991247e8190a22aa4d","135999.70000000298","763.8000000119209","77","1","arctic","","","","",""
"dual-task","null","null","null","","swim","arctic","968","","a","null","88","88","1","arctic-dual-task","","a","lowercase","144000","0","6","2728e999db7dc07153bae68cac63e761b8f05fc1ace311991247e8190a22aa4d","144003.20000000298","968","88","1","arctic","","","","",""
"dual-task","null","null","null","","swim","arctic","716.7999999970198","","r","null","88","88","1","arctic-dual-task","","r","lowercase","158000","0","6","2728e999db7dc07153bae68cac63e761b8f05fc1ace311991247e8190a22aa4d","158000.70000000298","716.7999999970198","88","1","arctic","","","","",""
"dual-task","null","null","null","","swim","arctic","528.8999999910593","","d","null","88","88","1","arctic-dual-task","","d","lowercase","168000","0","6","2728e999db7dc07153bae68cac63e761b8f05fc1ace311991247e8190a22aa4d","167999.89999999106","528.8999999910593","88","1","arctic","","","","",""
"dual-task","null","null","null","","swim","arctic","856.2000000029802","","E","null","77","77","1","arctic-dual-task","","E","uppercase","178000","0","6","2728e999db7dc07153bae68cac63e761b8f05fc1ace311991247e8190a22aa4d","177999.59999999404","856.2000000029802","77","1","arctic","","","","",""
"dual-task","null","null","null","","swim","arctic","849.1000000089407","","A","null","77","77","1","arctic-dual-task","","A","uppercase","188000","0","6","2728e999db7dc07153bae68cac63e761b8f05fc1ace311991247e8190a22aa4d","187999.29999999702","849.1000000089407","77","1","arctic","","","","",""
"dual-task","null","null","null","","swim","arctic","613.6000000089407","","F","null","77","77","1","arctic-dual-task","","F","uppercase","202000","0","6","2728e999db7dc07153bae68cac63e761b8f05fc1ace311991247e8190a22aa4d","202000.70000000298","613.6000000089407","77","1","arctic","","","","",""
"dual-task","null","null","null","","swim","arctic","609.7000000029802","","G","null","77","77","1","arctic-dual-task","","G","uppercase","214000","0","6","2728e999db7dc07153bae68cac63e761b8f05fc1ace311991247e8190a22aa4d","213999.79999999702","609.7000000029802","77","1","arctic","","","","",""
"dual-task","null","null","null","","swim","arctic","1160.2000000029802","","E","null","77","77","1","arctic-dual-task","","E","uppercase","220000","0","6","2728e999db7dc07153bae68cac63e761b8f05fc1ace311991247e8190a22aa4d","220002.09999999404","1160.2000000029802","77","1","arctic","","","","",""
"dual-task","null","null","null","","swim","arctic","753.7999999970198","","a","null","88","88","1","arctic-dual-task","","a","lowercase","232000","0","6","2728e999db7dc07153bae68cac63e761b8f05fc1ace311991247e8190a22aa4d","231999.89999999106","753.7999999970198","88","1","arctic","","","","",""
"dual-task","null","null","null","","swim","arctic","NA","","Q","null","NA","77","0","arctic-dual-task","","Q","uppercase","240000","1","6","2728e999db7dc07153bae68cac63e761b8f05fc1ace311991247e8190a22aa4d","240007.09999999404","NA","NA","0","arctic","","","","",""
"dual-task","null","null","null","","swim","arctic","579.7000000029802","","b","null","88","88","1","arctic-dual-task","","b","lowercase","248000","0","6","2728e999db7dc07153bae68cac63e761b8f05fc1ace311991247e8190a22aa4d","248002.79999999702","579.7000000029802","88","1","arctic","","","","",""
"dual-task","null","null","null","","swim","arctic","794.2999999970198","","Q","null","77","77","1","arctic-dual-task","","Q","uppercase","258000","0","6","2728e999db7dc07153bae68cac63e761b8f05fc1ace311991247e8190a22aa4d","258005.20000000298","794.2999999970198","77","1","arctic","","","","",""
"dual-task","null","null","null","","swim","arctic","636.6999999880791","","B","null","77","77","1","arctic-dual-task","","B","uppercase","270000","0","6","2728e999db7dc07153bae68cac63e761b8f05fc1ace311991247e8190a22aa4d","270000.5","636.6999999880791","77","1","arctic","","","","",""
"dual-task","null","null","null","","swim","arctic","813.2999999970198","","g","null","88","88","1","arctic-dual-task","","g","lowercase","282000","0","6","2728e999db7dc07153bae68cac63e761b8f05fc1ace311991247e8190a22aa4d","281999.39999999106","813.2999999970198","88","1","arctic","","","","",""
"dual-task","null","null","null","","swim","arctic","1580.1000000089407","","n","null","88","88","1","arctic-dual-task","","n","lowercase","292000","0","6","2728e999db7dc07153bae68cac63e761b8f05fc1ace311991247e8190a22aa4d","292001.299999997","1580.1000000089407","88","1","arctic","","","","",""
"dual-task","null","null","null","","swim","arctic","NA","","R","null","NA","77","0","arctic-dual-task","","R","uppercase","300000","1","6","2728e999db7dc07153bae68cac63e761b8f05fc1ace311991247e8190a22aa4d","300005.200000003","NA","NA","0","arctic","","","","",""
"dual-task","null","null","null","","swim","arctic","810.2000000029802","","N","null","77","77","1","arctic-dual-task","","N","uppercase","306000","0","6","2728e999db7dc07153bae68cac63e761b8f05fc1ace311991247e8190a22aa4d","306003.799999997","810.2000000029802","77","1","arctic","","","","",""
"dual-task","null","null","null","","swim","arctic","722.5999999940395","","R","null","77","77","1","arctic-dual-task","","R","uppercase","312000","0","6","2728e999db7dc07153bae68cac63e761b8f05fc1ace311991247e8190a22aa4d","312005.39999999106","722.5999999940395","77","1","arctic","","","","",""
"dual-task","null","null","null","","swim","arctic","NA","","Q","null","NA","77","0","arctic-dual-task","","Q","uppercase","318000","1","6","2728e999db7dc07153bae68cac63e761b8f05fc1ace311991247e8190a22aa4d","318001.39999999106","NA","NA","0","arctic","","","","",""
"dual-task","null","null","null","","swim","arctic","953.7999999970198","","r","null","88","88","1","arctic-dual-task","","r","lowercase","332000","0","6","2728e999db7dc07153bae68cac63e761b8f05fc1ace311991247e8190a22aa4d","332003.5","953.7999999970198","88","1","arctic","","","","",""
"dual-task","null","null","null","","swim","arctic","662.2999999970198","","G","null","77","77","1","arctic-dual-task","","G","uppercase","344000","0","6","2728e999db7dc07153bae68cac63e761b8f05fc1ace311991247e8190a22aa4d","343999.89999999106","662.2999999970198","77","1","arctic","","","","",""
"dual-task","null","null","null","","swim","arctic","839.2000000029802","","b","null","88","88","1","arctic-dual-task","","b","lowercase","350000","0","6","2728e999db7dc07153bae68cac63e761b8f05fc1ace311991247e8190a22aa4d","350011.299999997","839.2000000029802","88","1","arctic","","","","",""
"dual-task","null","null","null","","swim","arctic","NA","","g","null","NA","88","0","arctic-dual-task","","g","lowercase","356000","1","6","2728e999db7dc07153bae68cac63e761b8f05fc1ace311991247e8190a22aa4d","356001.39999999106","NA","NA","0","arctic","","","","",""
"dual-task","null","null","null","","swim","arctic","545.5999999940395","","N","null","77","77","1","arctic-dual-task","","N","uppercase","368000","0","6","2728e999db7dc07153bae68cac63e761b8f05fc1ace311991247e8190a22aa4d","368000.299999997","545.5999999940395","77","1","arctic","","","","",""
"dual-task","null","null","null","","swim","arctic","599.5","","a","null","88","88","1","arctic-dual-task","","a","lowercase","378000","0","6","2728e999db7dc07153bae68cac63e761b8f05fc1ace311991247e8190a22aa4d","378006.59999999404","599.5","88","1","arctic","","","","",""
"dual-task","null","null","null","","swim","arctic","559.2999999970198","","R","null","77","77","1","arctic-dual-task","","R","uppercase","390000","0","6","2728e999db7dc07153bae68cac63e761b8f05fc1ace311991247e8190a22aa4d","389999.799999997","559.2999999970198","77","1","arctic","","","","",""
"dual-task","null","null","null","","swim","arctic","514","","T","null","77","77","1","arctic-dual-task","","T","uppercase","402000","0","6","2728e999db7dc07153bae68cac63e761b8f05fc1ace311991247e8190a22aa4d","402000.09999999404","514","77","1","arctic","","","","",""
"dual-task","null","null","null","","swim","arctic","669.7999999970198","","T","null","77","77","1","arctic-dual-task","","T","uppercase","408000","0","6","2728e999db7dc07153bae68cac63e761b8f05fc1ace311991247e8190a22aa4d","408002.39999999106","669.7999999970198","77","1","arctic","","","","",""
"dual-task","null","null","null","","swim","arctic","688.3999999910593","","R","null","77","77","1","arctic-dual-task","","R","uppercase","414000","0","6","2728e999db7dc07153bae68cac63e761b8f05fc1ace311991247e8190a22aa4d","414000.5","688.3999999910593","77","1","arctic","","","","",""
"dual-task","null","null","null","","swim","arctic","722.9000000059605","","r","null","88","88","1","arctic-dual-task","","r","lowercase","428000","0","6","2728e999db7dc07153bae68cac63e761b8f05fc1ace311991247e8190a22aa4d","428000.799999997","722.9000000059605","88","1","arctic","","","","",""
"dual-task","null","null","null","","swim","arctic","695","","H","null","77","77","1","arctic-dual-task","","H","uppercase","442000","0","6","2728e999db7dc07153bae68cac63e761b8f05fc1ace311991247e8190a22aa4d","442002.39999999106","695","77","1","arctic","","","","",""
"dual-task","null","null","null","","swim","arctic","585.9000000059605","","B","null","77","77","1","arctic-dual-task","","B","uppercase","448000","0","6","2728e999db7dc07153bae68cac63e761b8f05fc1ace311991247e8190a22aa4d","448004.59999999404","585.9000000059605","77","1","arctic","","","","",""
"dual-task","null","null","null","","swim","arctic","527.1000000089407","","D","null","77","77","1","arctic-dual-task","","D","uppercase","458000","0","6","2728e999db7dc07153bae68cac63e761b8f05fc1ace311991247e8190a22aa4d","458000.799999997","527.1000000089407","77","1","arctic","","","","",""
"dual-task","null","null","null","","swim","arctic","1614.9000000059605","","f","null","88","88","1","arctic-dual-task","","f","lowercase","468000","0","6","2728e999db7dc07153bae68cac63e761b8f05fc1ace311991247e8190a22aa4d","468002.89999999106","1614.9000000059605","88","1","arctic","","","","",""
"dual-task","null","null","null","","swim","arctic","642.5","","g","null","88","88","1","arctic-dual-task","","g","lowercase","476000","0","6","2728e999db7dc07153bae68cac63e761b8f05fc1ace311991247e8190a22aa4d","476001.700000003","642.5","88","1","arctic","","","","",""
"dual-task","null","null","null","","swim","arctic","666.8999999910593","","h","null","88","88","1","arctic-dual-task","","h","lowercase","486000","0","6","2728e999db7dc07153bae68cac63e761b8f05fc1ace311991247e8190a22aa4d","486000","666.8999999910593","88","1","arctic","","","","",""
"dual-task","null","null","null","","swim","arctic","532.0999999940395","","F","null","77","77","1","arctic-dual-task","","F","uppercase","496000","0","6","2728e999db7dc07153bae68cac63e761b8f05fc1ace311991247e8190a22aa4d","495999.700000003","532.0999999940395","77","1","arctic","","","","",""
"dual-task","null","null","null","","swim","arctic","681.7999999970198","","f","null","88","88","1","arctic-dual-task","","f","lowercase","506000","0","6","2728e999db7dc07153bae68cac63e761b8f05fc1ace311991247e8190a22aa4d","506003.09999999404","681.7999999970198","88","1","arctic","","","","",""
"dual-task","null","null","null","","swim","arctic","661.7000000029802","","Q","null","77","77","1","arctic-dual-task","","Q","uppercase","516000","0","6","2728e999db7dc07153bae68cac63e761b8f05fc1ace311991247e8190a22aa4d","516004.799999997","661.7000000029802","77","1","arctic","","","","",""
"dual-task","null","null","null","","swim","arctic","653.9000000059605","","t","null","88","88","1","arctic-dual-task","","t","lowercase","524000","0","6","2728e999db7dc07153bae68cac63e761b8f05fc1ace311991247e8190a22aa4d","524009.799999997","653.9000000059605","88","1","arctic","","","","",""
"dual-task","null","null","null","","swim","arctic","539.9000000059605","","A","null","77","77","1","arctic-dual-task","","A","uppercase","532000","0","6","2728e999db7dc07153bae68cac63e761b8f05fc1ace311991247e8190a22aa4d","532000.3999999911","539.9000000059605","77","1","arctic","","","","",""
"dual-task","null","null","null","","swim","arctic","706.5","","d","null","88","88","1","arctic-dual-task","","d","lowercase","540000","0","6","2728e999db7dc07153bae68cac63e761b8f05fc1ace311991247e8190a22aa4d","540001.099999994","706.5","88","1","arctic","","","","",""
"dual-task","null","null","null","","swim","arctic","669.5","","h","null","88","88","1","arctic-dual-task","","h","lowercase","548000","0","6","2728e999db7dc07153bae68cac63e761b8f05fc1ace311991247e8190a22aa4d","548000","669.5","88","1","arctic","","","","",""
"dual-task","null","null","null","","swim","arctic","571.2999999970198","","q","null","88","88","1","arctic-dual-task","","q","lowercase","558000","0","6","2728e999db7dc07153bae68cac63e761b8f05fc1ace311991247e8190a22aa4d","558003.3999999911","571.2999999970198","88","1","arctic","","","","",""
"dual-task","null","null","null","","swim","arctic","NA","","N","null","NA","77","0","arctic-dual-task","","N","uppercase","566000","1","6","2728e999db7dc07153bae68cac63e761b8f05fc1ace311991247e8190a22aa4d","566001.3999999911","NA","NA","0","arctic","","","","",""
"dual-task","null","null","null","","swim","arctic","1053.9000000059605","","e","null","88","88","1","arctic-dual-task","","e","lowercase","574000","0","6","2728e999db7dc07153bae68cac63e761b8f05fc1ace311991247e8190a22aa4d","574000.799999997","1053.9000000059605","88","1","arctic","","","","",""
"dual-task","null","null","null","","swim","arctic","774.1999999880791","","t","null","88","88","1","arctic-dual-task","","t","lowercase","582000","0","6","2728e999db7dc07153bae68cac63e761b8f05fc1ace311991247e8190a22aa4d","582001.3999999911","774.1999999880791","88","1","arctic","","","","",""
"dual-task","null","null","null","","swim","arctic","1034.2000000029802","","b","null","88","88","1","arctic-dual-task","","b","lowercase","588000","0","6","2728e999db7dc07153bae68cac63e761b8f05fc1ace311991247e8190a22aa4d","588000.099999994","1034.2000000029802","88","1","arctic","","","","",""
"dual-task","null","null","null","","swim","arctic","1739.5","","D","null","77","77","1","arctic-dual-task","","D","uppercase","596000","0","6","2728e999db7dc07153bae68cac63e761b8f05fc1ace311991247e8190a22aa4d","596009.599999994","1739.5","77","1","arctic","","","","",""
"dual-task","null","null","null","","swim","arctic","568","","D","null","77","77","1","arctic-dual-task","","D","uppercase","606000","0","6","2728e999db7dc07153bae68cac63e761b8f05fc1ace311991247e8190a22aa4d","606001.5","568","77","1","arctic","","","","",""
"dual-task","null","null","null","","swim","arctic","761.4000000059605","","r","null","88","88","1","arctic-dual-task","","r","lowercase","616000","0","6","2728e999db7dc07153bae68cac63e761b8f05fc1ace311991247e8190a22aa4d","616004.099999994","761.4000000059605","88","1","arctic","","","","",""
"dual-task","null","null","null","","swim","arctic","1016.5999999940395","","h","null","88","88","1","arctic-dual-task","","h","lowercase","626000","0","6","2728e999db7dc07153bae68cac63e761b8f05fc1ace311991247e8190a22aa4d","626001.799999997","1016.5999999940395","88","1","arctic","","","","",""
"dual-task","null","null","null","","swim","arctic","856","","G","null","77","77","1","arctic-dual-task","","G","uppercase","634000","0","6","2728e999db7dc07153bae68cac63e761b8f05fc1ace311991247e8190a22aa4d","634002.5","856","77","1","arctic","","","","",""
"dual-task","null","null","null","","swim","arctic","1110.7999999970198","","A","null","77","77","1","arctic-dual-task","","A","uppercase","640000","0","6","2728e999db7dc07153bae68cac63e761b8f05fc1ace311991247e8190a22aa4d","640010.700000003","1110.7999999970198","77","1","arctic","","","","",""
"dual-task","null","null","null","","swim","arctic","634.7999999970198","","q","null","88","88","1","arctic-dual-task","","q","lowercase","648000","0","6","2728e999db7dc07153bae68cac63e761b8f05fc1ace311991247e8190a22aa4d","648003.8999999911","634.7999999970198","88","1","arctic","","","","",""
"dual-task","null","null","null","","swim","arctic","652.2999999970198","","q","null","88","88","1","arctic-dual-task","","q","lowercase","660000","0","6","2728e999db7dc07153bae68cac63e761b8f05fc1ace311991247e8190a22aa4d","660003","652.2999999970198","88","1","arctic","","","","",""
"dual-task","null","null","null","","swim","arctic","660.1000000089407","","H","null","77","77","1","arctic-dual-task","","H","uppercase","668000","0","6","2728e999db7dc07153bae68cac63e761b8f05fc1ace311991247e8190a22aa4d","668004.700000003","660.1000000089407","77","1","arctic","","","","",""
"dual-task","null","null","null","","swim","arctic","702.2999999970198","","T","null","77","77","1","arctic-dual-task","","T","uppercase","676000","0","6","2728e999db7dc07153bae68cac63e761b8f05fc1ace311991247e8190a22aa4d","676002.8999999911","702.2999999970198","77","1","arctic","","","","",""
"dual-task","null","null","null","","swim","arctic","537.7999999970198","","T","null","77","77","1","arctic-dual-task","","T","uppercase","686000","0","6","2728e999db7dc07153bae68cac63e761b8f05fc1ace311991247e8190a22aa4d","686003.299999997","537.7999999970198","77","1","arctic","","","","",""
"dual-task","null","null","null","","swim","arctic","1750.0999999940395","","q","null","88","88","1","arctic-dual-task","","q","lowercase","692000","0","6","2728e999db7dc07153bae68cac63e761b8f05fc1ace311991247e8190a22aa4d","692009.099999994","1750.0999999940395","88","1","arctic","","","","",""
"dual-task","null","null","null","","swim","arctic","605.7999999970198","","f","null","88","88","1","arctic-dual-task","","f","lowercase","702000","0","6","2728e999db7dc07153bae68cac63e761b8f05fc1ace311991247e8190a22aa4d","702002.099999994","605.7999999970198","88","1","arctic","","","","",""
"dual-task","null","null","null","","swim","arctic","653.9000000059605","","n","null","88","88","1","arctic-dual-task","","n","lowercase","710000","0","6","2728e999db7dc07153bae68cac63e761b8f05fc1ace311991247e8190a22aa4d","710003.700000003","653.9000000059605","88","1","arctic","","","","",""
"dual-task","null","null","null","","swim","arctic","629","","a","null","88","88","1","arctic-dual-task","","a","lowercase","716000","0","6","2728e999db7dc07153bae68cac63e761b8f05fc1ace311991247e8190a22aa4d","716001.5","629","88","1","arctic","","","","",""
"dual-task","null","null","null","","swim","arctic","578.5999999940395","","E","null","77","77","1","arctic-dual-task","","E","uppercase","724000","0","6","2728e999db7dc07153bae68cac63e761b8f05fc1ace311991247e8190a22aa4d","724003","578.5999999940395","77","1","arctic","","","","",""
"dual-task","null","null","null","","swim","arctic","832.5","","b","null","88","88","1","arctic-dual-task","","b","lowercase","732000","0","6","2728e999db7dc07153bae68cac63e761b8f05fc1ace311991247e8190a22aa4d","732002.200000003","832.5","88","1","arctic","","","","",""
"dual-task","null","null","null","","swim","arctic","1437.2999999970198","","E","null","77","77","1","arctic-dual-task","","E","uppercase","740000","0","6","2728e999db7dc07153bae68cac63e761b8f05fc1ace311991247e8190a22aa4d","740004","1437.2999999970198","77","1","arctic","","","","",""
"dual-task","null","null","null","","swim","arctic","682.2000000029802","","G","null","77","77","1","arctic-dual-task","","G","uppercase","748000","0","6","2728e999db7dc07153bae68cac63e761b8f05fc1ace311991247e8190a22aa4d","748000.700000003","682.2000000029802","77","1","arctic","","","","",""
"dual-task","null","null","null","","swim","arctic","637.3999999910593","","B","null","77","77","1","arctic-dual-task","","B","uppercase","760000","0","6","2728e999db7dc07153bae68cac63e761b8f05fc1ace311991247e8190a22aa4d","760007.299999997","637.3999999910593","77","1","arctic","","","","",""
"dual-task","null","null","null","","swim","arctic","634.8999999910593","","e","null","88","88","1","arctic-dual-task","","e","lowercase","770000","0","6","2728e999db7dc07153bae68cac63e761b8f05fc1ace311991247e8190a22aa4d","770008.8999999911","634.8999999910593","88","1","arctic","","","","",""
"dual-task","null","null","null","","swim","arctic","1052","","d","null","88","88","1","arctic-dual-task","","d","lowercase","776000","0","6","2728e999db7dc07153bae68cac63e761b8f05fc1ace311991247e8190a22aa4d","776011.700000003","1052","88","1","arctic","","","","",""
"dual-task","null","null","null","","swim","arctic","846.7999999970198","","e","null","88","88","1","arctic-dual-task","","e","lowercase","790000","0","6","2728e999db7dc07153bae68cac63e761b8f05fc1ace311991247e8190a22aa4d","790001.299999997","846.7999999970198","88","1","arctic","","","","",""
"audio-keyboard-response","62","3515803","0.0-7.0-2.0-1.0","2728e999db7dc07153bae68cac63e761b8f05fc1ace311991247e8190a22aa4d","swim","arctic","null","","audio/story_arctic_scrambled.mp3","","null","","","","","","","","","","","","","","","","","","","",""
"html-button-response","63","3517717","0.0-7.0-2.0-2.0","2728e999db7dc07153bae68cac63e761b8f05fc1ace311991247e8190a22aa4d","swim","arctic","1913","","<p>This concludes the story. Thank you for listening.</p><p>You will now answer some questions about the content of the story.</p>","0","","","","","","","","","","","","","","","","","","","","",""
"survey-multi-choice","64","3527117","0.0-7.0-2.0-3.0-0.0","2728e999db7dc07153bae68cac63e761b8f05fc1ace311991247e8190a22aa4d","swim","arctic","9396","","<b>How did the dogs respond when they saw the bears?</b>","","","","1","arctic-comprehension","","","","","","","","","","","","","{""Q0"":""Approached them""}","","","",""
"survey-multi-choice","65","3536208","0.0-7.0-2.0-3.0-0.1","2728e999db7dc07153bae68cac63e761b8f05fc1ace311991247e8190a22aa4d","swim","arctic","8833","","<b>How did the narrator&#39;s encounter with the polar bears end?</b>","","","","1","arctic-comprehension","","","","","","","","","","","","","{""Q0"":""The bears walked back to their den.""}","","","",""
"survey-multi-choice","66","3543374","0.0-7.0-2.0-3.0-0.2","2728e999db7dc07153bae68cac63e761b8f05fc1ace311991247e8190a22aa4d","swim","arctic","6911","","<b>How did the narrator prepare for her expedition?</b>","","","","1","arctic-comprehension","","","","","","","","","","","","","{""Q0"":""Trained in Alaska learning how to dogsled""}","","","",""
"survey-multi-choice","67","3550948","0.0-7.0-2.0-3.0-0.3","2728e999db7dc07153bae68cac63e761b8f05fc1ace311991247e8190a22aa4d","swim","arctic","7319","","<b>How many sponsorships did the narrator receive to support her expedition?</b>","","","","1","arctic-comprehension","","","","","","","","","","","","","{""Q0"":""None""}","","","",""
"survey-multi-choice","68","3556662","0.0-7.0-2.0-3.0-0.4","2728e999db7dc07153bae68cac63e761b8f05fc1ace311991247e8190a22aa4d","swim","arctic","5459","","<b>How did the narrator&#39;s neighbour respond when she told him about her expedition?</b>","","","","1","arctic-comprehension","","","","","","","","","","","","","{""Q0"":""He said she was going to fail.""}","","","",""
"survey-multi-choice","69","3562899","0.0-7.0-2.0-3.0-0.5","2728e999db7dc07153bae68cac63e761b8f05fc1ace311991247e8190a22aa4d","swim","arctic","5977","","<b>What were the weather conditions in the Arctic like the winter of the narrator&#39;s expedition?</b>","","","","0","arctic-comprehension","","","","","","","","","","","","","{""Q0"":""It was the coldest winter in recorded history.""}","","","",""
"survey-multi-choice","70","3570359","0.0-7.0-2.0-3.0-0.6","2728e999db7dc07153bae68cac63e761b8f05fc1ace311991247e8190a22aa4d","swim","arctic","7206","","<b>What did the narrator do for leisure while in her tent?</b>","","","","1","arctic-comprehension","","","","","","","","","","","","","{""Q0"":""Read""}","","","",""
"survey-multi-choice","71","3575485","0.0-7.0-2.0-3.0-0.7","2728e999db7dc07153bae68cac63e761b8f05fc1ace311991247e8190a22aa4d","swim","arctic","4868","","<b>What is the name of the narrator&#39;s neighbour?</b>","","","","1","arctic-comprehension","","","","","","","","","","","","","{""Q0"":""Dave""}","","","",""
"survey-multi-choice","72","3580199","0.0-7.0-2.0-3.0-0.8","2728e999db7dc07153bae68cac63e761b8f05fc1ace311991247e8190a22aa4d","swim","arctic","4456","","<b>Which dog on the narrator&#39;s dog team never followed instructions?</b>","","","","0","arctic-comprehension","","","","","","","","","","","","","{""Q0"":""Douggie-dog""}","","","",""
"survey-multi-choice","73","3585066","0.0-7.0-2.0-3.0-0.9","2728e999db7dc07153bae68cac63e761b8f05fc1ace311991247e8190a22aa4d","swim","arctic","4610","","<b>What was the objective of the narrator&#39;s expedition?</b>","","","","1","arctic-comprehension","","","","","","","","","","","","","{""Q0"":""Dogsled across Arctic America""}","","","",""
"html-button-response","74","3586505","0.0-7.0-2.0-4.0","2728e999db7dc07153bae68cac63e761b8f05fc1ace311991247e8190a22aa4d","swim","arctic","1183","","<p>Thank you for your responses.</p><p>You will now answer some questions about your impressions of the story.</p>","0","","","","","","","","","","","","","","","","","","","","",""
"html-button-response","75","3589504","0.0-7.0-2.0-5.0-0.0","2728e999db7dc07153bae68cac63e761b8f05fc1ace311991247e8190a22aa4d","swim","arctic","2997","","A5","2","","","","arctic-engagement","","","","","","","","","","","","","","3","absorption","",""
"html-button-response","76","3592142","0.0-7.0-2.0-5.0-0.1","2728e999db7dc07153bae68cac63e761b8f05fc1ace311991247e8190a22aa4d","swim","arctic","2383","","MS2","2","","","","arctic-engagement","","","","","","","","","","","","","","3","mental-sim","",""
"html-button-response","77","3594030","0.0-7.0-2.0-5.0-0.2","2728e999db7dc07153bae68cac63e761b8f05fc1ace311991247e8190a22aa4d","swim","arctic","1631","","E1","3","","","","arctic-engagement","","","","","","","","","","","","","","4","enjoyment","",""
"html-button-response","78","3599183","0.0-7.0-2.0-5.0-0.3","2728e999db7dc07153bae68cac63e761b8f05fc1ace311991247e8190a22aa4d","swim","arctic","4898","","A1","1","","","","arctic-engagement","","","","","","","","","","","","","","2","absorption","",""
"html-button-response","79","3602286","0.0-7.0-2.0-5.0-0.4","2728e999db7dc07153bae68cac63e761b8f05fc1ace311991247e8190a22aa4d","swim","arctic","2846","","MS1","3","","","","arctic-engagement","","","","","","","","","","","","","","4","mental-sim","",""
"html-button-response","80","3604374","0.0-7.0-2.0-5.0-0.5","2728e999db7dc07153bae68cac63e761b8f05fc1ace311991247e8190a22aa4d","swim","arctic","1834","","A4","2","","","","arctic-engagement","","","","","","","","","","","","","","3","absorption","",""
"html-button-response","81","3605618","0.0-7.0-2.0-5.0-0.6","2728e999db7dc07153bae68cac63e761b8f05fc1ace311991247e8190a22aa4d","swim","arctic","988","","EE1","2","","","","arctic-engagement","","","","","","","","","","","","","","3","emo-engage","",""
"html-button-response","82","3607139","0.0-7.0-2.0-5.0-0.7","2728e999db7dc07153bae68cac63e761b8f05fc1ace311991247e8190a22aa4d","swim","arctic","1268","","A3","2","","","","arctic-engagement","","","","","","","","","","","","","","3","absorption","",""
"html-button-response","83","3609035","0.0-7.0-2.0-5.0-0.8","2728e999db7dc07153bae68cac63e761b8f05fc1ace311991247e8190a22aa4d","swim","arctic","1640","","EE5","4","","","","arctic-engagement","","","","","","","","","","","","","","5","emo-engage","",""
"html-button-response","84","3611059","0.0-7.0-2.0-5.0-0.9","2728e999db7dc07153bae68cac63e761b8f05fc1ace311991247e8190a22aa4d","swim","arctic","1769","","E10","1","","","","arctic-engagement","","","","","","","","","","","","","","2","enjoyment","",""
"html-button-response","85","3612984","0.0-7.0-2.0-5.0-0.10","2728e999db7dc07153bae68cac63e761b8f05fc1ace311991247e8190a22aa4d","swim","arctic","1673","","EE3","2","","","","arctic-engagement","","","","","","","","","","","","","","3","emo-engage","",""
"html-button-response","86","3614474","0.0-7.0-2.0-5.0-0.11","2728e999db7dc07153bae68cac63e761b8f05fc1ace311991247e8190a22aa4d","swim","arctic","1236","","EE4","2","","","","arctic-engagement","","","","","","","","","","","","","","3","emo-engage","",""
"html-button-response","87","3616206","0.0-7.0-2.0-5.0-0.12","2728e999db7dc07153bae68cac63e761b8f05fc1ace311991247e8190a22aa4d","swim","arctic","1476","","E8","1","","","","arctic-engagement","","","","","","","","","","","","","","2","enjoyment","",""
"html-button-response","88","3617505","0.0-7.0-2.0-5.0-0.13","2728e999db7dc07153bae68cac63e761b8f05fc1ace311991247e8190a22aa4d","swim","arctic","1042","","EE2","1","","","","arctic-engagement","","","","","","","","","","","","","","2","emo-engage","",""
"html-button-response","89","3620175","0.0-7.0-2.0-5.0-0.14","2728e999db7dc07153bae68cac63e761b8f05fc1ace311991247e8190a22aa4d","swim","arctic","2410","","A2","2","","","","arctic-engagement","","","","","","","","","","","","","","3","absorption","",""
"html-button-response","90","3622303","0.0-7.0-2.0-5.0-0.15","2728e999db7dc07153bae68cac63e761b8f05fc1ace311991247e8190a22aa4d","swim","arctic","1872","","MS3","3","","","","arctic-engagement","","","","","","","","","","","","","","4","mental-sim","",""
"html-button-response","91","3624136","0.0-7.0-2.0-5.0-0.16","2728e999db7dc07153bae68cac63e761b8f05fc1ace311991247e8190a22aa4d","swim","arctic","1582","","E7","2","","","","arctic-engagement","","","","","","","","","","","","","","3","enjoyment","",""
"html-button-response","92","3625265","0.0-7.0-2.0-5.0-0.17","2728e999db7dc07153bae68cac63e761b8f05fc1ace311991247e8190a22aa4d","swim","arctic","875","","E6","2","","","","arctic-engagement","","","","","","","","","","","","","","3","enjoyment","",""
"html-button-response","93","3626491","0.0-8.0","2728e999db7dc07153bae68cac63e761b8f05fc1ace311991247e8190a22aa4d","swim","arctic","971","","<p>Thank you for your responses.</p><p>You will now answer some demographic, hearing, and general health questions.</p>","0","","","","","","","","","","","","","","","","","","","","",""
"survey-multi-choice","94","3629576","0.0-9.0-0.0","2728e999db7dc07153bae68cac63e761b8f05fc1ace311991247e8190a22aa4d","swim","arctic","3080","","","","","","","survey","","","","","","","","","","","","","{""Q0"":""Chrome""}","","","browser",""
"survey-text","95","3632326","0.0-9.0-1.0","2728e999db7dc07153bae68cac63e761b8f05fc1ace311991247e8190a22aa4d","swim","arctic","2491.4000000059605","","","","","","","survey","","","","","","","","","","","","","{""AGE"":""33""}","","","age","33"
"survey-multi-choice","96","3634383","0.0-9.0-2.0","2728e999db7dc07153bae68cac63e761b8f05fc1ace311991247e8190a22aa4d","swim","arctic","1802","","","","","","","survey","","","","","","","","","","","","","{""Q0"":""Female""}","","","gender","Female"
"survey-multi-choice","97","3637696","0.0-9.0-4.0","2728e999db7dc07153bae68cac63e761b8f05fc1ace311991247e8190a22aa4d","swim","arctic","3060","","","","","","","survey","","","","","","","","","","","","","{""Q0"":""Right""}","","","handedness","Right"
"survey-multi-choice","98","3640453","0.0-9.0-5.0","2728e999db7dc07153bae68cac63e761b8f05fc1ace311991247e8190a22aa4d","swim","arctic","2499","","","","","","","survey","","","","","","","","","","","","","{""Q0"":""College Degree (2 years)""}","","","education","College Degree (2 years)"
"survey-text","99","3644602","0.0-10.0-0.0","2728e999db7dc07153bae68cac63e761b8f05fc1ace311991247e8190a22aa4d","swim","arctic","3893.4000000059605","","","","","","","survey","","","","","","","","","","","","","{""L1"":""english""}","","","first-language","english"
"survey-text","100","3648609","0.0-10.0-1.0","2728e999db7dc07153bae68cac63e761b8f05fc1ace311991247e8190a22aa4d","swim","arctic","3746.5","","","","","","","survey","","","","","","","","","","","","","{""L2name"":"""",""L2fluency"":"""",""L3name"":"""",""L3fluency"":"""",""L4name"":"""",""L4fluency"":""""}","","","additional-languages","{""L2name"":"""",""L2fluency"":"""",""L3name"":"""",""L3fluency"":"""",""L4name"":"""",""L4fluency"":""""}"
"survey-multi-choice","101","3650991","0.0-10.0-2.0","2728e999db7dc07153bae68cac63e761b8f05fc1ace311991247e8190a22aa4d","swim","arctic","2125","","","","","","","survey","","","","","","","","","","","","","{""Q0"":""No""}","","","hearing-aid","No"
"survey-multi-choice","102","3653070","0.0-10.0-3.0","2728e999db7dc07153bae68cac63e761b8f05fc1ace311991247e8190a22aa4d","swim","arctic","1823","","","","","","","survey","","","","","","","","","","","","","{""Q0"":""Sometimes""}","","","ringing-ears","Sometimes"
"survey-multi-choice","103","3655552","0.0-10.0-4.0-0.0","2728e999db7dc07153bae68cac63e761b8f05fc1ace311991247e8190a22aa4d","swim","arctic","2227","","","","","","","survey","","","","","","","","","","","","","{""Q0"":""Right Ear""}","","","ringing-ear-loc","Right Ear"
"survey-multi-choice","104","3657818","0.0-10.0-5.0","2728e999db7dc07153bae68cac63e761b8f05fc1ace311991247e8190a22aa4d","swim","arctic","2013","","","","","","","survey","","","","","","","","","","","","","{""Q0"":""No""}","","","neuro-disease","No"
"survey-multi-choice","105","3661599","0.0-10.0-7.0","2728e999db7dc07153bae68cac63e761b8f05fc1ace311991247e8190a22aa4d","swim","arctic","3524","","","","","","","survey","","","","","","","","","","","","","{""Q0"":""No""}","","","take-meds","No"
"survey-text","106","3663230","0.0-10.0-9.0","2728e999db7dc07153bae68cac63e761b8f05fc1ace311991247e8190a22aa4d","swim","arctic","1361.2000000029802","","","","","","","survey","","","","","","","","","","","","","{""HC"":""""}","","","health-concerns",""
"html-button-response","107","3665696","0.0-11.0-0.0","2728e999db7dc07153bae68cac63e761b8f05fc1ace311991247e8190a22aa4d","swim","arctic","2211","","<p>How would you describe your musical skills/experiences?</p>","3","","","","survey","","","","","","","","","","","","","","","","music-skill","4"
"survey-multi-choice","108","3668328","0.0-11.0-1.0","2728e999db7dc07153bae68cac63e761b8f05fc1ace311991247e8190a22aa4d","swim","arctic","2375","","","","","","","survey","","","","","","","","","","","","","{""Q0"":""Yes""}","","","music-instrument","Yes"
"survey-text","109","3672364","0.0-11.0-2.0-0.0","2728e999db7dc07153bae68cac63e761b8f05fc1ace311991247e8190a22aa4d","swim","arctic","3782.800000011921","","","","","","","survey","","","","","","","","","","","","","{""MEXP"":""5""}","","","music-training-yrs","5"
"html-button-response","110","3674576","0.0-12.0-0.0","2728e999db7dc07153bae68cac63e761b8f05fc1ace311991247e8190a22aa4d","swim","arctic","1955","","<p>How would you describe your general hearing abilities?</p>","4","","","","survey","","","","","","","","","","","","","","","","ssq-01","5"
"html-button-response","111","3677509","0.0-12.0-1.0","2728e999db7dc07153bae68cac63e761b8f05fc1ace311991247e8190a22aa4d","swim","arctic","2675","","<p>When you talk with someone at a place that strongly reverberates/echoes (e.g., in a church or train station),</br>can you understand what the person says?</p>","7","","","","survey","","","","","","","","","","","","","","","","ssq-02","7"
"html-button-response","112","3679418","0.0-12.0-2.0","2728e999db7dc07153bae68cac63e761b8f05fc1ace311991247e8190a22aa4d","swim","arctic","1652","","<p>When you are with a group (~5 people) in a lively restaurant, can you follow the group's conversation?</p>","8","","","","survey","","","","","","","","","","","","","","","","ssq-03","8"
"html-button-response","113","3681232","0.0-12.0-3.0","2728e999db7dc07153bae68cac63e761b8f05fc1ace311991247e8190a22aa4d","swim","arctic","1561","","<p>Based on the sound of a bus or truck, can you tell whether it is moving towards or away from you?</p>","6","","","","survey","","","","","","","","","","","","","","","","ssq-04","6"
"html-button-response","114","3683135","0.0-12.0-4.0","2728e999db7dc07153bae68cac63e761b8f05fc1ace311991247e8190a22aa4d","swim","arctic","1650","","<p>When you are in an unknown environment, can you tell from which direction a brief sound originates?</p>","8","","","","survey","","","","","","","","","","","","","","","","ssq-05","8"
"html-button-response","115","3685299","0.0-12.0-5.0","2728e999db7dc07153bae68cac63e761b8f05fc1ace311991247e8190a22aa4d","swim","arctic","1908","","<p>Are you able to ignore distracting sounds when you concentrate on a specific aspect of your acoustic surrounding?</p>","7","","","","survey","","","","","","","","","","","","","","","","ssq-06","7"
"fullscreen","116","3686556","0.0-13.0","2728e999db7dc07153bae68cac63e761b8f05fc1ace311991247e8190a22aa4d","swim","arctic","","","","","","","","","true","","","","","","","","","","","","","","","",""
