"trial_type","trial_index","time_elapsed","internal_node_id","ParticipantID","firstStory","scramStory","rt","url","stimulus","button_pressed","key_press","correctRESP","correct","designation","success","letterStim","letterType","ONSET","TIMEOUT","CONDITION","Participant","ONSET_ACTUAL","RT","RESP","ACC","STORY","responses","response","type","surveyQuestion","QRESP"
"pavlovia","0","10","0.0-0.0","c85c87690290b8e6a451faf397cf56f7e10f0a68b173aa4ba9fb9aa06f75208d","swim","arctic","","","","","","","","","","","","","","","","","","","","","","","","",""
"external-html","1","92239","0.0-1.0","c85c87690290b8e6a451faf397cf56f7e10f0a68b173aa4ba9fb9aa06f75208d","swim","arctic","91981","consent/consent_updated.html","","","","","","","","","","","","","","","","","","","","","","",""
"html-button-response","2","232715","0.0-2.0-0.0","c85c87690290b8e6a451faf397cf56f7e10f0a68b173aa4ba9fb9aa06f75208d","swim","arctic","140443","","<p>Before we begin the main task, you will complete a short volume calibration and headphone check.</p><p>Please make sure you are in a quiet listening environment, that you are wearing headphones, and that your computer's volume is turned on.<p></p>","0","","","","","","","","","","","","","","","","","","","","",""
"html-button-response","3","235903","0.0-2.0-1.0","c85c87690290b8e6a451faf397cf56f7e10f0a68b173aa4ba9fb9aa06f75208d","swim","arctic","2931","","<p>The volume calibration will be first.</p><p>You will hear a thirty-second noise. Please adjust your computer's volume so that this noise is being presented at a comfortable level.<p></p>","0","","","","","","","","","","","","","","","","","","","","",""
"audio-button-response","4","266186","0.0-2.0-2.0","c85c87690290b8e6a451faf397cf56f7e10f0a68b173aa4ba9fb9aa06f75208d","swim","arctic","null","","audio/volumetest.mp3","null","","","","","","","","","","","","","","","","","","","","",""
"html-keyboard-response","5","287451","0.0-3.0-0.0","c85c87690290b8e6a451faf397cf56f7e10f0a68b173aa4ba9fb9aa06f75208d","swim","arctic","21259","","<p>You will now complete a short headphone check.</p><p>On each trial, you will hear three tones. One of these tones will be quieter than the others. Your task is to identify whether the quiet tone occurred first, second, or third.</p><p>There are six trials in total.<p></p><p></p>(Press SPACEBAR to begin)","","32","","","","","","","","","","","","","","","","","","","",""
"html-keyboard-response","6","288232","0.0-3.0-1.0-0.0","c85c87690290b8e6a451faf397cf56f7e10f0a68b173aa4ba9fb9aa06f75208d","swim","arctic","null","","<div style=""font-size:60px;"">+</div>","","null","","","","","","","","","","","","","","","","","","","",""
"audio-button-response","7","298346","0.0-3.0-1.0-1.0","c85c87690290b8e6a451faf397cf56f7e10f0a68b173aa4ba9fb9aa06f75208d","swim","arctic","10108","","audio/t1_2.mp3","1","","0","0","headphone-test","","","","","","","","","","","","","","","","",""
"html-keyboard-response","8","298859","0.0-3.0-1.0-2.0","c85c87690290b8e6a451faf397cf56f7e10f0a68b173aa4ba9fb9aa06f75208d","swim","arctic","null","","<p>Incorrect</p>","","null","","","","","","","","","","","","","","","","","","","",""
"html-keyboard-response","9","299362","0.0-3.0-1.0-0.1","c85c87690290b8e6a451faf397cf56f7e10f0a68b173aa4ba9fb9aa06f75208d","swim","arctic","null","","<div style=""font-size:60px;"">+</div>","","null","","","","","","","","","","","","","","","","","","","",""
"audio-button-response","10","304018","0.0-3.0-1.0-1.1","c85c87690290b8e6a451faf397cf56f7e10f0a68b173aa4ba9fb9aa06f75208d","swim","arctic","4651","","audio/t3_2.mp3","2","","2","1","headphone-test","","","","","","","","","","","","","","","","",""
"html-keyboard-response","11","304523","0.0-3.0-1.0-2.1","c85c87690290b8e6a451faf397cf56f7e10f0a68b173aa4ba9fb9aa06f75208d","swim","arctic","null","","<p>Correct</p>","","null","","","","","","","","","","","","","","","","","","","",""
"html-keyboard-response","12","305024","0.0-3.0-1.0-0.2","c85c87690290b8e6a451faf397cf56f7e10f0a68b173aa4ba9fb9aa06f75208d","swim","arctic","null","","<div style=""font-size:60px;"">+</div>","","null","","","","","","","","","","","","","","","","","","","",""
"audio-button-response","13","309056","0.0-3.0-1.0-1.2","c85c87690290b8e6a451faf397cf56f7e10f0a68b173aa4ba9fb9aa06f75208d","swim","arctic","4026","","audio/t2_2.mp3","1","","1","1","headphone-test","","","","","","","","","","","","","","","","",""
"html-keyboard-response","14","309567","0.0-3.0-1.0-2.2","c85c87690290b8e6a451faf397cf56f7e10f0a68b173aa4ba9fb9aa06f75208d","swim","arctic","null","","<p>Correct</p>","","null","","","","","","","","","","","","","","","","","","","",""
"html-keyboard-response","15","310084","0.0-3.0-1.0-0.3","c85c87690290b8e6a451faf397cf56f7e10f0a68b173aa4ba9fb9aa06f75208d","swim","arctic","null","","<div style=""font-size:60px;"">+</div>","","null","","","","","","","","","","","","","","","","","","","",""
"audio-button-response","16","314101","0.0-3.0-1.0-1.3","c85c87690290b8e6a451faf397cf56f7e10f0a68b173aa4ba9fb9aa06f75208d","swim","arctic","4013","","audio/t3_1.mp3","2","","2","1","headphone-test","","","","","","","","","","","","","","","","",""
"html-keyboard-response","17","314619","0.0-3.0-1.0-2.3","c85c87690290b8e6a451faf397cf56f7e10f0a68b173aa4ba9fb9aa06f75208d","swim","arctic","null","","<p>Correct</p>","","null","","","","","","","","","","","","","","","","","","","",""
"html-keyboard-response","18","315122","0.0-3.0-1.0-0.4","c85c87690290b8e6a451faf397cf56f7e10f0a68b173aa4ba9fb9aa06f75208d","swim","arctic","null","","<div style=""font-size:60px;"">+</div>","","null","","","","","","","","","","","","","","","","","","","",""
"audio-button-response","19","319318","0.0-3.0-1.0-1.4","c85c87690290b8e6a451faf397cf56f7e10f0a68b173aa4ba9fb9aa06f75208d","swim","arctic","4188","","audio/t1_1.mp3","0","","0","1","headphone-test","","","","","","","","","","","","","","","","",""
"html-keyboard-response","20","319838","0.0-3.0-1.0-2.4","c85c87690290b8e6a451faf397cf56f7e10f0a68b173aa4ba9fb9aa06f75208d","swim","arctic","null","","<p>Correct</p>","","null","","","","","","","","","","","","","","","","","","","",""
"html-keyboard-response","21","320340","0.0-3.0-1.0-0.5","c85c87690290b8e6a451faf397cf56f7e10f0a68b173aa4ba9fb9aa06f75208d","swim","arctic","null","","<div style=""font-size:60px;"">+</div>","","null","","","","","","","","","","","","","","","","","","","",""
"audio-button-response","22","324477","0.0-3.0-1.0-1.5","c85c87690290b8e6a451faf397cf56f7e10f0a68b173aa4ba9fb9aa06f75208d","swim","arctic","4133","","audio/t2_1.mp3","1","","1","1","headphone-test","","","","","","","","","","","","","","","","",""
"html-keyboard-response","23","324998","0.0-3.0-1.0-2.5","c85c87690290b8e6a451faf397cf56f7e10f0a68b173aa4ba9fb9aa06f75208d","swim","arctic","null","","<p>Correct</p>","","null","","","","","","","","","","","","","","","","","","","",""
"fullscreen","24","326859","0.0-4.0","c85c87690290b8e6a451faf397cf56f7e10f0a68b173aa4ba9fb9aa06f75208d","swim","arctic","","","","","","","","","true","","","","","","","","","","","","","","","",""
"html-button-response","25","333368","0.0-5.0-0.0","c85c87690290b8e6a451faf397cf56f7e10f0a68b173aa4ba9fb9aa06f75208d","swim","arctic","6498","","<p>There are two blocks to this experiment.</p><p>In each block, you will hear a ~13.5 minute story. One of the stories will be scrambled. Please listen carefully to both stories and understand them as best you can.</p><p>After each story, you will be asked some questions to assess your comprehension.</p>","0","","","","","","","","","","","","","","","","","","","","",""
"html-button-response","26","364316","0.0-5.0-1.0","c85c87690290b8e6a451faf397cf56f7e10f0a68b173aa4ba9fb9aa06f75208d","swim","arctic","30943","","<p>During each story, there will be an additional task.</p><p>A letter will occasionally appear on the screen.</br>Your job is to - as quickly as you can - decide whether the letter is lowercase or uppercase and press one of two keys on the keyboard:</p><p>If the letter is <b>lowercase</b>, press key &lt;<b>x</b>&gt;.</p><p>If the letter is <b>uppercase</b>, press key &lt;<b>m</b>&gt;.</p>","0","","","","","","","","","","","","","","","","","","","","",""
"html-keyboard-response","27","378308","0.0-5.0-2.0","c85c87690290b8e6a451faf397cf56f7e10f0a68b173aa4ba9fb9aa06f75208d","swim","arctic","13991","","<p>Because we want your responses to be as quick as possible, please keep your index fingers over the keys while listening.</p><p>Each block lasts about 20 minutes.</p><p><b>Press &lt;x&gt; or &lt;m&gt; to start the first block!</b></p>","","88","","","","","","","","","","","","","","","","","","","",""
"html-keyboard-response","28","378813","0.0-7.0-0.0-0.0","c85c87690290b8e6a451faf397cf56f7e10f0a68b173aa4ba9fb9aa06f75208d","swim","arctic","null","","<div style=""font-size:60px;"" tabindex=""0"">+</div>","","null","","","","","","","","","","","","","","","","","","","",""
"dual-task","null","null","null","","swim","arctic","1299.1049999836832","","R","null","77","77","1","swim-dual-task","","R","uppercase","12000","0","2","c85c87690290b8e6a451faf397cf56f7e10f0a68b173aa4ba9fb9aa06f75208d","12006.51000009384","1299.1049999836832","77","1","swim","","","","",""
"dual-task","null","null","null","","swim","arctic","NA","","a","null","NA","88","0","swim-dual-task","","a","lowercase","24000","1","2","c85c87690290b8e6a451faf397cf56f7e10f0a68b173aa4ba9fb9aa06f75208d","24007.925000041723","NA","NA","0","swim","","","","",""
"dual-task","null","null","null","","swim","arctic","611.9000000180677","","d","null","88","88","1","swim-dual-task","","d","lowercase","34000","0","2","c85c87690290b8e6a451faf397cf56f7e10f0a68b173aa4ba9fb9aa06f75208d","34024.399999994785","611.9000000180677","88","1","swim","","","","",""
"dual-task","null","null","null","","swim","arctic","768.5899999924004","","F","null","77","77","1","swim-dual-task","","F","uppercase","42000","0","2","c85c87690290b8e6a451faf397cf56f7e10f0a68b173aa4ba9fb9aa06f75208d","42011.26000005752","768.5899999924004","77","1","swim","","","","",""
"dual-task","null","null","null","","swim","arctic","701.935000019148","","D","null","77","77","1","swim-dual-task","","D","uppercase","50000","0","2","c85c87690290b8e6a451faf397cf56f7e10f0a68b173aa4ba9fb9aa06f75208d","50008.18000000436","701.935000019148","77","1","swim","","","","",""
"dual-task","null","null","null","","swim","arctic","676.0549999307841","","g","null","88","88","1","swim-dual-task","","g","lowercase","58000","0","2","c85c87690290b8e6a451faf397cf56f7e10f0a68b173aa4ba9fb9aa06f75208d","58002.78000009712","676.0549999307841","88","1","swim","","","","",""
"dual-task","null","null","null","","swim","arctic","720.2149999793619","","Q","null","77","77","1","swim-dual-task","","Q","uppercase","68000","0","2","c85c87690290b8e6a451faf397cf56f7e10f0a68b173aa4ba9fb9aa06f75208d","68012.6450000098","720.2149999793619","77","1","swim","","","","",""
"dual-task","null","null","null","","swim","arctic","644.3399999989197","","F","null","77","77","1","swim-dual-task","","F","uppercase","78000","0","2","c85c87690290b8e6a451faf397cf56f7e10f0a68b173aa4ba9fb9aa06f75208d","78002.994999988","644.3399999989197","77","1","swim","","","","",""
"dual-task","null","null","null","","swim","arctic","689.6300000371411","","G","null","77","77","1","swim-dual-task","","G","uppercase","86000","0","2","c85c87690290b8e6a451faf397cf56f7e10f0a68b173aa4ba9fb9aa06f75208d","86000.53000007756","689.6300000371411","77","1","swim","","","","",""
"dual-task","null","null","null","","swim","arctic","1841.5599999716505","","A","null","77","77","1","swim-dual-task","","A","uppercase","98000","0","2","c85c87690290b8e6a451faf397cf56f7e10f0a68b173aa4ba9fb9aa06f75208d","98006.24000001699","1841.5599999716505","77","1","swim","","","","",""
"dual-task","null","null","null","","swim","arctic","745.8150000311434","","A","null","77","77","1","swim-dual-task","","A","uppercase","110000","0","2","c85c87690290b8e6a451faf397cf56f7e10f0a68b173aa4ba9fb9aa06f75208d","110024.36500007752","745.8150000311434","77","1","swim","","","","",""
"dual-task","null","null","null","","swim","arctic","652.2150000091642","","F","null","77","77","1","swim-dual-task","","F","uppercase","118000","0","2","c85c87690290b8e6a451faf397cf56f7e10f0a68b173aa4ba9fb9aa06f75208d","118033.62500004005","652.2150000091642","77","1","swim","","","","",""
"dual-task","null","null","null","","swim","arctic","649.5900000445545","","e","null","88","88","1","swim-dual-task","","e","lowercase","132000","0","2","c85c87690290b8e6a451faf397cf56f7e10f0a68b173aa4ba9fb9aa06f75208d","132005.33000007272","649.5900000445545","88","1","swim","","","","",""
"dual-task","null","null","null","","swim","arctic","743.3450000826269","","t","null","88","88","1","swim-dual-task","","t","lowercase","146000","0","2","c85c87690290b8e6a451faf397cf56f7e10f0a68b173aa4ba9fb9aa06f75208d","145999.92000008933","743.3450000826269","88","1","swim","","","","",""
"dual-task","null","null","null","","swim","arctic","831.8500000750646","","a","null","88","88","1","swim-dual-task","","a","lowercase","154000","0","2","c85c87690290b8e6a451faf397cf56f7e10f0a68b173aa4ba9fb9aa06f75208d","154018.03500007372","831.8500000750646","88","1","swim","","","","",""
"dual-task","null","null","null","","swim","arctic","633.9099999750033","","H","null","77","77","1","swim-dual-task","","H","uppercase","160000","0","2","c85c87690290b8e6a451faf397cf56f7e10f0a68b173aa4ba9fb9aa06f75208d","160013.93000001553","633.9099999750033","77","1","swim","","","","",""
"dual-task","null","null","null","","swim","arctic","643.525000079535","","N","null","77","77","1","swim-dual-task","","N","uppercase","170000","0","2","c85c87690290b8e6a451faf397cf56f7e10f0a68b173aa4ba9fb9aa06f75208d","170000.6750000175","643.525000079535","77","1","swim","","","","",""
"dual-task","null","null","null","","swim","arctic","601.6450000461191","","h","null","88","88","1","swim-dual-task","","h","lowercase","182000","0","2","c85c87690290b8e6a451faf397cf56f7e10f0a68b173aa4ba9fb9aa06f75208d","182001.86499999836","601.6450000461191","88","1","swim","","","","",""
"dual-task","null","null","null","","swim","arctic","828.2149999868125","","D","null","77","77","1","swim-dual-task","","D","uppercase","190000","0","2","c85c87690290b8e6a451faf397cf56f7e10f0a68b173aa4ba9fb9aa06f75208d","190008.6500000907","828.2149999868125","77","1","swim","","","","",""
"dual-task","null","null","null","","swim","arctic","530.1900000777096","","r","null","88","88","1","swim-dual-task","","r","lowercase","202000","0","2","c85c87690290b8e6a451faf397cf56f7e10f0a68b173aa4ba9fb9aa06f75208d","202001.59500003792","530.1900000777096","88","1","swim","","","","",""
"dual-task","null","null","null","","swim","arctic","522.8549999883398","","G","null","77","77","1","swim-dual-task","","G","uppercase","214000","0","2","c85c87690290b8e6a451faf397cf56f7e10f0a68b173aa4ba9fb9aa06f75208d","214016.00000006147","522.8549999883398","77","1","swim","","","","",""
"dual-task","null","null","null","","swim","arctic","706.125000026077","","b","null","88","88","1","swim-dual-task","","b","lowercase","226000","0","2","c85c87690290b8e6a451faf397cf56f7e10f0a68b173aa4ba9fb9aa06f75208d","226001.9200000679","706.125000026077","88","1","swim","","","","",""
"dual-task","null","null","null","","swim","arctic","637.0350000215694","","Q","null","77","77","1","swim-dual-task","","Q","uppercase","234000","0","2","c85c87690290b8e6a451faf397cf56f7e10f0a68b173aa4ba9fb9aa06f75208d","234011.26000005752","637.0350000215694","77","1","swim","","","","",""
"dual-task","null","null","null","","swim","arctic","555.6199999991804","","G","null","77","77","1","swim-dual-task","","G","uppercase","242000","0","2","c85c87690290b8e6a451faf397cf56f7e10f0a68b173aa4ba9fb9aa06f75208d","242013.0900000222","555.6199999991804","77","1","swim","","","","",""
"dual-task","null","null","null","","swim","arctic","481.8649999797344","","B","null","77","77","1","swim-dual-task","","B","uppercase","248000","0","2","c85c87690290b8e6a451faf397cf56f7e10f0a68b173aa4ba9fb9aa06f75208d","248023.75000005122","481.8649999797344","77","1","swim","","","","",""
"dual-task","null","null","null","","swim","arctic","509.91999998223037","","B","null","77","77","1","swim-dual-task","","B","uppercase","256000","0","2","c85c87690290b8e6a451faf397cf56f7e10f0a68b173aa4ba9fb9aa06f75208d","256003.19000007585","509.91999998223037","77","1","swim","","","","",""
"dual-task","null","null","null","","swim","arctic","891.6299999691546","","q","null","88","88","1","swim-dual-task","","q","lowercase","264000","0","2","c85c87690290b8e6a451faf397cf56f7e10f0a68b173aa4ba9fb9aa06f75208d","264019.29000008386","891.6299999691546","88","1","swim","","","","",""
"dual-task","null","null","null","","swim","arctic","604.5549999689683","","N","null","77","77","1","swim-dual-task","","N","uppercase","270000","0","2","c85c87690290b8e6a451faf397cf56f7e10f0a68b173aa4ba9fb9aa06f75208d","270006.5000000177","604.5549999689683","77","1","swim","","","","",""
"dual-task","null","null","null","","swim","arctic","596.8949999660254","","b","null","88","88","1","swim-dual-task","","b","lowercase","280000","0","2","c85c87690290b8e6a451faf397cf56f7e10f0a68b173aa4ba9fb9aa06f75208d","280011.76500006113","596.8949999660254","88","1","swim","","","","",""
"dual-task","null","null","null","","swim","arctic","526.8899999791756","","n","null","88","88","1","swim-dual-task","","n","lowercase","286000","0","2","c85c87690290b8e6a451faf397cf56f7e10f0a68b173aa4ba9fb9aa06f75208d","286002.7850000188","526.8899999791756","88","1","swim","","","","",""
"dual-task","null","null","null","","swim","arctic","539.7799999918789","","G","null","77","77","1","swim-dual-task","","G","uppercase","294000","0","2","c85c87690290b8e6a451faf397cf56f7e10f0a68b173aa4ba9fb9aa06f75208d","294020.370000042","539.7799999918789","77","1","swim","","","","",""
"dual-task","null","null","null","","swim","arctic","612.3200000729412","","R","null","77","77","1","swim-dual-task","","R","uppercase","306000","0","2","c85c87690290b8e6a451faf397cf56f7e10f0a68b173aa4ba9fb9aa06f75208d","306002.7199999895","612.3200000729412","77","1","swim","","","","",""
"dual-task","null","null","null","","swim","arctic","912.7149999840185","","f","null","88","88","1","swim-dual-task","","f","lowercase","314000","0","2","c85c87690290b8e6a451faf397cf56f7e10f0a68b173aa4ba9fb9aa06f75208d","314000.80500007607","912.7149999840185","88","1","swim","","","","",""
"dual-task","null","null","null","","swim","arctic","671.0249999305233","","d","null","88","88","1","swim-dual-task","","d","lowercase","326000","0","2","c85c87690290b8e6a451faf397cf56f7e10f0a68b173aa4ba9fb9aa06f75208d","326013.99000000674","671.0249999305233","88","1","swim","","","","",""
"dual-task","null","null","null","","swim","arctic","692.7099999738857","","n","null","88","88","1","swim-dual-task","","n","lowercase","338000","0","2","c85c87690290b8e6a451faf397cf56f7e10f0a68b173aa4ba9fb9aa06f75208d","338013.5250000749","692.7099999738857","88","1","swim","","","","",""
"dual-task","null","null","null","","swim","arctic","806.2700000591576","","F","null","77","77","1","swim-dual-task","","F","uppercase","348000","0","2","c85c87690290b8e6a451faf397cf56f7e10f0a68b173aa4ba9fb9aa06f75208d","348010.3400000371","806.2700000591576","77","1","swim","","","","",""
"dual-task","null","null","null","","swim","arctic","586.4249999867752","","h","null","88","88","1","swim-dual-task","","h","lowercase","356000","0","2","c85c87690290b8e6a451faf397cf56f7e10f0a68b173aa4ba9fb9aa06f75208d","356014.5200000843","586.4249999867752","88","1","swim","","","","",""
"dual-task","null","null","null","","swim","arctic","604.9299999140203","","H","null","77","77","1","swim-dual-task","","H","uppercase","364000","0","2","c85c87690290b8e6a451faf397cf56f7e10f0a68b173aa4ba9fb9aa06f75208d","364013.0399999907","604.9299999140203","77","1","swim","","","","",""
"dual-task","null","null","null","","swim","arctic","724.1200000280514","","E","null","77","77","1","swim-dual-task","","E","uppercase","376000","0","2","c85c87690290b8e6a451faf397cf56f7e10f0a68b173aa4ba9fb9aa06f75208d","376010.25500008836","724.1200000280514","77","1","swim","","","","",""
"dual-task","null","null","null","","swim","arctic","818.180000060238","","E","null","77","77","1","swim-dual-task","","E","uppercase","384000","0","2","c85c87690290b8e6a451faf397cf56f7e10f0a68b173aa4ba9fb9aa06f75208d","384010.6650000671","818.180000060238","77","1","swim","","","","",""
"dual-task","null","null","null","","swim","arctic","740.3749999357387","","n","null","88","88","1","swim-dual-task","","n","lowercase","394000","0","2","c85c87690290b8e6a451faf397cf56f7e10f0a68b173aa4ba9fb9aa06f75208d","394010.6350000715","740.3749999357387","88","1","swim","","","","",""
"dual-task","null","null","null","","swim","arctic","611.1200000159442","","H","null","77","77","1","swim-dual-task","","H","uppercase","404000","0","2","c85c87690290b8e6a451faf397cf56f7e10f0a68b173aa4ba9fb9aa06f75208d","404011.55000005383","611.1200000159442","77","1","swim","","","","",""
"dual-task","null","null","null","","swim","arctic","564.4500000635162","","A","null","77","77","1","swim-dual-task","","A","uppercase","410000","0","2","c85c87690290b8e6a451faf397cf56f7e10f0a68b173aa4ba9fb9aa06f75208d","410009.10500006285","564.4500000635162","77","1","swim","","","","",""
"dual-task","null","null","null","","swim","arctic","728.4249999793246","","T","null","77","77","1","swim-dual-task","","T","uppercase","420000","0","2","c85c87690290b8e6a451faf397cf56f7e10f0a68b173aa4ba9fb9aa06f75208d","420013.4800000815","728.4249999793246","77","1","swim","","","","",""
"dual-task","null","null","null","","swim","arctic","864.2100000288337","","e","null","88","88","1","swim-dual-task","","e","lowercase","430000","0","2","c85c87690290b8e6a451faf397cf56f7e10f0a68b173aa4ba9fb9aa06f75208d","430029.4100000756","864.2100000288337","88","1","swim","","","","",""
"dual-task","null","null","null","","swim","arctic","750.179999973625","","b","null","88","88","1","swim-dual-task","","b","lowercase","436000","0","2","c85c87690290b8e6a451faf397cf56f7e10f0a68b173aa4ba9fb9aa06f75208d","436006.31000008434","750.179999973625","88","1","swim","","","","",""
"dual-task","null","null","null","","swim","arctic","572.7650000480935","","a","null","88","88","1","swim-dual-task","","a","lowercase","442000","0","2","c85c87690290b8e6a451faf397cf56f7e10f0a68b173aa4ba9fb9aa06f75208d","442007.1100000059","572.7650000480935","88","1","swim","","","","",""
"dual-task","null","null","null","","swim","arctic","560.9600000316277","","q","null","88","88","1","swim-dual-task","","q","lowercase","454000","0","2","c85c87690290b8e6a451faf397cf56f7e10f0a68b173aa4ba9fb9aa06f75208d","454008.1550000468","560.9600000316277","88","1","swim","","","","",""
"dual-task","null","null","null","","swim","arctic","598.2599999988452","","g","null","88","88","1","swim-dual-task","","g","lowercase","462000","0","2","c85c87690290b8e6a451faf397cf56f7e10f0a68b173aa4ba9fb9aa06f75208d","462010.660000029","598.2599999988452","88","1","swim","","","","",""
"dual-task","null","null","null","","swim","arctic","674.390000058338","","f","null","88","88","1","swim-dual-task","","f","lowercase","476000","0","2","c85c87690290b8e6a451faf397cf56f7e10f0a68b173aa4ba9fb9aa06f75208d","476007.0800000103","674.390000058338","88","1","swim","","","","",""
"dual-task","null","null","null","","swim","arctic","626.5750000020489","","g","null","88","88","1","swim-dual-task","","g","lowercase","490000","0","2","c85c87690290b8e6a451faf397cf56f7e10f0a68b173aa4ba9fb9aa06f75208d","490012.9700000398","626.5750000020489","88","1","swim","","","","",""
"dual-task","null","null","null","","swim","arctic","881.929999915883","","D","null","77","77","1","swim-dual-task","","D","uppercase","496000","0","2","c85c87690290b8e6a451faf397cf56f7e10f0a68b173aa4ba9fb9aa06f75208d","496015.91000007465","881.929999915883","77","1","swim","","","","",""
"dual-task","null","null","null","","swim","arctic","714.0150000341237","","a","null","88","88","1","swim-dual-task","","a","lowercase","510000","0","2","c85c87690290b8e6a451faf397cf56f7e10f0a68b173aa4ba9fb9aa06f75208d","510011.99500006624","714.0150000341237","88","1","swim","","","","",""
"dual-task","null","null","null","","swim","arctic","668.4949999907985","","Q","null","77","77","1","swim-dual-task","","Q","uppercase","520000","0","2","c85c87690290b8e6a451faf397cf56f7e10f0a68b173aa4ba9fb9aa06f75208d","520011.15000003483","668.4949999907985","77","1","swim","","","","",""
"dual-task","null","null","null","","swim","arctic","749.805000028573","","e","null","88","88","1","swim-dual-task","","e","lowercase","528000","0","2","c85c87690290b8e6a451faf397cf56f7e10f0a68b173aa4ba9fb9aa06f75208d","528006.8550000433","749.805000028573","88","1","swim","","","","",""
"dual-task","null","null","null","","swim","arctic","472.80500002671033","","H","null","77","77","1","swim-dual-task","","H","uppercase","540000","0","2","c85c87690290b8e6a451faf397cf56f7e10f0a68b173aa4ba9fb9aa06f75208d","540013.9100000961","472.80500002671033","77","1","swim","","","","",""
"dual-task","null","null","null","","swim","arctic","746.6550000244752","","h","null","88","88","1","swim-dual-task","","h","lowercase","546000","0","2","c85c87690290b8e6a451faf397cf56f7e10f0a68b173aa4ba9fb9aa06f75208d","546009.1950000497","746.6550000244752","88","1","swim","","","","",""
"dual-task","null","null","null","","swim","arctic","549.2399999639019","","d","null","88","88","1","swim-dual-task","","d","lowercase","554000","0","2","c85c87690290b8e6a451faf397cf56f7e10f0a68b173aa4ba9fb9aa06f75208d","554011.7350000655","549.2399999639019","88","1","swim","","","","",""
"dual-task","null","null","null","","swim","arctic","767.2949999105185","","b","null","88","88","1","swim-dual-task","","b","lowercase","566000","0","2","c85c87690290b8e6a451faf397cf56f7e10f0a68b173aa4ba9fb9aa06f75208d","566014.0850000316","767.2949999105185","88","1","swim","","","","",""
"dual-task","null","null","null","","swim","arctic","595.5049999756739","","T","null","77","77","1","swim-dual-task","","T","uppercase","578000","0","2","c85c87690290b8e6a451faf397cf56f7e10f0a68b173aa4ba9fb9aa06f75208d","578013.4800000815","595.5049999756739","77","1","swim","","","","",""
"dual-task","null","null","null","","swim","arctic","785.1149999769405","","D","null","77","77","1","swim-dual-task","","D","uppercase","588000","0","2","c85c87690290b8e6a451faf397cf56f7e10f0a68b173aa4ba9fb9aa06f75208d","588002.5800000876","785.1149999769405","77","1","swim","","","","",""
"dual-task","null","null","null","","swim","arctic","530.7000000029802","","R","null","77","77","1","swim-dual-task","","R","uppercase","600000","0","2","c85c87690290b8e6a451faf397cf56f7e10f0a68b173aa4ba9fb9aa06f75208d","600005.8900000295","530.7000000029802","77","1","swim","","","","",""
"dual-task","null","null","null","","swim","arctic","982.2700000368059","","r","null","88","88","1","swim-dual-task","","r","lowercase","610000","0","2","c85c87690290b8e6a451faf397cf56f7e10f0a68b173aa4ba9fb9aa06f75208d","610010.8900000341","982.2700000368059","88","1","swim","","","","",""
"dual-task","null","null","null","","swim","arctic","571.9299999764189","","E","null","77","77","1","swim-dual-task","","E","uppercase","622000","0","2","c85c87690290b8e6a451faf397cf56f7e10f0a68b173aa4ba9fb9aa06f75208d","622013.8199999928","571.9299999764189","77","1","swim","","","","",""
"dual-task","null","null","null","","swim","arctic","633.6949999677017","","n","null","88","88","1","swim-dual-task","","n","lowercase","634000","0","2","c85c87690290b8e6a451faf397cf56f7e10f0a68b173aa4ba9fb9aa06f75208d","634015.0550000835","633.6949999677017","88","1","swim","","","","",""
"dual-task","null","null","null","","swim","arctic","881.8400000454858","","e","null","88","88","1","swim-dual-task","","e","lowercase","640000","0","2","c85c87690290b8e6a451faf397cf56f7e10f0a68b173aa4ba9fb9aa06f75208d","640008.1150000915","881.8400000454858","88","1","swim","","","","",""
"dual-task","null","null","null","","swim","arctic","613.8849999988452","","t","null","88","88","1","swim-dual-task","","t","lowercase","652000","0","2","c85c87690290b8e6a451faf397cf56f7e10f0a68b173aa4ba9fb9aa06f75208d","652016.1700000754","613.8849999988452","88","1","swim","","","","",""
"dual-task","null","null","null","","swim","arctic","530.1949999993667","","q","null","88","88","1","swim-dual-task","","q","lowercase","662000","0","2","c85c87690290b8e6a451faf397cf56f7e10f0a68b173aa4ba9fb9aa06f75208d","662014.8950000294","530.1949999993667","88","1","swim","","","","",""
"dual-task","null","null","null","","swim","arctic","619.9299999279901","","t","null","88","88","1","swim-dual-task","","t","lowercase","672000","0","2","c85c87690290b8e6a451faf397cf56f7e10f0a68b173aa4ba9fb9aa06f75208d","672010.1900000591","619.9299999279901","88","1","swim","","","","",""
"dual-task","null","null","null","","swim","arctic","617.1049999538809","","T","null","77","77","1","swim-dual-task","","T","uppercase","682000","0","2","c85c87690290b8e6a451faf397cf56f7e10f0a68b173aa4ba9fb9aa06f75208d","682011.2650000956","617.1049999538809","77","1","swim","","","","",""
"dual-task","null","null","null","","swim","arctic","572.5000000093132","","B","null","77","77","1","swim-dual-task","","B","uppercase","690000","0","2","c85c87690290b8e6a451faf397cf56f7e10f0a68b173aa4ba9fb9aa06f75208d","690013.4250000119","572.5000000093132","77","1","swim","","","","",""
"dual-task","null","null","null","","swim","arctic","795.4700000118464","","E","null","77","77","1","swim-dual-task","","E","uppercase","700000","0","2","c85c87690290b8e6a451faf397cf56f7e10f0a68b173aa4ba9fb9aa06f75208d","700004.7200000845","795.4700000118464","77","1","swim","","","","",""
"dual-task","null","null","null","","swim","arctic","581.1299999477342","","r","null","88","88","1","swim-dual-task","","r","lowercase","708000","0","2","c85c87690290b8e6a451faf397cf56f7e10f0a68b173aa4ba9fb9aa06f75208d","708010.0400000811","581.1299999477342","88","1","swim","","","","",""
"dual-task","null","null","null","","swim","arctic","607.3450000258163","","t","null","88","88","1","swim-dual-task","","t","lowercase","716000","0","2","c85c87690290b8e6a451faf397cf56f7e10f0a68b173aa4ba9fb9aa06f75208d","716018.6700000195","607.3450000258163","88","1","swim","","","","",""
"dual-task","null","null","null","","swim","arctic","620.8149999147281","","f","null","88","88","1","swim-dual-task","","f","lowercase","724000","0","2","c85c87690290b8e6a451faf397cf56f7e10f0a68b173aa4ba9fb9aa06f75208d","724003.0100001022","620.8149999147281","88","1","swim","","","","",""
"dual-task","null","null","null","","swim","arctic","485.82000005990267","","d","null","88","88","1","swim-dual-task","","d","lowercase","736000","0","2","c85c87690290b8e6a451faf397cf56f7e10f0a68b173aa4ba9fb9aa06f75208d","736012.6950000413","485.82000005990267","88","1","swim","","","","",""
"dual-task","null","null","null","","swim","arctic","587.3150000115857","","q","null","88","88","1","swim-dual-task","","q","lowercase","744000","0","2","c85c87690290b8e6a451faf397cf56f7e10f0a68b173aa4ba9fb9aa06f75208d","744006.3650000375","587.3150000115857","88","1","swim","","","","",""
"dual-task","null","null","null","","swim","arctic","516.2499999860302","","h","null","88","88","1","swim-dual-task","","h","lowercase","756000","0","2","c85c87690290b8e6a451faf397cf56f7e10f0a68b173aa4ba9fb9aa06f75208d","756013.0350000691","516.2499999860302","88","1","swim","","","","",""
"dual-task","null","null","null","","swim","arctic","607.4350000126287","","Q","null","77","77","1","swim-dual-task","","Q","uppercase","768000","0","2","c85c87690290b8e6a451faf397cf56f7e10f0a68b173aa4ba9fb9aa06f75208d","768009.5849999925","607.4350000126287","77","1","swim","","","","",""
"dual-task","null","null","null","","swim","arctic","646.2450000690296","","r","null","88","88","1","swim-dual-task","","r","lowercase","782000","0","2","c85c87690290b8e6a451faf397cf56f7e10f0a68b173aa4ba9fb9aa06f75208d","782013.9200000558","646.2450000690296","88","1","swim","","","","",""
"dual-task","null","null","null","","swim","arctic","1714.4450000487268","","A","null","88","77","0","swim-dual-task","","A","uppercase","790000","0","2","c85c87690290b8e6a451faf397cf56f7e10f0a68b173aa4ba9fb9aa06f75208d","790011.3600000041","1714.4450000487268","88","0","swim","","","","",""
"audio-keyboard-response","29","1189084","0.0-7.0-0.0-1.0","c85c87690290b8e6a451faf397cf56f7e10f0a68b173aa4ba9fb9aa06f75208d","swim","arctic","null","","audio/story_swim.mp3","","null","","","","","","","","","","","","","","","","","","","",""
"html-button-response","30","1192144","0.0-7.0-0.0-2.0","c85c87690290b8e6a451faf397cf56f7e10f0a68b173aa4ba9fb9aa06f75208d","swim","arctic","3058","","<p>This concludes the story. Thank you for listening.</p><p>You will now answer some questions about the content of the story.</p>","0","","","","","","","","","","","","","","","","","","","","",""
"survey-multi-choice","31","1200649","0.0-7.0-0.0-3.0-0.0","c85c87690290b8e6a451faf397cf56f7e10f0a68b173aa4ba9fb9aa06f75208d","swim","arctic","8480","","<b>What gave the narrator his greatest feeling of accomplishment?</b>","","","","1","swim-comprehension","","","","","","","","","","","","","{""Q0"":""Passing the water survival course""}","","","",""
"survey-multi-choice","32","1207838","0.0-7.0-0.0-3.0-0.1","c85c87690290b8e6a451faf397cf56f7e10f0a68b173aa4ba9fb9aa06f75208d","swim","arctic","6904","","<b>How many astronaut candidates passed the first swim test?</b>","","","","1","swim-comprehension","","","","","","","","","","","","","{""Q0"":""All of them""}","","","",""
"survey-multi-choice","33","1212606","0.0-7.0-0.0-3.0-0.2","c85c87690290b8e6a451faf397cf56f7e10f0a68b173aa4ba9fb9aa06f75208d","swim","arctic","4459","","<b>Where is the home of naval aviation?</b>","","","","1","swim-comprehension","","","","","","","","","","","","","{""Q0"":""Pensacola""}","","","",""
"survey-multi-choice","34","1227154","0.0-7.0-0.0-3.0-0.3","c85c87690290b8e6a451faf397cf56f7e10f0a68b173aa4ba9fb9aa06f75208d","swim","arctic","14277","","<b>How often does the narrator swim, now that he is a good swimmer?</b>","","","","1","swim-comprehension","","","","","","","","","","","","","{""Q0"":""Never swam again in his life""}","","","",""
"survey-multi-choice","35","1236446","0.0-7.0-0.0-3.0-0.4","c85c87690290b8e6a451faf397cf56f7e10f0a68b173aa4ba9fb9aa06f75208d","swim","arctic","9013","","<b>What were the astronaut candidates trained to do at the naval air station?</b>","","","","1","swim-comprehension","","","","","","","","","","","","","{""Q0"":""Eject out of aircraft and survive in water long enough to be rescued""}","","","",""
"survey-multi-choice","36","1245027","0.0-7.0-0.0-3.0-0.5","c85c87690290b8e6a451faf397cf56f7e10f0a68b173aa4ba9fb9aa06f75208d","swim","arctic","8319","","<b>How did the narrator train for his swim test?</b>","","","","0","swim-comprehension","","","","","","","","","","","","","{""Q0"":""Swam at the lake every day""}","","","",""
"survey-multi-choice","37","1257055","0.0-7.0-0.0-3.0-0.6","c85c87690290b8e6a451faf397cf56f7e10f0a68b173aa4ba9fb9aa06f75208d","swim","arctic","11767","","<b>How many times did the astronaut candidates have to complete the final exercise to pass?</b>","","","","0","swim-comprehension","","","","","","","","","","","","","{""Q0"":""Five""}","","","",""
"survey-multi-choice","38","1260615","0.0-7.0-0.0-3.0-0.7","c85c87690290b8e6a451faf397cf56f7e10f0a68b173aa4ba9fb9aa06f75208d","swim","arctic","3302","","<b>What is the narrator afraid of, aside from the water?</b>","","","","1","swim-comprehension","","","","","","","","","","","","","{""Q0"":""Heights""}","","","",""
"survey-multi-choice","39","1274872","0.0-7.0-0.0-3.0-0.8","c85c87690290b8e6a451faf397cf56f7e10f0a68b173aa4ba9fb9aa06f75208d","swim","arctic","13996","","<b>What was the final step of the first swim test in the pool?</b>","","","","1","swim-comprehension","","","","","","","","","","","","","{""Q0"":""Tread water with hands above the water""}","","","",""
"survey-multi-choice","40","1280388","0.0-7.0-0.0-3.0-0.9","c85c87690290b8e6a451faf397cf56f7e10f0a68b173aa4ba9fb9aa06f75208d","swim","arctic","5250","","<b>How many astronaut candidates reported for duty at the Johnson Space Center?</b>","","","","1","swim-comprehension","","","","","","","","","","","","","{""Q0"":""Forty-four""}","","","",""
"html-button-response","41","1282710","0.0-7.0-0.0-4.0","c85c87690290b8e6a451faf397cf56f7e10f0a68b173aa4ba9fb9aa06f75208d","swim","arctic","2051","","<p>Thank you for your responses.</p><p>You will now answer some questions about your impressions of the story.</p>","0","","","","","","","","","","","","","","","","","","","","",""
"html-button-response","42","1285661","0.0-7.0-0.0-5.0-0.0","c85c87690290b8e6a451faf397cf56f7e10f0a68b173aa4ba9fb9aa06f75208d","swim","arctic","2948","","EE5","6","","","","swim-engagement","","","","","","","","","","","","","","7","emo-engage","",""
"html-button-response","43","1289781","0.0-7.0-0.0-5.0-0.1","c85c87690290b8e6a451faf397cf56f7e10f0a68b173aa4ba9fb9aa06f75208d","swim","arctic","3861","","A4","6","","","","swim-engagement","","","","","","","","","","","","","","7","absorption","",""
"html-button-response","44","1292055","0.0-7.0-0.0-5.0-0.2","c85c87690290b8e6a451faf397cf56f7e10f0a68b173aa4ba9fb9aa06f75208d","swim","arctic","2019","","MS2","6","","","","swim-engagement","","","","","","","","","","","","","","7","mental-sim","",""
"html-button-response","45","1294061","0.0-7.0-0.0-5.0-0.3","c85c87690290b8e6a451faf397cf56f7e10f0a68b173aa4ba9fb9aa06f75208d","swim","arctic","1753","","E8","6","","","","swim-engagement","","","","","","","","","","","","","","7","enjoyment","",""
"html-button-response","46","1295555","0.0-7.0-0.0-5.0-0.4","c85c87690290b8e6a451faf397cf56f7e10f0a68b173aa4ba9fb9aa06f75208d","swim","arctic","1238","","EE3","6","","","","swim-engagement","","","","","","","","","","","","","","7","emo-engage","",""
"html-button-response","47","1296881","0.0-7.0-0.0-5.0-0.5","c85c87690290b8e6a451faf397cf56f7e10f0a68b173aa4ba9fb9aa06f75208d","swim","arctic","1069","","E6","6","","","","swim-engagement","","","","","","","","","","","","","","7","enjoyment","",""
"html-button-response","48","1299635","0.0-7.0-0.0-5.0-0.6","c85c87690290b8e6a451faf397cf56f7e10f0a68b173aa4ba9fb9aa06f75208d","swim","arctic","2497","","EE1","6","","","","swim-engagement","","","","","","","","","","","","","","7","emo-engage","",""
"html-button-response","49","1305205","0.0-7.0-0.0-5.0-0.7","c85c87690290b8e6a451faf397cf56f7e10f0a68b173aa4ba9fb9aa06f75208d","swim","arctic","5316","","MS3","6","","","","swim-engagement","","","","","","","","","","","","","","7","mental-sim","",""
"html-button-response","50","1306850","0.0-7.0-0.0-5.0-0.8","c85c87690290b8e6a451faf397cf56f7e10f0a68b173aa4ba9fb9aa06f75208d","swim","arctic","1391","","E10","6","","","","swim-engagement","","","","","","","","","","","","","","7","enjoyment","",""
"html-button-response","51","1308273","0.0-7.0-0.0-5.0-0.9","c85c87690290b8e6a451faf397cf56f7e10f0a68b173aa4ba9fb9aa06f75208d","swim","arctic","1168","","E7","6","","","","swim-engagement","","","","","","","","","","","","","","7","enjoyment","",""
"html-button-response","52","1309423","0.0-7.0-0.0-5.0-0.10","c85c87690290b8e6a451faf397cf56f7e10f0a68b173aa4ba9fb9aa06f75208d","swim","arctic","881","","E1","6","","","","swim-engagement","","","","","","","","","","","","","","7","enjoyment","",""
"html-button-response","53","1310569","0.0-7.0-0.0-5.0-0.11","c85c87690290b8e6a451faf397cf56f7e10f0a68b173aa4ba9fb9aa06f75208d","swim","arctic","872","","A3","6","","","","swim-engagement","","","","","","","","","","","","","","7","absorption","",""
"html-button-response","54","1312827","0.0-7.0-0.0-5.0-0.12","c85c87690290b8e6a451faf397cf56f7e10f0a68b173aa4ba9fb9aa06f75208d","swim","arctic","2004","","MS1","6","","","","swim-engagement","","","","","","","","","","","","","","7","mental-sim","",""
"html-button-response","55","1315117","0.0-7.0-0.0-5.0-0.13","c85c87690290b8e6a451faf397cf56f7e10f0a68b173aa4ba9fb9aa06f75208d","swim","arctic","2031","","EE2","6","","","","swim-engagement","","","","","","","","","","","","","","7","emo-engage","",""
"html-button-response","56","1318144","0.0-7.0-0.0-5.0-0.14","c85c87690290b8e6a451faf397cf56f7e10f0a68b173aa4ba9fb9aa06f75208d","swim","arctic","2773","","A5","6","","","","swim-engagement","","","","","","","","","","","","","","7","absorption","",""
"html-button-response","57","1321092","0.0-7.0-0.0-5.0-0.15","c85c87690290b8e6a451faf397cf56f7e10f0a68b173aa4ba9fb9aa06f75208d","swim","arctic","2683","","A2","6","","","","swim-engagement","","","","","","","","","","","","","","7","absorption","",""
"html-button-response","58","1323358","0.0-7.0-0.0-5.0-0.16","c85c87690290b8e6a451faf397cf56f7e10f0a68b173aa4ba9fb9aa06f75208d","swim","arctic","2009","","A1","6","","","","swim-engagement","","","","","","","","","","","","","","7","absorption","",""
"html-button-response","59","1324843","0.0-7.0-0.0-5.0-0.17","c85c87690290b8e6a451faf397cf56f7e10f0a68b173aa4ba9fb9aa06f75208d","swim","arctic","1226","","EE4","6","","","","swim-engagement","","","","","","","","","","","","","","7","emo-engage","",""
"html-keyboard-response","60","1333254","0.0-7.0-1.0","c85c87690290b8e6a451faf397cf56f7e10f0a68b173aa4ba9fb9aa06f75208d","swim","arctic","8157","","<p>Thank you for your responses. You will now listen to the second story.</p><p>Remember, as you listen to the story you will see letters appear on the screen.</br>As quickly as possible, press <b>&lt;x&gt;</b> if the letter is lowercase and <b>&lt;m&gt;</b> if the letter is uppercase.</p><p>Press <b>&lt;x&gt;</b> or <b>&lt;m&gt;</b> to begin listening!</p>","","77","","","","","","","","","","","","","","","","","","","",""
"html-keyboard-response","61","1333756","0.0-7.0-2.0-0.0","c85c87690290b8e6a451faf397cf56f7e10f0a68b173aa4ba9fb9aa06f75208d","swim","arctic","null","","<div style=""font-size:60px;"" tabindex=""0"">+</div>","","null","","","","","","","","","","","","","","","","","","","",""
"dual-task","null","null","null","","swim","arctic","NA","","h","null","NA","88","0","arctic-dual-task","","h","lowercase","12000","1","2","c85c87690290b8e6a451faf397cf56f7e10f0a68b173aa4ba9fb9aa06f75208d","12009.279999998398","NA","NA","0","arctic","","","","",""
"dual-task","null","null","null","","swim","arctic","757.6450000051409","","h","null","88","88","1","arctic-dual-task","","h","lowercase","20000","0","2","c85c87690290b8e6a451faf397cf56f7e10f0a68b173aa4ba9fb9aa06f75208d","19998.840000014752","757.6450000051409","88","1","arctic","","","","",""
"dual-task","null","null","null","","swim","arctic","929.1250000242144","","G","null","77","77","1","arctic-dual-task","","G","uppercase","26000","0","2","c85c87690290b8e6a451faf397cf56f7e10f0a68b173aa4ba9fb9aa06f75208d","26005.509999929927","929.1250000242144","77","1","arctic","","","","",""
"dual-task","null","null","null","","swim","arctic","1022.4800000432879","","g","null","88","88","1","arctic-dual-task","","g","lowercase","36000","0","2","c85c87690290b8e6a451faf397cf56f7e10f0a68b173aa4ba9fb9aa06f75208d","36016.24999998603","1022.4800000432879","88","1","arctic","","","","",""
"dual-task","null","null","null","","swim","arctic","597.6200000150129","","b","null","88","88","1","arctic-dual-task","","b","lowercase","48000","0","2","c85c87690290b8e6a451faf397cf56f7e10f0a68b173aa4ba9fb9aa06f75208d","48006.77999993786","597.6200000150129","88","1","arctic","","","","",""
"dual-task","null","null","null","","swim","arctic","676.4449999900535","","d","null","88","88","1","arctic-dual-task","","d","lowercase","54000","0","2","c85c87690290b8e6a451faf397cf56f7e10f0a68b173aa4ba9fb9aa06f75208d","54019.2200000165","676.4449999900535","88","1","arctic","","","","",""
"dual-task","null","null","null","","swim","arctic","693.4899999760091","","H","null","77","77","1","arctic-dual-task","","H","uppercase","62000","0","2","c85c87690290b8e6a451faf397cf56f7e10f0a68b173aa4ba9fb9aa06f75208d","62010.64500003122","693.4899999760091","77","1","arctic","","","","",""
"dual-task","null","null","null","","swim","arctic","738.124999916181","","r","null","88","88","1","arctic-dual-task","","r","lowercase","72000","0","2","c85c87690290b8e6a451faf397cf56f7e10f0a68b173aa4ba9fb9aa06f75208d","72006.68999995105","738.124999916181","88","1","arctic","","","","",""
"dual-task","null","null","null","","swim","arctic","581.9500000216067","","t","null","88","88","1","arctic-dual-task","","t","lowercase","78000","0","2","c85c87690290b8e6a451faf397cf56f7e10f0a68b173aa4ba9fb9aa06f75208d","78003.66499996744","581.9500000216067","88","1","arctic","","","","",""
"dual-task","null","null","null","","swim","arctic","538.8700000476092","","e","null","88","88","1","arctic-dual-task","","e","lowercase","90000","0","2","c85c87690290b8e6a451faf397cf56f7e10f0a68b173aa4ba9fb9aa06f75208d","90006.23499997891","538.8700000476092","88","1","arctic","","","","",""
"dual-task","null","null","null","","swim","arctic","609.3150000087917","","F","null","77","77","1","arctic-dual-task","","F","uppercase","96000","0","2","c85c87690290b8e6a451faf397cf56f7e10f0a68b173aa4ba9fb9aa06f75208d","96013.58000002801","609.3150000087917","77","1","arctic","","","","",""
"dual-task","null","null","null","","swim","arctic","566.1150000523776","","B","null","77","77","1","arctic-dual-task","","B","uppercase","102000","0","2","c85c87690290b8e6a451faf397cf56f7e10f0a68b173aa4ba9fb9aa06f75208d","102011.96999999229","566.1150000523776","77","1","arctic","","","","",""
"dual-task","null","null","null","","swim","arctic","1095.5399998929352","","A","null","77","77","1","arctic-dual-task","","A","uppercase","114000","0","2","c85c87690290b8e6a451faf397cf56f7e10f0a68b173aa4ba9fb9aa06f75208d","114002.9649999924","1095.5399998929352","77","1","arctic","","","","",""
"dual-task","null","null","null","","swim","arctic","626.8099999288097","","d","null","88","88","1","arctic-dual-task","","d","lowercase","126000","0","2","c85c87690290b8e6a451faf397cf56f7e10f0a68b173aa4ba9fb9aa06f75208d","126007.6949999202","626.8099999288097","88","1","arctic","","","","",""
"dual-task","null","null","null","","swim","arctic","648.5600000014529","","F","null","77","77","1","arctic-dual-task","","F","uppercase","138000","0","2","c85c87690290b8e6a451faf397cf56f7e10f0a68b173aa4ba9fb9aa06f75208d","138009.83999995515","648.5600000014529","77","1","arctic","","","","",""
"dual-task","null","null","null","","swim","arctic","895.615000044927","","h","null","88","88","1","arctic-dual-task","","h","lowercase","148000","0","2","c85c87690290b8e6a451faf397cf56f7e10f0a68b173aa4ba9fb9aa06f75208d","148002.11000000127","895.615000044927","88","1","arctic","","","","",""
"dual-task","null","null","null","","swim","arctic","606.2750000273809","","T","null","77","77","1","arctic-dual-task","","T","uppercase","158000","0","2","c85c87690290b8e6a451faf397cf56f7e10f0a68b173aa4ba9fb9aa06f75208d","158004.46500000544","606.2750000273809","77","1","arctic","","","","",""
"dual-task","null","null","null","","swim","arctic","596.4099999982864","","f","null","88","88","1","arctic-dual-task","","f","lowercase","166000","0","2","c85c87690290b8e6a451faf397cf56f7e10f0a68b173aa4ba9fb9aa06f75208d","166008.11499997508","596.4099999982864","88","1","arctic","","","","",""
"dual-task","null","null","null","","swim","arctic","582.6550000347197","","a","null","88","88","1","arctic-dual-task","","a","lowercase","174000","0","2","c85c87690290b8e6a451faf397cf56f7e10f0a68b173aa4ba9fb9aa06f75208d","174009.9400000181","582.6550000347197","88","1","arctic","","","","",""
"dual-task","null","null","null","","swim","arctic","581.6849999828264","","R","null","77","77","1","arctic-dual-task","","R","uppercase","182000","0","2","c85c87690290b8e6a451faf397cf56f7e10f0a68b173aa4ba9fb9aa06f75208d","182013.54499999434","581.6849999828264","77","1","arctic","","","","",""
"dual-task","null","null","null","","swim","arctic","589.9600000120699","","E","null","77","77","1","arctic-dual-task","","E","uppercase","190000","0","2","c85c87690290b8e6a451faf397cf56f7e10f0a68b173aa4ba9fb9aa06f75208d","190012.22499995492","589.9600000120699","77","1","arctic","","","","",""
"dual-task","null","null","null","","swim","arctic","746.1750000948086","","e","null","88","88","1","arctic-dual-task","","e","lowercase","198000","0","2","c85c87690290b8e6a451faf397cf56f7e10f0a68b173aa4ba9fb9aa06f75208d","198008.20999999996","746.1750000948086","88","1","arctic","","","","",""
"dual-task","null","null","null","","swim","arctic","571.4999999618158","","E","null","77","77","1","arctic-dual-task","","E","uppercase","210000","0","2","c85c87690290b8e6a451faf397cf56f7e10f0a68b173aa4ba9fb9aa06f75208d","210012.44999992196","571.4999999618158","77","1","arctic","","","","",""
"dual-task","null","null","null","","swim","arctic","866.3899999810383","","A","null","77","77","1","arctic-dual-task","","A","uppercase","222000","0","2","c85c87690290b8e6a451faf397cf56f7e10f0a68b173aa4ba9fb9aa06f75208d","222012.64999993145","866.3899999810383","77","1","arctic","","","","",""
"dual-task","null","null","null","","swim","arctic","735.2699999464676","","r","null","88","88","1","arctic-dual-task","","r","lowercase","236000","0","2","c85c87690290b8e6a451faf397cf56f7e10f0a68b173aa4ba9fb9aa06f75208d","236004.81499999296","735.2699999464676","88","1","arctic","","","","",""
"dual-task","null","null","null","","swim","arctic","608.8549999985844","","q","null","88","88","1","arctic-dual-task","","q","lowercase","250000","0","2","c85c87690290b8e6a451faf397cf56f7e10f0a68b173aa4ba9fb9aa06f75208d","250016.61499997135","608.8549999985844","88","1","arctic","","","","",""
"dual-task","null","null","null","","swim","arctic","698.380000074394","","a","null","88","88","1","arctic-dual-task","","a","lowercase","258000","0","2","c85c87690290b8e6a451faf397cf56f7e10f0a68b173aa4ba9fb9aa06f75208d","258003.7350000348","698.380000074394","88","1","arctic","","","","",""
"dual-task","null","null","null","","swim","arctic","969.3950000219047","","t","null","88","88","1","arctic-dual-task","","t","lowercase","268000","0","2","c85c87690290b8e6a451faf397cf56f7e10f0a68b173aa4ba9fb9aa06f75208d","268005.839999998","969.3950000219047","88","1","arctic","","","","",""
"dual-task","null","null","null","","swim","arctic","467.51499990932643","","q","null","88","88","1","arctic-dual-task","","q","lowercase","278000","0","2","c85c87690290b8e6a451faf397cf56f7e10f0a68b173aa4ba9fb9aa06f75208d","278010.4199999478","467.51499990932643","88","1","arctic","","","","",""
"dual-task","null","null","null","","swim","arctic","609.3549999641255","","H","null","77","77","1","arctic-dual-task","","H","uppercase","284000","0","2","c85c87690290b8e6a451faf397cf56f7e10f0a68b173aa4ba9fb9aa06f75208d","284008.0849999795","609.3549999641255","77","1","arctic","","","","",""
"dual-task","null","null","null","","swim","arctic","489.87000004854053","","D","null","77","77","1","arctic-dual-task","","D","uppercase","292000","0","2","c85c87690290b8e6a451faf397cf56f7e10f0a68b173aa4ba9fb9aa06f75208d","292006.15499995183","489.87000004854053","77","1","arctic","","","","",""
"dual-task","null","null","null","","swim","arctic","540.7650000415742","","T","null","77","77","1","arctic-dual-task","","T","uppercase","304000","0","2","c85c87690290b8e6a451faf397cf56f7e10f0a68b173aa4ba9fb9aa06f75208d","304007.6999999583","540.7650000415742","77","1","arctic","","","","",""
"dual-task","null","null","null","","swim","arctic","556.4950000261888","","r","null","88","88","1","arctic-dual-task","","r","lowercase","310000","0","2","c85c87690290b8e6a451faf397cf56f7e10f0a68b173aa4ba9fb9aa06f75208d","310000.9999999311","556.4950000261888","88","1","arctic","","","","",""
"dual-task","null","null","null","","swim","arctic","558.9449999388307","","d","null","88","88","1","arctic-dual-task","","d","lowercase","322000","0","2","c85c87690290b8e6a451faf397cf56f7e10f0a68b173aa4ba9fb9aa06f75208d","322006.8050000118","558.9449999388307","88","1","arctic","","","","",""
"dual-task","null","null","null","","swim","arctic","592.365000047721","","r","null","88","88","1","arctic-dual-task","","r","lowercase","336000","0","2","c85c87690290b8e6a451faf397cf56f7e10f0a68b173aa4ba9fb9aa06f75208d","336005.1049999893","592.365000047721","88","1","arctic","","","","",""
"dual-task","null","null","null","","swim","arctic","653.6800001049414","","G","null","77","77","1","arctic-dual-task","","G","uppercase","344000","0","2","c85c87690290b8e6a451faf397cf56f7e10f0a68b173aa4ba9fb9aa06f75208d","344012.0500000194","653.6800001049414","77","1","arctic","","","","",""
"dual-task","null","null","null","","swim","arctic","1581.6600000252947","","h","null","88","88","1","arctic-dual-task","","h","lowercase","358000","0","2","c85c87690290b8e6a451faf397cf56f7e10f0a68b173aa4ba9fb9aa06f75208d","358006.3800000353","1581.6600000252947","88","1","arctic","","","","",""
"dual-task","null","null","null","","swim","arctic","601.3749999692664","","N","null","77","77","1","arctic-dual-task","","N","uppercase","370000","0","2","c85c87690290b8e6a451faf397cf56f7e10f0a68b173aa4ba9fb9aa06f75208d","370019.27499996964","601.3749999692664","77","1","arctic","","","","",""
"dual-task","null","null","null","","swim","arctic","579.9950000364333","","t","null","88","88","1","arctic-dual-task","","t","lowercase","380000","0","2","c85c87690290b8e6a451faf397cf56f7e10f0a68b173aa4ba9fb9aa06f75208d","380008.6149999406","579.9950000364333","88","1","arctic","","","","",""
"dual-task","null","null","null","","swim","arctic","544.374999939464","","T","null","77","77","1","arctic-dual-task","","T","uppercase","392000","0","2","c85c87690290b8e6a451faf397cf56f7e10f0a68b173aa4ba9fb9aa06f75208d","392012.7700000303","544.374999939464","77","1","arctic","","","","",""
"dual-task","null","null","null","","swim","arctic","772.7300000842661","","b","null","88","88","1","arctic-dual-task","","b","lowercase","400000","0","2","c85c87690290b8e6a451faf397cf56f7e10f0a68b173aa4ba9fb9aa06f75208d","400015.1449999539","772.7300000842661","88","1","arctic","","","","",""
"dual-task","null","null","null","","swim","arctic","622.0400000456721","","H","null","77","77","1","arctic-dual-task","","H","uppercase","408000","0","2","c85c87690290b8e6a451faf397cf56f7e10f0a68b173aa4ba9fb9aa06f75208d","408003.78999998793","622.0400000456721","77","1","arctic","","","","",""
"dual-task","null","null","null","","swim","arctic","585.6599999824539","","F","null","77","77","1","arctic-dual-task","","F","uppercase","420000","0","2","c85c87690290b8e6a451faf397cf56f7e10f0a68b173aa4ba9fb9aa06f75208d","420012.81999994535","585.6599999824539","77","1","arctic","","","","",""
"dual-task","null","null","null","","swim","arctic","1112.0949999894947","","R","null","77","77","1","arctic-dual-task","","R","uppercase","430000","0","2","c85c87690290b8e6a451faf397cf56f7e10f0a68b173aa4ba9fb9aa06f75208d","430002.11000000127","1112.0949999894947","77","1","arctic","","","","",""
"dual-task","null","null","null","","swim","arctic","540.2150000445545","","N","null","77","77","1","arctic-dual-task","","N","uppercase","442000","0","2","c85c87690290b8e6a451faf397cf56f7e10f0a68b173aa4ba9fb9aa06f75208d","442002.0699999295","540.2150000445545","77","1","arctic","","","","",""
"dual-task","null","null","null","","swim","arctic","916.1600000225008","","t","null","88","88","1","arctic-dual-task","","t","lowercase","456000","0","2","c85c87690290b8e6a451faf397cf56f7e10f0a68b173aa4ba9fb9aa06f75208d","456006.62499992177","916.1600000225008","88","1","arctic","","","","",""
"dual-task","null","null","null","","swim","arctic","612.0299999602139","","Q","null","77","77","1","arctic-dual-task","","Q","uppercase","464000","0","2","c85c87690290b8e6a451faf397cf56f7e10f0a68b173aa4ba9fb9aa06f75208d","464006.18499994744","612.0299999602139","77","1","arctic","","","","",""
"dual-task","null","null","null","","swim","arctic","741.2149999290705","","N","null","77","77","1","arctic-dual-task","","N","uppercase","470000","0","2","c85c87690290b8e6a451faf397cf56f7e10f0a68b173aa4ba9fb9aa06f75208d","470009.4899999676","741.2149999290705","77","1","arctic","","","","",""
"dual-task","null","null","null","","swim","arctic","568.6599999899045","","B","null","77","77","1","arctic-dual-task","","B","uppercase","476000","0","2","c85c87690290b8e6a451faf397cf56f7e10f0a68b173aa4ba9fb9aa06f75208d","476008.909999975","568.6599999899045","77","1","arctic","","","","",""
"dual-task","null","null","null","","swim","arctic","649.9649999896064","","n","null","88","88","1","arctic-dual-task","","n","lowercase","490000","0","2","c85c87690290b8e6a451faf397cf56f7e10f0a68b173aa4ba9fb9aa06f75208d","490012.91499997023","649.9649999896064","88","1","arctic","","","","",""
"dual-task","null","null","null","","swim","arctic","753.4100000048056","","D","null","77","77","1","arctic-dual-task","","D","uppercase","502000","0","2","c85c87690290b8e6a451faf397cf56f7e10f0a68b173aa4ba9fb9aa06f75208d","502008.7150000036","753.4100000048056","77","1","arctic","","","","",""
"dual-task","null","null","null","","swim","arctic","688.9649999793619","","G","null","77","77","1","arctic-dual-task","","G","uppercase","510000","0","2","c85c87690290b8e6a451faf397cf56f7e10f0a68b173aa4ba9fb9aa06f75208d","510014.51000000816","688.9649999793619","77","1","arctic","","","","",""
"dual-task","null","null","null","","swim","arctic","677.9749999986961","","N","null","77","77","1","arctic-dual-task","","N","uppercase","516000","0","2","c85c87690290b8e6a451faf397cf56f7e10f0a68b173aa4ba9fb9aa06f75208d","516007.86000001244","677.9749999986961","77","1","arctic","","","","",""
"dual-task","null","null","null","","swim","arctic","1348.3799999812618","","a","null","88","88","1","arctic-dual-task","","a","lowercase","526000","0","2","c85c87690290b8e6a451faf397cf56f7e10f0a68b173aa4ba9fb9aa06f75208d","526008.4049999714","1348.3799999812618","88","1","arctic","","","","",""
"dual-task","null","null","null","","swim","arctic","542.5099999411032","","B","null","77","77","1","arctic-dual-task","","B","uppercase","538000","0","2","c85c87690290b8e6a451faf397cf56f7e10f0a68b173aa4ba9fb9aa06f75208d","538003.0750000151","542.5099999411032","77","1","arctic","","","","",""
"dual-task","null","null","null","","swim","arctic","609.4449999509379","","H","null","77","77","1","arctic-dual-task","","H","uppercase","552000","0","2","c85c87690290b8e6a451faf397cf56f7e10f0a68b173aa4ba9fb9aa06f75208d","552014.9199999869","609.4449999509379","77","1","arctic","","","","",""
"dual-task","null","null","null","","swim","arctic","701.3499999884516","","E","null","77","77","1","arctic-dual-task","","E","uppercase","564000","0","2","c85c87690290b8e6a451faf397cf56f7e10f0a68b173aa4ba9fb9aa06f75208d","564012.9699999234","701.3499999884516","77","1","arctic","","","","",""
"dual-task","null","null","null","","swim","arctic","943.0250000441447","","g","null","88","88","1","arctic-dual-task","","g","lowercase","572000","0","2","c85c87690290b8e6a451faf397cf56f7e10f0a68b173aa4ba9fb9aa06f75208d","572012.2050000355","943.0250000441447","88","1","arctic","","","","",""
"dual-task","null","null","null","","swim","arctic","779.780000098981","","Q","null","77","77","1","arctic-dual-task","","Q","uppercase","582000","0","2","c85c87690290b8e6a451faf397cf56f7e10f0a68b173aa4ba9fb9aa06f75208d","582012.2849999461","779.780000098981","77","1","arctic","","","","",""
"dual-task","null","null","null","","swim","arctic","568.8949999166653","","f","null","88","88","1","arctic-dual-task","","f","lowercase","590000","0","2","c85c87690290b8e6a451faf397cf56f7e10f0a68b173aa4ba9fb9aa06f75208d","590017.0350000262","568.8949999166653","88","1","arctic","","","","",""
"dual-task","null","null","null","","swim","arctic","910.5950000230223","","e","null","88","88","1","arctic-dual-task","","e","lowercase","596000","0","2","c85c87690290b8e6a451faf397cf56f7e10f0a68b173aa4ba9fb9aa06f75208d","596015.0049999356","910.5950000230223","88","1","arctic","","","","",""
"dual-task","null","null","null","","swim","arctic","557.2299999184906","","e","null","88","88","1","arctic-dual-task","","e","lowercase","604000","0","2","c85c87690290b8e6a451faf397cf56f7e10f0a68b173aa4ba9fb9aa06f75208d","604013.7849999592","557.2299999184906","88","1","arctic","","","","",""
"dual-task","null","null","null","","swim","arctic","695.0550000183284","","q","null","88","88","1","arctic-dual-task","","q","lowercase","612000","0","2","c85c87690290b8e6a451faf397cf56f7e10f0a68b173aa4ba9fb9aa06f75208d","612012.2350000311","695.0550000183284","88","1","arctic","","","","",""
"dual-task","null","null","null","","swim","arctic","755.9800000162795","","f","null","88","88","1","arctic-dual-task","","f","lowercase","624000","0","2","c85c87690290b8e6a451faf397cf56f7e10f0a68b173aa4ba9fb9aa06f75208d","624004.2799999937","755.9800000162795","88","1","arctic","","","","",""
"dual-task","null","null","null","","swim","arctic","733.2349999342114","","n","null","88","88","1","arctic-dual-task","","n","lowercase","632000","0","2","c85c87690290b8e6a451faf397cf56f7e10f0a68b173aa4ba9fb9aa06f75208d","632003.3899999689","733.2349999342114","88","1","arctic","","","","",""
"dual-task","null","null","null","","swim","arctic","456.24500000849366","","G","null","77","77","1","arctic-dual-task","","G","uppercase","644000","0","2","c85c87690290b8e6a451faf397cf56f7e10f0a68b173aa4ba9fb9aa06f75208d","644014.1649999423","456.24500000849366","77","1","arctic","","","","",""
"dual-task","null","null","null","","swim","arctic","639.3549999920651","","b","null","88","88","1","arctic-dual-task","","b","lowercase","654000","0","2","c85c87690290b8e6a451faf397cf56f7e10f0a68b173aa4ba9fb9aa06f75208d","654002.1499999566","639.3549999920651","88","1","arctic","","","","",""
"dual-task","null","null","null","","swim","arctic","495.8450000267476","","D","null","77","77","1","arctic-dual-task","","D","uppercase","664000","0","2","c85c87690290b8e6a451faf397cf56f7e10f0a68b173aa4ba9fb9aa06f75208d","664011.5649999352","495.8450000267476","77","1","arctic","","","","",""
"dual-task","null","null","null","","swim","arctic","556.8299998994917","","A","null","77","77","1","arctic-dual-task","","A","uppercase","672000","0","2","c85c87690290b8e6a451faf397cf56f7e10f0a68b173aa4ba9fb9aa06f75208d","672019.2599999718","556.8299998994917","77","1","arctic","","","","",""
"dual-task","null","null","null","","swim","arctic","NA","","g","null","NA","88","0","arctic-dual-task","","g","lowercase","678000","1","2","c85c87690290b8e6a451faf397cf56f7e10f0a68b173aa4ba9fb9aa06f75208d","678015.8550000051","NA","NA","0","arctic","","","","",""
"dual-task","null","null","null","","swim","arctic","1042.4450000282377","","B","null","77","77","1","arctic-dual-task","","B","uppercase","686000","0","2","c85c87690290b8e6a451faf397cf56f7e10f0a68b173aa4ba9fb9aa06f75208d","686001.9150000298","1042.4450000282377","77","1","arctic","","","","",""
"dual-task","null","null","null","","swim","arctic","910.6700000120327","","T","null","77","77","1","arctic-dual-task","","T","uppercase","698000","0","2","c85c87690290b8e6a451faf397cf56f7e10f0a68b173aa4ba9fb9aa06f75208d","698006.464999984","910.6700000120327","77","1","arctic","","","","",""
"dual-task","null","null","null","","swim","arctic","855.2299999864772","","Q","null","77","77","1","arctic-dual-task","","Q","uppercase","712000","0","2","c85c87690290b8e6a451faf397cf56f7e10f0a68b173aa4ba9fb9aa06f75208d","712011.9999999879","855.2299999864772","77","1","arctic","","","","",""
"dual-task","null","null","null","","swim","arctic","1310.5399999767542","","d","null","88","88","1","arctic-dual-task","","d","lowercase","718000","0","2","c85c87690290b8e6a451faf397cf56f7e10f0a68b173aa4ba9fb9aa06f75208d","718015.8949999604","1310.5399999767542","88","1","arctic","","","","",""
"dual-task","null","null","null","","swim","arctic","555.6250000372529","","R","null","77","77","1","arctic-dual-task","","R","uppercase","732000","0","2","c85c87690290b8e6a451faf397cf56f7e10f0a68b173aa4ba9fb9aa06f75208d","732002.1249999991","555.6250000372529","77","1","arctic","","","","",""
"dual-task","null","null","null","","swim","arctic","781.554999994114","","Q","null","77","77","1","arctic-dual-task","","Q","uppercase","738000","0","2","c85c87690290b8e6a451faf397cf56f7e10f0a68b173aa4ba9fb9aa06f75208d","738016.4550000336","781.554999994114","77","1","arctic","","","","",""
"dual-task","null","null","null","","swim","arctic","575.0949999783188","","g","null","88","88","1","arctic-dual-task","","g","lowercase","752000","0","2","c85c87690290b8e6a451faf397cf56f7e10f0a68b173aa4ba9fb9aa06f75208d","752018.7999999616","575.0949999783188","88","1","arctic","","","","",""
"dual-task","null","null","null","","swim","arctic","757.1199999656528","","n","null","88","88","1","arctic-dual-task","","n","lowercase","760000","0","2","c85c87690290b8e6a451faf397cf56f7e10f0a68b173aa4ba9fb9aa06f75208d","760011.4100000355","757.1199999656528","88","1","arctic","","","","",""
"dual-task","null","null","null","","swim","arctic","489.78000006172806","","n","null","88","88","1","arctic-dual-task","","n","lowercase","768000","0","2","c85c87690290b8e6a451faf397cf56f7e10f0a68b173aa4ba9fb9aa06f75208d","768012.0149999857","489.78000006172806","88","1","arctic","","","","",""
"dual-task","null","null","null","","swim","arctic","734.7200000658631","","F","null","77","77","1","arctic-dual-task","","F","uppercase","780000","0","2","c85c87690290b8e6a451faf397cf56f7e10f0a68b173aa4ba9fb9aa06f75208d","780009.0099999215","734.7200000658631","77","1","arctic","","","","",""
"audio-keyboard-response","62","2132058","0.0-7.0-2.0-1.0","c85c87690290b8e6a451faf397cf56f7e10f0a68b173aa4ba9fb9aa06f75208d","swim","arctic","null","","audio/story_arctic_scrambled.mp3","","null","","","","","","","","","","","","","","","","","","","",""
"html-button-response","63","2206529","0.0-7.0-2.0-2.0","c85c87690290b8e6a451faf397cf56f7e10f0a68b173aa4ba9fb9aa06f75208d","swim","arctic","74469","","<p>This concludes the story. Thank you for listening.</p><p>You will now answer some questions about the content of the story.</p>","0","","","","","","","","","","","","","","","","","","","","",""
"survey-multi-choice","64","2215204","0.0-7.0-2.0-3.0-0.0","c85c87690290b8e6a451faf397cf56f7e10f0a68b173aa4ba9fb9aa06f75208d","swim","arctic","8660","","<b>How did the narrator&#39;s neighbour respond when she told him about her expedition?</b>","","","","1","arctic-comprehension","","","","","","","","","","","","","{""Q0"":""He said she was going to fail.""}","","","",""
"survey-multi-choice","65","2219079","0.0-7.0-2.0-3.0-0.1","c85c87690290b8e6a451faf397cf56f7e10f0a68b173aa4ba9fb9aa06f75208d","swim","arctic","3589","","<b>What was the objective of the narrator&#39;s expedition?</b>","","","","1","arctic-comprehension","","","","","","","","","","","","","{""Q0"":""Dogsled across Arctic America""}","","","",""
"survey-multi-choice","66","2224940","0.0-7.0-2.0-3.0-0.2","c85c87690290b8e6a451faf397cf56f7e10f0a68b173aa4ba9fb9aa06f75208d","swim","arctic","5595","","<b>How many sponsorships did the narrator receive to support her expedition?</b>","","","","0","arctic-comprehension","","","","","","","","","","","","","{""Q0"":""Ten""}","","","",""
"survey-multi-choice","67","2238018","0.0-7.0-2.0-3.0-0.3","c85c87690290b8e6a451faf397cf56f7e10f0a68b173aa4ba9fb9aa06f75208d","swim","arctic","12819","","<b>What is the name of the narrator&#39;s neighbour?</b>","","","","0","arctic-comprehension","","","","","","","","","","","","","{""Q0"":""Doug""}","","","",""
"survey-multi-choice","68","2245370","0.0-7.0-2.0-3.0-0.4","c85c87690290b8e6a451faf397cf56f7e10f0a68b173aa4ba9fb9aa06f75208d","swim","arctic","7096","","<b>Which dog on the narrator&#39;s dog team never followed instructions?</b>","","","","0","arctic-comprehension","","","","","","","","","","","","","{""Q0"":""Douggie-dog""}","","","",""
"survey-multi-choice","69","2260050","0.0-7.0-2.0-3.0-0.5","c85c87690290b8e6a451faf397cf56f7e10f0a68b173aa4ba9fb9aa06f75208d","swim","arctic","14366","","<b>How did the narrator&#39;s encounter with the polar bears end?</b>","","","","1","arctic-comprehension","","","","","","","","","","","","","{""Q0"":""The bears walked back to their den.""}","","","",""
"survey-multi-choice","70","2267320","0.0-7.0-2.0-3.0-0.6","c85c87690290b8e6a451faf397cf56f7e10f0a68b173aa4ba9fb9aa06f75208d","swim","arctic","6973","","<b>How did the dogs respond when they saw the bears?</b>","","","","0","arctic-comprehension","","","","","","","","","","","","","{""Q0"":""Barked aggressively""}","","","",""
"survey-multi-choice","71","2273507","0.0-7.0-2.0-3.0-0.7","c85c87690290b8e6a451faf397cf56f7e10f0a68b173aa4ba9fb9aa06f75208d","swim","arctic","5912","","<b>How did the narrator prepare for her expedition?</b>","","","","1","arctic-comprehension","","","","","","","","","","","","","{""Q0"":""Trained in Alaska learning how to dogsled""}","","","",""
"survey-multi-choice","72","2286705","0.0-7.0-2.0-3.0-0.8","c85c87690290b8e6a451faf397cf56f7e10f0a68b173aa4ba9fb9aa06f75208d","swim","arctic","12939","","<b>What did the narrator do for leisure while in her tent?</b>","","","","1","arctic-comprehension","","","","","","","","","","","","","{""Q0"":""Read""}","","","",""
"survey-multi-choice","73","2295468","0.0-7.0-2.0-3.0-0.9","c85c87690290b8e6a451faf397cf56f7e10f0a68b173aa4ba9fb9aa06f75208d","swim","arctic","8491","","<b>What were the weather conditions in the Arctic like the winter of the narrator&#39;s expedition?</b>","","","","1","arctic-comprehension","","","","","","","","","","","","","{""Q0"":""There were more storms than any other winter in recorded history.""}","","","",""
"html-button-response","74","2297587","0.0-7.0-2.0-4.0","c85c87690290b8e6a451faf397cf56f7e10f0a68b173aa4ba9fb9aa06f75208d","swim","arctic","1851","","<p>Thank you for your responses.</p><p>You will now answer some questions about your impressions of the story.</p>","0","","","","","","","","","","","","","","","","","","","","",""
"html-button-response","75","2301367","0.0-7.0-2.0-5.0-0.0","c85c87690290b8e6a451faf397cf56f7e10f0a68b173aa4ba9fb9aa06f75208d","swim","arctic","3483","","A4","6","","","","arctic-engagement","","","","","","","","","","","","","","7","absorption","",""
"html-button-response","76","2302498","0.0-7.0-2.0-5.0-0.1","c85c87690290b8e6a451faf397cf56f7e10f0a68b173aa4ba9fb9aa06f75208d","swim","arctic","876","","A1","6","","","","arctic-engagement","","","","","","","","","","","","","","7","absorption","",""
"html-button-response","77","2303373","0.0-7.0-2.0-5.0-0.2","c85c87690290b8e6a451faf397cf56f7e10f0a68b173aa4ba9fb9aa06f75208d","swim","arctic","617","","E1","6","","","","arctic-engagement","","","","","","","","","","","","","","7","enjoyment","",""
"html-button-response","78","2304617","0.0-7.0-2.0-5.0-0.3","c85c87690290b8e6a451faf397cf56f7e10f0a68b173aa4ba9fb9aa06f75208d","swim","arctic","990","","EE3","6","","","","arctic-engagement","","","","","","","","","","","","","","7","emo-engage","",""
"html-button-response","79","2305870","0.0-7.0-2.0-5.0-0.4","c85c87690290b8e6a451faf397cf56f7e10f0a68b173aa4ba9fb9aa06f75208d","swim","arctic","994","","EE1","6","","","","arctic-engagement","","","","","","","","","","","","","","7","emo-engage","",""
"html-button-response","80","2306837","0.0-7.0-2.0-5.0-0.5","c85c87690290b8e6a451faf397cf56f7e10f0a68b173aa4ba9fb9aa06f75208d","swim","arctic","713","","A3","6","","","","arctic-engagement","","","","","","","","","","","","","","7","absorption","",""
"html-button-response","81","2307711","0.0-7.0-2.0-5.0-0.6","c85c87690290b8e6a451faf397cf56f7e10f0a68b173aa4ba9fb9aa06f75208d","swim","arctic","620","","E7","6","","","","arctic-engagement","","","","","","","","","","","","","","7","enjoyment","",""
"html-button-response","82","2308741","0.0-7.0-2.0-5.0-0.7","c85c87690290b8e6a451faf397cf56f7e10f0a68b173aa4ba9fb9aa06f75208d","swim","arctic","775","","MS1","6","","","","arctic-engagement","","","","","","","","","","","","","","7","mental-sim","",""
"html-button-response","83","2309870","0.0-7.0-2.0-5.0-0.8","c85c87690290b8e6a451faf397cf56f7e10f0a68b173aa4ba9fb9aa06f75208d","swim","arctic","876","","E6","6","","","","arctic-engagement","","","","","","","","","","","","","","7","enjoyment","",""
"html-button-response","84","2318098","0.0-7.0-2.0-5.0-0.9","c85c87690290b8e6a451faf397cf56f7e10f0a68b173aa4ba9fb9aa06f75208d","swim","arctic","7945","","MS3","6","","","","arctic-engagement","","","","","","","","","","","","","","7","mental-sim","",""
"html-button-response","85","2318966","0.0-7.0-2.0-5.0-0.10","c85c87690290b8e6a451faf397cf56f7e10f0a68b173aa4ba9fb9aa06f75208d","swim","arctic","614","","E8","6","","","","arctic-engagement","","","","","","","","","","","","","","7","enjoyment","",""
"html-button-response","86","2319742","0.0-7.0-2.0-5.0-0.11","c85c87690290b8e6a451faf397cf56f7e10f0a68b173aa4ba9fb9aa06f75208d","swim","arctic","523","","A5","6","","","","arctic-engagement","","","","","","","","","","","","","","7","absorption","",""
"html-button-response","87","2320460","0.0-7.0-2.0-5.0-0.12","c85c87690290b8e6a451faf397cf56f7e10f0a68b173aa4ba9fb9aa06f75208d","swim","arctic","464","","A2","6","","","","arctic-engagement","","","","","","","","","","","","","","7","absorption","",""
"html-button-response","88","2321062","0.0-7.0-2.0-5.0-0.13","c85c87690290b8e6a451faf397cf56f7e10f0a68b173aa4ba9fb9aa06f75208d","swim","arctic","348","","EE2","6","","","","arctic-engagement","","","","","","","","","","","","","","7","emo-engage","",""
"html-button-response","89","2321808","0.0-7.0-2.0-5.0-0.14","c85c87690290b8e6a451faf397cf56f7e10f0a68b173aa4ba9fb9aa06f75208d","swim","arctic","493","","MS2","6","","","","arctic-engagement","","","","","","","","","","","","","","7","mental-sim","",""
"html-button-response","90","2322791","0.0-7.0-2.0-5.0-0.15","c85c87690290b8e6a451faf397cf56f7e10f0a68b173aa4ba9fb9aa06f75208d","swim","arctic","728","","EE5","6","","","","arctic-engagement","","","","","","","","","","","","","","7","emo-engage","",""
"html-button-response","91","2323689","0.0-7.0-2.0-5.0-0.16","c85c87690290b8e6a451faf397cf56f7e10f0a68b173aa4ba9fb9aa06f75208d","swim","arctic","629","","E10","6","","","","arctic-engagement","","","","","","","","","","","","","","7","enjoyment","",""
"html-button-response","92","2324557","0.0-7.0-2.0-5.0-0.17","c85c87690290b8e6a451faf397cf56f7e10f0a68b173aa4ba9fb9aa06f75208d","swim","arctic","616","","EE4","6","","","","arctic-engagement","","","","","","","","","","","","","","7","emo-engage","",""
"html-button-response","93","2337426","0.0-8.0","c85c87690290b8e6a451faf397cf56f7e10f0a68b173aa4ba9fb9aa06f75208d","swim","arctic","12618","","<p>Thank you for your responses.</p><p>You will now answer some demographic, hearing, and general health questions.</p>","0","","","","","","","","","","","","","","","","","","","","",""
"survey-multi-choice","94","2341073","0.0-9.0-0.0","c85c87690290b8e6a451faf397cf56f7e10f0a68b173aa4ba9fb9aa06f75208d","swim","arctic","3636","","","","","","","survey","","","","","","","","","","","","","{""Q0"":""Chrome""}","","","browser",""
"survey-text","95","2343331","0.0-9.0-1.0","c85c87690290b8e6a451faf397cf56f7e10f0a68b173aa4ba9fb9aa06f75208d","swim","arctic","1993.2749998988584","","","","","","","survey","","","","","","","","","","","","","{""AGE"":""37""}","","","age","37"
"survey-multi-choice","96","2345363","0.0-9.0-2.0","c85c87690290b8e6a451faf397cf56f7e10f0a68b173aa4ba9fb9aa06f75208d","swim","arctic","1776","","","","","","","survey","","","","","","","","","","","","","{""Q0"":""Male""}","","","gender","Male"
"survey-multi-choice","97","2347427","0.0-9.0-4.0","c85c87690290b8e6a451faf397cf56f7e10f0a68b173aa4ba9fb9aa06f75208d","swim","arctic","1810","","","","","","","survey","","","","","","","","","","","","","{""Q0"":""Right""}","","","handedness","Right"
"survey-multi-choice","98","2349572","0.0-9.0-5.0","c85c87690290b8e6a451faf397cf56f7e10f0a68b173aa4ba9fb9aa06f75208d","swim","arctic","1888","","","","","","","survey","","","","","","","","","","","","","{""Q0"":""High school""}","","","education","High school"
"survey-text","99","2354096","0.0-10.0-0.0","c85c87690290b8e6a451faf397cf56f7e10f0a68b173aa4ba9fb9aa06f75208d","swim","arctic","4272.189999930561","","","","","","","survey","","","","","","","","","","","","","{""L1"":""English""}","","","first-language","English"
"survey-text","100","2361279","0.0-10.0-1.0","c85c87690290b8e6a451faf397cf56f7e10f0a68b173aa4ba9fb9aa06f75208d","swim","arctic","6924.815000034869","","","","","","","survey","","","","","","","","","","","","","{""L2name"":"""",""L2fluency"":"""",""L3name"":"""",""L3fluency"":"""",""L4name"":"""",""L4fluency"":""""}","","","additional-languages","{""L2name"":"""",""L2fluency"":"""",""L3name"":"""",""L3fluency"":"""",""L4name"":"""",""L4fluency"":""""}"
"survey-multi-choice","101","2364934","0.0-10.0-2.0","c85c87690290b8e6a451faf397cf56f7e10f0a68b173aa4ba9fb9aa06f75208d","swim","arctic","3398","","","","","","","survey","","","","","","","","","","","","","{""Q0"":""No""}","","","hearing-aid","No"
"survey-multi-choice","102","2367914","0.0-10.0-3.0","c85c87690290b8e6a451faf397cf56f7e10f0a68b173aa4ba9fb9aa06f75208d","swim","arctic","2724","","","","","","","survey","","","","","","","","","","","","","{""Q0"":""Never""}","","","ringing-ears","Never"
"survey-multi-choice","103","2370405","0.0-10.0-5.0","c85c87690290b8e6a451faf397cf56f7e10f0a68b173aa4ba9fb9aa06f75208d","swim","arctic","2236","","","","","","","survey","","","","","","","","","","","","","{""Q0"":""No""}","","","neuro-disease","No"
"survey-multi-choice","104","2373000","0.0-10.0-7.0","c85c87690290b8e6a451faf397cf56f7e10f0a68b173aa4ba9fb9aa06f75208d","swim","arctic","2342","","","","","","","survey","","","","","","","","","","","","","{""Q0"":""No""}","","","take-meds","No"
"survey-text","105","2382772","0.0-10.0-9.0","c85c87690290b8e6a451faf397cf56f7e10f0a68b173aa4ba9fb9aa06f75208d","swim","arctic","9501.435000100173","","","","","","","survey","","","","","","","","","","","","","{""HC"":""NA""}","","","health-concerns","NA"
"html-button-response","106","2386427","0.0-11.0-0.0","c85c87690290b8e6a451faf397cf56f7e10f0a68b173aa4ba9fb9aa06f75208d","swim","arctic","3402","","<p>How would you describe your musical skills/experiences?</p>","2","","","","survey","","","","","","","","","","","","","","","","music-skill","3"
"survey-multi-choice","107","2388475","0.0-11.0-1.0","c85c87690290b8e6a451faf397cf56f7e10f0a68b173aa4ba9fb9aa06f75208d","swim","arctic","1784","","","","","","","survey","","","","","","","","","","","","","{""Q0"":""Yes""}","","","music-instrument","Yes"
"survey-text","108","2390708","0.0-11.0-2.0-0.0","c85c87690290b8e6a451faf397cf56f7e10f0a68b173aa4ba9fb9aa06f75208d","swim","arctic","1981.0299999080598","","","","","","","survey","","","","","","","","","","","","","{""MEXP"":""5""}","","","music-training-yrs","5"
"html-button-response","109","2393078","0.0-12.0-0.0","c85c87690290b8e6a451faf397cf56f7e10f0a68b173aa4ba9fb9aa06f75208d","swim","arctic","2118","","<p>How would you describe your general hearing abilities?</p>","3","","","","survey","","","","","","","","","","","","","","","","ssq-01","4"
"html-button-response","110","2398144","0.0-12.0-1.0","c85c87690290b8e6a451faf397cf56f7e10f0a68b173aa4ba9fb9aa06f75208d","swim","arctic","4813","","<p>When you talk with someone at a place that strongly reverberates/echoes (e.g., in a church or train station),</br>can you understand what the person says?</p>","8","","","","survey","","","","","","","","","","","","","","","","ssq-02","8"
"html-button-response","111","2401871","0.0-12.0-2.0","c85c87690290b8e6a451faf397cf56f7e10f0a68b173aa4ba9fb9aa06f75208d","swim","arctic","3475","","<p>When you are with a group (~5 people) in a lively restaurant, can you follow the group's conversation?</p>","9","","","","survey","","","","","","","","","","","","","","","","ssq-03","9"
"html-button-response","112","2404972","0.0-12.0-3.0","c85c87690290b8e6a451faf397cf56f7e10f0a68b173aa4ba9fb9aa06f75208d","swim","arctic","2848","","<p>Based on the sound of a bus or truck, can you tell whether it is moving towards or away from you?</p>","10","","","","survey","","","","","","","","","","","","","","","","ssq-04","10"
"html-button-response","113","2407599","0.0-12.0-4.0","c85c87690290b8e6a451faf397cf56f7e10f0a68b173aa4ba9fb9aa06f75208d","swim","arctic","2375","","<p>When you are in an unknown environment, can you tell from which direction a brief sound originates?</p>","9","","","","survey","","","","","","","","","","","","","","","","ssq-05","9"
"html-button-response","114","2413994","0.0-12.0-5.0","c85c87690290b8e6a451faf397cf56f7e10f0a68b173aa4ba9fb9aa06f75208d","swim","arctic","6142","","<p>Are you able to ignore distracting sounds when you concentrate on a specific aspect of your acoustic surrounding?</p>","7","","","","survey","","","","","","","","","","","","","","","","ssq-06","7"
"fullscreen","115","2415248","0.0-13.0","c85c87690290b8e6a451faf397cf56f7e10f0a68b173aa4ba9fb9aa06f75208d","swim","arctic","","","","","","","","","true","","","","","","","","","","","","","","","",""
