"trial_type","trial_index","time_elapsed","internal_node_id","ParticipantID","firstStory","scramStory","rt","url","stimulus","button_pressed","key_press","correctRESP","correct","designation","success","letterStim","letterType","ONSET","TIMEOUT","CONDITION","Participant","ONSET_ACTUAL","RT","RESP","ACC","STORY","responses","response","type","surveyQuestion","QRESP"
"pavlovia","0","146","0.0-0.0","11a7990d387305831ab91b109d1f7ae59f062a6442aa9941bc9f418a14913434","swim","swim","","","","","","","","","","","","","","","","","","","","","","","","",""
"external-html","1","14145","0.0-1.0","11a7990d387305831ab91b109d1f7ae59f062a6442aa9941bc9f418a14913434","swim","swim","11763","consent/consent_updated.html","","","","","","","","","","","","","","","","","","","","","","",""
"html-button-response","2","17639","0.0-2.0-0.0","11a7990d387305831ab91b109d1f7ae59f062a6442aa9941bc9f418a14913434","swim","swim","3492","","<p>Before we begin the main task, you will complete a short volume calibration and headphone check.</p><p>Please make sure you are in a quiet listening environment, that you are wearing headphones, and that your computer's volume is turned on.<p></p>","0","","","","","","","","","","","","","","","","","","","","",""
"html-button-response","3","24015","0.0-2.0-1.0","11a7990d387305831ab91b109d1f7ae59f062a6442aa9941bc9f418a14913434","swim","swim","6124","","<p>The volume calibration will be first.</p><p>You will hear a thirty-second noise. Please adjust your computer's volume so that this noise is being presented at a comfortable level.<p></p>","0","","","","","","","","","","","","","","","","","","","","",""
"audio-button-response","4","26263","0.0-2.0-2.0","11a7990d387305831ab91b109d1f7ae59f062a6442aa9941bc9f418a14913434","swim","swim","1955","","audio/volumetest.mp3","0","","","","","","","","","","","","","","","","","","","","",""
"html-keyboard-response","5","32856","0.0-3.0-0.0","11a7990d387305831ab91b109d1f7ae59f062a6442aa9941bc9f418a14913434","swim","swim","6592","","<p>You will now complete a short headphone check.</p><p>On each trial, you will hear three tones. One of these tones will be quieter than the others. Your task is to identify whether the quiet tone occurred first, second, or third.</p><p>There are six trials in total.<p></p><p></p>(Press SPACEBAR to begin)","","32","","","","","","","","","","","","","","","","","","","",""
"html-keyboard-response","6","33609","0.0-3.0-1.0-0.0","11a7990d387305831ab91b109d1f7ae59f062a6442aa9941bc9f418a14913434","swim","swim","null","","<div style=""font-size:60px;"">+</div>","","null","","","","","","","","","","","","","","","","","","","",""
"audio-button-response","7","38374","0.0-3.0-1.0-1.0","11a7990d387305831ab91b109d1f7ae59f062a6442aa9941bc9f418a14913434","swim","swim","4763","","audio/t3_2.mp3","1","","2","0","headphone-test","","","","","","","","","","","","","","","","",""
"html-keyboard-response","8","38876","0.0-3.0-1.0-2.0","11a7990d387305831ab91b109d1f7ae59f062a6442aa9941bc9f418a14913434","swim","swim","null","","<p>Incorrect</p>","","null","","","","","","","","","","","","","","","","","","","",""
"html-keyboard-response","9","39377","0.0-3.0-1.0-0.1","11a7990d387305831ab91b109d1f7ae59f062a6442aa9941bc9f418a14913434","swim","swim","null","","<div style=""font-size:60px;"">+</div>","","null","","","","","","","","","","","","","","","","","","","",""
"audio-button-response","10","43542","0.0-3.0-1.0-1.1","11a7990d387305831ab91b109d1f7ae59f062a6442aa9941bc9f418a14913434","swim","swim","4163","","audio/t2_1.mp3","0","","1","0","headphone-test","","","","","","","","","","","","","","","","",""
"html-keyboard-response","11","44043","0.0-3.0-1.0-2.1","11a7990d387305831ab91b109d1f7ae59f062a6442aa9941bc9f418a14913434","swim","swim","null","","<p>Incorrect</p>","","null","","","","","","","","","","","","","","","","","","","",""
"html-keyboard-response","12","44545","0.0-3.0-1.0-0.2","11a7990d387305831ab91b109d1f7ae59f062a6442aa9941bc9f418a14913434","swim","swim","null","","<div style=""font-size:60px;"">+</div>","","null","","","","","","","","","","","","","","","","","","","",""
"audio-button-response","13","48598","0.0-3.0-1.0-1.2","11a7990d387305831ab91b109d1f7ae59f062a6442aa9941bc9f418a14913434","swim","swim","4051","","audio/t1_2.mp3","2","","0","0","headphone-test","","","","","","","","","","","","","","","","",""
"html-keyboard-response","14","49100","0.0-3.0-1.0-2.2","11a7990d387305831ab91b109d1f7ae59f062a6442aa9941bc9f418a14913434","swim","swim","null","","<p>Incorrect</p>","","null","","","","","","","","","","","","","","","","","","","",""
"html-keyboard-response","15","49602","0.0-3.0-1.0-0.3","11a7990d387305831ab91b109d1f7ae59f062a6442aa9941bc9f418a14913434","swim","swim","null","","<div style=""font-size:60px;"">+</div>","","null","","","","","","","","","","","","","","","","","","","",""
"audio-button-response","16","53893","0.0-3.0-1.0-1.3","11a7990d387305831ab91b109d1f7ae59f062a6442aa9941bc9f418a14913434","swim","swim","4290","","audio/t2_2.mp3","2","","1","0","headphone-test","","","","","","","","","","","","","","","","",""
"html-keyboard-response","17","54394","0.0-3.0-1.0-2.3","11a7990d387305831ab91b109d1f7ae59f062a6442aa9941bc9f418a14913434","swim","swim","null","","<p>Incorrect</p>","","null","","","","","","","","","","","","","","","","","","","",""
"html-keyboard-response","18","54896","0.0-3.0-1.0-0.4","11a7990d387305831ab91b109d1f7ae59f062a6442aa9941bc9f418a14913434","swim","swim","null","","<div style=""font-size:60px;"">+</div>","","null","","","","","","","","","","","","","","","","","","","",""
"audio-button-response","19","58925","0.0-3.0-1.0-1.4","11a7990d387305831ab91b109d1f7ae59f062a6442aa9941bc9f418a14913434","swim","swim","4028","","audio/t1_1.mp3","1","","0","0","headphone-test","","","","","","","","","","","","","","","","",""
"html-keyboard-response","20","59427","0.0-3.0-1.0-2.4","11a7990d387305831ab91b109d1f7ae59f062a6442aa9941bc9f418a14913434","swim","swim","null","","<p>Incorrect</p>","","null","","","","","","","","","","","","","","","","","","","",""
"html-keyboard-response","21","59930","0.0-3.0-1.0-0.5","11a7990d387305831ab91b109d1f7ae59f062a6442aa9941bc9f418a14913434","swim","swim","null","","<div style=""font-size:60px;"">+</div>","","null","","","","","","","","","","","","","","","","","","","",""
"audio-button-response","22","63485","0.0-3.0-1.0-1.5","11a7990d387305831ab91b109d1f7ae59f062a6442aa9941bc9f418a14913434","swim","swim","3552","","audio/t3_1.mp3","0","","2","0","headphone-test","","","","","","","","","","","","","","","","",""
"html-keyboard-response","23","63987","0.0-3.0-1.0-2.5","11a7990d387305831ab91b109d1f7ae59f062a6442aa9941bc9f418a14913434","swim","swim","null","","<p>Incorrect</p>","","null","","","","","","","","","","","","","","","","","","","",""
"fullscreen","24","66578","0.0-4.0","11a7990d387305831ab91b109d1f7ae59f062a6442aa9941bc9f418a14913434","swim","swim","","","","","","","","","true","","","","","","","","","","","","","","","",""
"html-button-response","25","76422","0.0-5.0-0.0","11a7990d387305831ab91b109d1f7ae59f062a6442aa9941bc9f418a14913434","swim","swim","9843","","<p>There are two blocks to this experiment.</p><p>In each block, you will hear a ~13.5 minute story. One of the stories will be scrambled. Please listen carefully to both stories and understand them as best you can.</p><p>After each story, you will be asked some questions to assess your comprehension.</p>","0","","","","","","","","","","","","","","","","","","","","",""
"html-button-response","26","88716","0.0-5.0-1.0","11a7990d387305831ab91b109d1f7ae59f062a6442aa9941bc9f418a14913434","swim","swim","12294","","<p>During each story, there will be an additional task.</p><p>A letter will occasionally appear on the screen.</br>Your job is to - as quickly as you can - decide whether the letter is lowercase or uppercase and press one of two keys on the keyboard:</p><p>If the letter is <b>lowercase</b>, press key &lt;<b>x</b>&gt;.</p><p>If the letter is <b>uppercase</b>, press key &lt;<b>m</b>&gt;.</p>","0","","","","","","","","","","","","","","","","","","","","",""
"html-keyboard-response","27","95256","0.0-5.0-2.0","11a7990d387305831ab91b109d1f7ae59f062a6442aa9941bc9f418a14913434","swim","swim","6538","","<p>Because we want your responses to be as quick as possible, please keep your index fingers over the keys while listening.</p><p>Each block lasts about 20 minutes.</p><p><b>Press &lt;x&gt; or &lt;m&gt; to start the first block!</b></p>","","77","","","","","","","","","","","","","","","","","","","",""
"html-keyboard-response","28","95757","0.0-7.0-0.0-0.0","11a7990d387305831ab91b109d1f7ae59f062a6442aa9941bc9f418a14913434","swim","swim","null","","<div style=""font-size:60px;"" tabindex=""0"">+</div>","","null","","","","","","","","","","","","","","","","","","","",""
"dual-task","null","null","null","","swim","swim","1569.7000000476837","","D","null","77","77","1","swim-dual-task","","D","uppercase","16000","0","4","11a7990d387305831ab91b109d1f7ae59f062a6442aa9941bc9f418a14913434","16000","1569.7000000476837","77","1","swim","","","","",""
"dual-task","null","null","null","","swim","swim","905.3999999761581","","r","null","88","88","1","swim-dual-task","","r","lowercase","22000","0","4","11a7990d387305831ab91b109d1f7ae59f062a6442aa9941bc9f418a14913434","21999.799999952316","905.3999999761581","88","1","swim","","","","",""
"dual-task","null","null","null","","swim","swim","746.0999999046326","","A","null","77","77","1","swim-dual-task","","A","uppercase","36000","0","4","11a7990d387305831ab91b109d1f7ae59f062a6442aa9941bc9f418a14913434","36000.200000047684","746.0999999046326","77","1","swim","","","","",""
"dual-task","null","null","null","","swim","swim","698.8999999761581","","e","null","88","88","1","swim-dual-task","","e","lowercase","46000","0","4","11a7990d387305831ab91b109d1f7ae59f062a6442aa9941bc9f418a14913434","45999.10000002384","698.8999999761581","88","1","swim","","","","",""
"dual-task","null","null","null","","swim","swim","995.6999999284744","","t","null","88","88","1","swim-dual-task","","t","lowercase","52000","0","4","11a7990d387305831ab91b109d1f7ae59f062a6442aa9941bc9f418a14913434","51999.60000002384","995.6999999284744","88","1","swim","","","","",""
"dual-task","null","null","null","","swim","swim","800.2000000476837","","f","null","88","88","1","swim-dual-task","","f","lowercase","60000","0","4","11a7990d387305831ab91b109d1f7ae59f062a6442aa9941bc9f418a14913434","59999.200000047684","800.2000000476837","88","1","swim","","","","",""
"dual-task","null","null","null","","swim","swim","1251.8000000715256","","g","null","88","88","1","swim-dual-task","","g","lowercase","70000","0","4","11a7990d387305831ab91b109d1f7ae59f062a6442aa9941bc9f418a14913434","70000.29999995232","1251.8000000715256","88","1","swim","","","","",""
"dual-task","null","null","null","","swim","swim","603.6999999284744","","r","null","88","88","1","swim-dual-task","","r","lowercase","84000","0","4","11a7990d387305831ab91b109d1f7ae59f062a6442aa9941bc9f418a14913434","84000","603.6999999284744","88","1","swim","","","","",""
"dual-task","null","null","null","","swim","swim","619.7000000476837","","A","null","77","77","1","swim-dual-task","","A","uppercase","90000","0","4","11a7990d387305831ab91b109d1f7ae59f062a6442aa9941bc9f418a14913434","90000","619.7000000476837","77","1","swim","","","","",""
"dual-task","null","null","null","","swim","swim","636.3999999761581","","T","null","77","77","1","swim-dual-task","","T","uppercase","102000","0","4","11a7990d387305831ab91b109d1f7ae59f062a6442aa9941bc9f418a14913434","102000","636.3999999761581","77","1","swim","","","","",""
"dual-task","null","null","null","","swim","swim","693.8999999761581","","E","null","77","77","1","swim-dual-task","","E","uppercase","114000","0","4","11a7990d387305831ab91b109d1f7ae59f062a6442aa9941bc9f418a14913434","113999.70000004768","693.8999999761581","77","1","swim","","","","",""
"dual-task","null","null","null","","swim","swim","603.8000000715256","","q","null","88","88","1","swim-dual-task","","q","lowercase","122000","0","4","11a7990d387305831ab91b109d1f7ae59f062a6442aa9941bc9f418a14913434","122000.79999995232","603.8000000715256","88","1","swim","","","","",""
"dual-task","null","null","null","","swim","swim","989.7999999523163","","A","null","77","77","1","swim-dual-task","","A","uppercase","130000","0","4","11a7990d387305831ab91b109d1f7ae59f062a6442aa9941bc9f418a14913434","129999.60000002384","989.7999999523163","77","1","swim","","","","",""
"dual-task","null","null","null","","swim","swim","1046.3999999761581","","T","null","77","77","1","swim-dual-task","","T","uppercase","142000","0","4","11a7990d387305831ab91b109d1f7ae59f062a6442aa9941bc9f418a14913434","141999.29999995232","1046.3999999761581","77","1","swim","","","","",""
"dual-task","null","null","null","","swim","swim","NA","","g","null","NA","88","0","swim-dual-task","","g","lowercase","148000","1","4","11a7990d387305831ab91b109d1f7ae59f062a6442aa9941bc9f418a14913434","147999.39999997616","NA","NA","0","swim","","","","",""
"dual-task","null","null","null","","swim","swim","958.6000000238419","","a","null","88","88","1","swim-dual-task","","a","lowercase","158000","0","4","11a7990d387305831ab91b109d1f7ae59f062a6442aa9941bc9f418a14913434","157999.39999997616","958.6000000238419","88","1","swim","","","","",""
"dual-task","null","null","null","","swim","swim","973.6000000238419","","g","null","88","88","1","swim-dual-task","","g","lowercase","166000","0","4","11a7990d387305831ab91b109d1f7ae59f062a6442aa9941bc9f418a14913434","166001","973.6000000238419","88","1","swim","","","","",""
"dual-task","null","null","null","","swim","swim","1919.3999999761581","","T","null","77","77","1","swim-dual-task","","T","uppercase","180000","0","4","11a7990d387305831ab91b109d1f7ae59f062a6442aa9941bc9f418a14913434","179999.29999995232","1919.3999999761581","77","1","swim","","","","",""
"dual-task","null","null","null","","swim","swim","1033.6000000238419","","b","null","88","88","1","swim-dual-task","","b","lowercase","192000","0","4","11a7990d387305831ab91b109d1f7ae59f062a6442aa9941bc9f418a14913434","191999.5","1033.6000000238419","88","1","swim","","","","",""
"dual-task","null","null","null","","swim","swim","982.8999999761581","","e","null","88","88","1","swim-dual-task","","e","lowercase","200000","0","4","11a7990d387305831ab91b109d1f7ae59f062a6442aa9941bc9f418a14913434","200000.29999995232","982.8999999761581","88","1","swim","","","","",""
"dual-task","null","null","null","","swim","swim","1135.1000000238419","","n","null","88","88","1","swim-dual-task","","n","lowercase","206000","0","4","11a7990d387305831ab91b109d1f7ae59f062a6442aa9941bc9f418a14913434","206000.5","1135.1000000238419","88","1","swim","","","","",""
"dual-task","null","null","null","","swim","swim","880.3999999761581","","g","null","88","88","1","swim-dual-task","","g","lowercase","216000","0","4","11a7990d387305831ab91b109d1f7ae59f062a6442aa9941bc9f418a14913434","216000.10000002384","880.3999999761581","88","1","swim","","","","",""
"dual-task","null","null","null","","swim","swim","1568.7000000476837","","B","null","77","77","1","swim-dual-task","","B","uppercase","222000","0","4","11a7990d387305831ab91b109d1f7ae59f062a6442aa9941bc9f418a14913434","222000.89999997616","1568.7000000476837","77","1","swim","","","","",""
"dual-task","null","null","null","","swim","swim","904.7000000476837","","r","null","88","88","1","swim-dual-task","","r","lowercase","232000","0","4","11a7990d387305831ab91b109d1f7ae59f062a6442aa9941bc9f418a14913434","231999.70000004768","904.7000000476837","88","1","swim","","","","",""
"dual-task","null","null","null","","swim","swim","1633.1000000238419","","b","null","88","88","1","swim-dual-task","","b","lowercase","244000","0","4","11a7990d387305831ab91b109d1f7ae59f062a6442aa9941bc9f418a14913434","244000.5","1633.1000000238419","88","1","swim","","","","",""
"dual-task","null","null","null","","swim","swim","1064.3999999761581","","D","null","77","77","1","swim-dual-task","","D","uppercase","250000","0","4","11a7990d387305831ab91b109d1f7ae59f062a6442aa9941bc9f418a14913434","250000.70000004768","1064.3999999761581","77","1","swim","","","","",""
"dual-task","null","null","null","","swim","swim","482.10000002384186","","t","null","88","88","1","swim-dual-task","","t","lowercase","262000","0","4","11a7990d387305831ab91b109d1f7ae59f062a6442aa9941bc9f418a14913434","262000.20000004768","482.10000002384186","88","1","swim","","","","",""
"dual-task","null","null","null","","swim","swim","1257.8999999761581","","h","null","88","88","1","swim-dual-task","","h","lowercase","272000","0","4","11a7990d387305831ab91b109d1f7ae59f062a6442aa9941bc9f418a14913434","271999.7999999523","1257.8999999761581","88","1","swim","","","","",""
"dual-task","null","null","null","","swim","swim","1058.2000000476837","","Q","null","77","77","1","swim-dual-task","","Q","uppercase","278000","0","4","11a7990d387305831ab91b109d1f7ae59f062a6442aa9941bc9f418a14913434","277999.7000000477","1058.2000000476837","77","1","swim","","","","",""
"dual-task","null","null","null","","swim","swim","1050.1000000238419","","n","null","88","88","1","swim-dual-task","","n","lowercase","292000","0","4","11a7990d387305831ab91b109d1f7ae59f062a6442aa9941bc9f418a14913434","292000.2000000477","1050.1000000238419","88","1","swim","","","","",""
"dual-task","null","null","null","","swim","swim","1089.7999999523163","","H","null","77","77","1","swim-dual-task","","H","uppercase","304000","0","4","11a7990d387305831ab91b109d1f7ae59f062a6442aa9941bc9f418a14913434","304001","1089.7999999523163","77","1","swim","","","","",""
"dual-task","null","null","null","","swim","swim","1099.2999999523163","","n","null","88","88","1","swim-dual-task","","n","lowercase","316000","0","4","11a7990d387305831ab91b109d1f7ae59f062a6442aa9941bc9f418a14913434","315999.89999997616","1099.2999999523163","88","1","swim","","","","",""
"dual-task","null","null","null","","swim","swim","1140.6999999284744","","R","null","77","77","1","swim-dual-task","","R","uppercase","324000","0","4","11a7990d387305831ab91b109d1f7ae59f062a6442aa9941bc9f418a14913434","323999.7000000477","1140.6999999284744","77","1","swim","","","","",""
"dual-task","null","null","null","","swim","swim","1059.5","","B","null","77","77","1","swim-dual-task","","B","uppercase","336000","0","4","11a7990d387305831ab91b109d1f7ae59f062a6442aa9941bc9f418a14913434","336000.5","1059.5","77","1","swim","","","","",""
"dual-task","null","null","null","","swim","swim","851.6000000238419","","h","null","88","88","1","swim-dual-task","","h","lowercase","346000","0","4","11a7990d387305831ab91b109d1f7ae59f062a6442aa9941bc9f418a14913434","346000.7000000477","851.6000000238419","88","1","swim","","","","",""
"dual-task","null","null","null","","swim","swim","828.5","","F","null","77","77","1","swim-dual-task","","F","uppercase","360000","0","4","11a7990d387305831ab91b109d1f7ae59f062a6442aa9941bc9f418a14913434","360000.7000000477","828.5","77","1","swim","","","","",""
"dual-task","null","null","null","","swim","swim","1141.2000000476837","","G","null","77","77","1","swim-dual-task","","G","uppercase","368000","0","4","11a7990d387305831ab91b109d1f7ae59f062a6442aa9941bc9f418a14913434","367999.89999997616","1141.2000000476837","77","1","swim","","","","",""
"dual-task","null","null","null","","swim","swim","965","","F","null","77","77","1","swim-dual-task","","F","uppercase","378000","0","4","11a7990d387305831ab91b109d1f7ae59f062a6442aa9941bc9f418a14913434","378000.5","965","77","1","swim","","","","",""
"dual-task","null","null","null","","swim","swim","1467.9000000953674","","f","null","88","88","1","swim-dual-task","","f","lowercase","386000","0","4","11a7990d387305831ab91b109d1f7ae59f062a6442aa9941bc9f418a14913434","386001.7000000477","1467.9000000953674","88","1","swim","","","","",""
"dual-task","null","null","null","","swim","swim","757.8999999761581","","T","null","77","77","1","swim-dual-task","","T","uppercase","398000","0","4","11a7990d387305831ab91b109d1f7ae59f062a6442aa9941bc9f418a14913434","398000","757.8999999761581","77","1","swim","","","","",""
"dual-task","null","null","null","","swim","swim","1534.2000000476837","","q","null","88","88","1","swim-dual-task","","q","lowercase","408000","0","4","11a7990d387305831ab91b109d1f7ae59f062a6442aa9941bc9f418a14913434","408000.2000000477","1534.2000000476837","88","1","swim","","","","",""
"dual-task","null","null","null","","swim","swim","997.6999999284744","","d","null","88","88","1","swim-dual-task","","d","lowercase","418000","0","4","11a7990d387305831ab91b109d1f7ae59f062a6442aa9941bc9f418a14913434","418001.10000002384","997.6999999284744","88","1","swim","","","","",""
"dual-task","null","null","null","","swim","swim","NA","","e","null","NA","88","0","swim-dual-task","","e","lowercase","426000","1","4","11a7990d387305831ab91b109d1f7ae59f062a6442aa9941bc9f418a14913434","426000.39999997616","NA","NA","0","swim","","","","",""
"dual-task","null","null","null","","swim","swim","NA","","E","null","NA","77","0","swim-dual-task","","E","uppercase","432000","1","4","11a7990d387305831ab91b109d1f7ae59f062a6442aa9941bc9f418a14913434","432001.10000002384","NA","NA","0","swim","","","","",""
"dual-task","null","null","null","","swim","swim","1143.3999999761581","","N","null","77","77","1","swim-dual-task","","N","uppercase","440000","0","4","11a7990d387305831ab91b109d1f7ae59f062a6442aa9941bc9f418a14913434","440000.2999999523","1143.3999999761581","77","1","swim","","","","",""
"dual-task","null","null","null","","swim","swim","718.5","","b","null","88","88","1","swim-dual-task","","b","lowercase","448000","0","4","11a7990d387305831ab91b109d1f7ae59f062a6442aa9941bc9f418a14913434","448001.2999999523","718.5","88","1","swim","","","","",""
"dual-task","null","null","null","","swim","swim","935.3999999761581","","d","null","88","88","1","swim-dual-task","","d","lowercase","458000","0","4","11a7990d387305831ab91b109d1f7ae59f062a6442aa9941bc9f418a14913434","458000.89999997616","935.3999999761581","88","1","swim","","","","",""
"dual-task","null","null","null","","swim","swim","1776.5","","d","null","88","88","1","swim-dual-task","","d","lowercase","472000","0","4","11a7990d387305831ab91b109d1f7ae59f062a6442aa9941bc9f418a14913434","472000.2000000477","1776.5","88","1","swim","","","","",""
"dual-task","null","null","null","","swim","swim","832.5","","R","null","77","77","1","swim-dual-task","","R","uppercase","484000","0","4","11a7990d387305831ab91b109d1f7ae59f062a6442aa9941bc9f418a14913434","484000.7999999523","832.5","77","1","swim","","","","",""
"dual-task","null","null","null","","swim","swim","1689.5","","a","null","88","88","1","swim-dual-task","","a","lowercase","492000","0","4","11a7990d387305831ab91b109d1f7ae59f062a6442aa9941bc9f418a14913434","491999.89999997616","1689.5","88","1","swim","","","","",""
"dual-task","null","null","null","","swim","swim","721.9000000953674","","t","null","88","88","1","swim-dual-task","","t","lowercase","502000","0","4","11a7990d387305831ab91b109d1f7ae59f062a6442aa9941bc9f418a14913434","502000.7999999523","721.9000000953674","88","1","swim","","","","",""
"dual-task","null","null","null","","swim","swim","714.6000000238419","","t","null","88","88","1","swim-dual-task","","t","lowercase","514000","0","4","11a7990d387305831ab91b109d1f7ae59f062a6442aa9941bc9f418a14913434","513999.7999999523","714.6000000238419","88","1","swim","","","","",""
"dual-task","null","null","null","","swim","swim","1106.5","","H","null","77","77","1","swim-dual-task","","H","uppercase","526000","0","4","11a7990d387305831ab91b109d1f7ae59f062a6442aa9941bc9f418a14913434","526000.5","1106.5","77","1","swim","","","","",""
"dual-task","null","null","null","","swim","swim","1777.8999999761581","","h","null","88","88","1","swim-dual-task","","h","lowercase","538000","0","4","11a7990d387305831ab91b109d1f7ae59f062a6442aa9941bc9f418a14913434","538001.1000000238","1777.8999999761581","88","1","swim","","","","",""
"dual-task","null","null","null","","swim","swim","1665.6999999284744","","B","null","77","77","1","swim-dual-task","","B","uppercase","548000","0","4","11a7990d387305831ab91b109d1f7ae59f062a6442aa9941bc9f418a14913434","548000","1665.6999999284744","77","1","swim","","","","",""
"dual-task","null","null","null","","swim","swim","923.3999999761581","","H","null","77","77","1","swim-dual-task","","H","uppercase","560000","0","4","11a7990d387305831ab91b109d1f7ae59f062a6442aa9941bc9f418a14913434","560000.2000000477","923.3999999761581","77","1","swim","","","","",""
"dual-task","null","null","null","","swim","swim","1659.5999999046326","","n","null","88","88","1","swim-dual-task","","n","lowercase","570000","0","4","11a7990d387305831ab91b109d1f7ae59f062a6442aa9941bc9f418a14913434","570000.6000000238","1659.5999999046326","88","1","swim","","","","",""
"dual-task","null","null","null","","swim","swim","1691.7999999523163","","b","null","88","88","1","swim-dual-task","","b","lowercase","576000","0","4","11a7990d387305831ab91b109d1f7ae59f062a6442aa9941bc9f418a14913434","576000.1000000238","1691.7999999523163","88","1","swim","","","","",""
"dual-task","null","null","null","","swim","swim","1028","","d","null","88","88","1","swim-dual-task","","d","lowercase","584000","0","4","11a7990d387305831ab91b109d1f7ae59f062a6442aa9941bc9f418a14913434","584000.3999999762","1028","88","1","swim","","","","",""
"dual-task","null","null","null","","swim","swim","484.6999999284744","","a","null","88","88","1","swim-dual-task","","a","lowercase","596000","0","4","11a7990d387305831ab91b109d1f7ae59f062a6442aa9941bc9f418a14913434","596000.6000000238","484.6999999284744","88","1","swim","","","","",""
"dual-task","null","null","null","","swim","swim","628.0999999046326","","q","null","88","88","1","swim-dual-task","","q","lowercase","608000","0","4","11a7990d387305831ab91b109d1f7ae59f062a6442aa9941bc9f418a14913434","608001.7000000477","628.0999999046326","88","1","swim","","","","",""
"dual-task","null","null","null","","swim","swim","1133.7999999523163","","F","null","77","77","1","swim-dual-task","","F","uppercase","618000","0","4","11a7990d387305831ab91b109d1f7ae59f062a6442aa9941bc9f418a14913434","618000.6000000238","1133.7999999523163","77","1","swim","","","","",""
"dual-task","null","null","null","","swim","swim","1156.7000000476837","","R","null","77","77","1","swim-dual-task","","R","uppercase","626000","0","4","11a7990d387305831ab91b109d1f7ae59f062a6442aa9941bc9f418a14913434","626001.3999999762","1156.7000000476837","77","1","swim","","","","",""
"dual-task","null","null","null","","swim","swim","949.6000000238419","","N","null","88","77","0","swim-dual-task","","N","uppercase","638000","0","4","11a7990d387305831ab91b109d1f7ae59f062a6442aa9941bc9f418a14913434","638000.5","949.6000000238419","88","0","swim","","","","",""
"dual-task","null","null","null","","swim","swim","645.6000000238419","","f","null","88","88","1","swim-dual-task","","f","lowercase","644000","0","4","11a7990d387305831ab91b109d1f7ae59f062a6442aa9941bc9f418a14913434","644000.8999999762","645.6000000238419","88","1","swim","","","","",""
"dual-task","null","null","null","","swim","swim","654.5","","r","null","88","88","1","swim-dual-task","","r","lowercase","658000","0","4","11a7990d387305831ab91b109d1f7ae59f062a6442aa9941bc9f418a14913434","658000.5","654.5","88","1","swim","","","","",""
"dual-task","null","null","null","","swim","swim","1534.2000000476837","","f","null","88","88","1","swim-dual-task","","f","lowercase","668000","0","4","11a7990d387305831ab91b109d1f7ae59f062a6442aa9941bc9f418a14913434","668000.8999999762","1534.2000000476837","88","1","swim","","","","",""
"dual-task","null","null","null","","swim","swim","910.6000000238419","","G","null","77","77","1","swim-dual-task","","G","uppercase","678000","0","4","11a7990d387305831ab91b109d1f7ae59f062a6442aa9941bc9f418a14913434","678001","910.6000000238419","77","1","swim","","","","",""
"dual-task","null","null","null","","swim","swim","1447.2999999523163","","F","null","77","77","1","swim-dual-task","","F","uppercase","686000","0","4","11a7990d387305831ab91b109d1f7ae59f062a6442aa9941bc9f418a14913434","686000.6000000238","1447.2999999523163","77","1","swim","","","","",""
"dual-task","null","null","null","","swim","swim","632.2999999523163","","G","null","77","77","1","swim-dual-task","","G","uppercase","698000","0","4","11a7990d387305831ab91b109d1f7ae59f062a6442aa9941bc9f418a14913434","698000.5","632.2999999523163","77","1","swim","","","","",""
"dual-task","null","null","null","","swim","swim","1288.3000000715256","","E","null","77","77","1","swim-dual-task","","E","uppercase","706000","0","4","11a7990d387305831ab91b109d1f7ae59f062a6442aa9941bc9f418a14913434","706000.7000000477","1288.3000000715256","77","1","swim","","","","",""
"dual-task","null","null","null","","swim","swim","688.2000000476837","","Q","null","77","77","1","swim-dual-task","","Q","uppercase","714000","0","4","11a7990d387305831ab91b109d1f7ae59f062a6442aa9941bc9f418a14913434","714009.2999999523","688.2000000476837","77","1","swim","","","","",""
"dual-task","null","null","null","","swim","swim","673.1000000238419","","B","null","77","77","1","swim-dual-task","","B","uppercase","728000","0","4","11a7990d387305831ab91b109d1f7ae59f062a6442aa9941bc9f418a14913434","728000.3999999762","673.1000000238419","77","1","swim","","","","",""
"dual-task","null","null","null","","swim","swim","568.0999999046326","","R","null","77","77","1","swim-dual-task","","R","uppercase","738000","0","4","11a7990d387305831ab91b109d1f7ae59f062a6442aa9941bc9f418a14913434","738001.6000000238","568.0999999046326","77","1","swim","","","","",""
"dual-task","null","null","null","","swim","swim","577.2999999523163","","Q","null","77","77","1","swim-dual-task","","Q","uppercase","750000","0","4","11a7990d387305831ab91b109d1f7ae59f062a6442aa9941bc9f418a14913434","750001.2000000477","577.2999999523163","77","1","swim","","","","",""
"dual-task","null","null","null","","swim","swim","761.5","","e","null","88","88","1","swim-dual-task","","e","lowercase","758000","0","4","11a7990d387305831ab91b109d1f7ae59f062a6442aa9941bc9f418a14913434","758000.8999999762","761.5","88","1","swim","","","","",""
"dual-task","null","null","null","","swim","swim","482.7000000476837","","q","null","88","88","1","swim-dual-task","","q","lowercase","764000","0","4","11a7990d387305831ab91b109d1f7ae59f062a6442aa9941bc9f418a14913434","764000.3999999762","482.7000000476837","88","1","swim","","","","",""
"dual-task","null","null","null","","swim","swim","851.1999999284744","","A","null","77","77","1","swim-dual-task","","A","uppercase","774000","0","4","11a7990d387305831ab91b109d1f7ae59f062a6442aa9941bc9f418a14913434","774001.2000000477","851.1999999284744","77","1","swim","","","","",""
"dual-task","null","null","null","","swim","swim","1792.6000000238419","","h","null","88","88","1","swim-dual-task","","h","lowercase","780000","0","4","11a7990d387305831ab91b109d1f7ae59f062a6442aa9941bc9f418a14913434","780001.3999999762","1792.6000000238419","88","1","swim","","","","",""
"dual-task","null","null","null","","swim","swim","NA","","D","null","NA","77","0","swim-dual-task","","D","uppercase","786000","1","4","11a7990d387305831ab91b109d1f7ae59f062a6442aa9941bc9f418a14913434","786001.1000000238","NA","NA","0","swim","","","","",""
"dual-task","null","null","null","","swim","swim","1082.0999999046326","","E","null","77","77","1","swim-dual-task","","E","uppercase","796000","0","4","11a7990d387305831ab91b109d1f7ae59f062a6442aa9941bc9f418a14913434","796001.6000000238","1082.0999999046326","77","1","swim","","","","",""
"audio-keyboard-response","29","905704","0.0-7.0-0.0-1.0","11a7990d387305831ab91b109d1f7ae59f062a6442aa9941bc9f418a14913434","swim","swim","null","","audio/story_swim_scrambled.mp3","","null","","","","","","","","","","","","","","","","","","","",""
"html-button-response","30","911191","0.0-7.0-0.0-2.0","11a7990d387305831ab91b109d1f7ae59f062a6442aa9941bc9f418a14913434","swim","swim","5457","","<p>This concludes the story. Thank you for listening.</p><p>You will now answer some questions about the content of the story.</p>","0","","","","","","","","","","","","","","","","","","","","",""
"survey-multi-choice","31","924519","0.0-7.0-0.0-3.0-0.0","11a7990d387305831ab91b109d1f7ae59f062a6442aa9941bc9f418a14913434","swim","swim","13325","","<b>What was the final step of the first swim test in the pool?</b>","","","","1","swim-comprehension","","","","","","","","","","","","","{""Q0"":""Tread water with hands above the water""}","","","",""
"survey-multi-choice","32","932943","0.0-7.0-0.0-3.0-0.1","11a7990d387305831ab91b109d1f7ae59f062a6442aa9941bc9f418a14913434","swim","swim","8169","","<b>What gave the narrator his greatest feeling of accomplishment?</b>","","","","1","swim-comprehension","","","","","","","","","","","","","{""Q0"":""Passing the water survival course""}","","","",""
"survey-multi-choice","33","991869","0.0-7.0-0.0-3.0-0.2","11a7990d387305831ab91b109d1f7ae59f062a6442aa9941bc9f418a14913434","swim","swim","58671","","<b>Where is the home of naval aviation?</b>","","","","1","swim-comprehension","","","","","","","","","","","","","{""Q0"":""Pensacola""}","","","",""
"survey-multi-choice","34","998109","0.0-7.0-0.0-3.0-0.3","11a7990d387305831ab91b109d1f7ae59f062a6442aa9941bc9f418a14913434","swim","swim","5987","","<b>How many times did the astronaut candidates have to complete the final exercise to pass?</b>","","","","0","swim-comprehension","","","","","","","","","","","","","{""Q0"":""One""}","","","",""
"survey-multi-choice","35","1007796","0.0-7.0-0.0-3.0-0.4","11a7990d387305831ab91b109d1f7ae59f062a6442aa9941bc9f418a14913434","swim","swim","9434","","<b>How often does the narrator swim, now that he is a good swimmer?</b>","","","","0","swim-comprehension","","","","","","","","","","","","","{""Q0"":""Every day at the local pool""}","","","",""
"survey-multi-choice","36","1015204","0.0-7.0-0.0-3.0-0.5","11a7990d387305831ab91b109d1f7ae59f062a6442aa9941bc9f418a14913434","swim","swim","7154","","<b>What were the astronaut candidates trained to do at the naval air station?</b>","","","","1","swim-comprehension","","","","","","","","","","","","","{""Q0"":""Eject out of aircraft and survive in water long enough to be rescued""}","","","",""
"survey-multi-choice","37","1020188","0.0-7.0-0.0-3.0-0.6","11a7990d387305831ab91b109d1f7ae59f062a6442aa9941bc9f418a14913434","swim","swim","4730","","<b>How did the narrator train for his swim test?</b>","","","","1","swim-comprehension","","","","","","","","","","","","","{""Q0"":""Took his kids to the pool every day""}","","","",""
"survey-multi-choice","38","1023596","0.0-7.0-0.0-3.0-0.7","11a7990d387305831ab91b109d1f7ae59f062a6442aa9941bc9f418a14913434","swim","swim","3154","","<b>What is the narrator afraid of, aside from the water?</b>","","","","1","swim-comprehension","","","","","","","","","","","","","{""Q0"":""Heights""}","","","",""
"survey-multi-choice","39","1034172","0.0-7.0-0.0-3.0-0.8","11a7990d387305831ab91b109d1f7ae59f062a6442aa9941bc9f418a14913434","swim","swim","10322","","<b>How many astronaut candidates reported for duty at the Johnson Space Center?</b>","","","","1","swim-comprehension","","","","","","","","","","","","","{""Q0"":""Forty-four""}","","","",""
"survey-multi-choice","40","1045956","0.0-7.0-0.0-3.0-0.9","11a7990d387305831ab91b109d1f7ae59f062a6442aa9941bc9f418a14913434","swim","swim","11528","","<b>How many astronaut candidates passed the first swim test?</b>","","","","1","swim-comprehension","","","","","","","","","","","","","{""Q0"":""All of them""}","","","",""
"html-button-response","41","1047875","0.0-7.0-0.0-4.0","11a7990d387305831ab91b109d1f7ae59f062a6442aa9941bc9f418a14913434","swim","swim","1666","","<p>Thank you for your responses.</p><p>You will now answer some questions about your impressions of the story.</p>","0","","","","","","","","","","","","","","","","","","","","",""
"html-button-response","42","1050778","0.0-7.0-0.0-5.0-0.0","11a7990d387305831ab91b109d1f7ae59f062a6442aa9941bc9f418a14913434","swim","swim","2902","","MS2","5","","","","swim-engagement","","","","","","","","","","","","","","6","mental-sim","",""
"html-button-response","43","1052482","0.0-7.0-0.0-5.0-0.1","11a7990d387305831ab91b109d1f7ae59f062a6442aa9941bc9f418a14913434","swim","swim","1452","","A2","6","","","","swim-engagement","","","","","","","","","","","","","","7","absorption","",""
"html-button-response","44","1054203","0.0-7.0-0.0-5.0-0.2","11a7990d387305831ab91b109d1f7ae59f062a6442aa9941bc9f418a14913434","swim","swim","1467","","E8","5","","","","swim-engagement","","","","","","","","","","","","","","6","enjoyment","",""
"html-button-response","45","1056938","0.0-7.0-0.0-5.0-0.3","11a7990d387305831ab91b109d1f7ae59f062a6442aa9941bc9f418a14913434","swim","swim","2482","","A5","5","","","","swim-engagement","","","","","","","","","","","","","","6","absorption","",""
"html-button-response","46","1058995","0.0-7.0-0.0-5.0-0.4","11a7990d387305831ab91b109d1f7ae59f062a6442aa9941bc9f418a14913434","swim","swim","1804","","EE1","6","","","","swim-engagement","","","","","","","","","","","","","","7","emo-engage","",""
"html-button-response","47","1061002","0.0-7.0-0.0-5.0-0.5","11a7990d387305831ab91b109d1f7ae59f062a6442aa9941bc9f418a14913434","swim","swim","1755","","E7","6","","","","swim-engagement","","","","","","","","","","","","","","7","enjoyment","",""
"html-button-response","48","1062874","0.0-7.0-0.0-5.0-0.6","11a7990d387305831ab91b109d1f7ae59f062a6442aa9941bc9f418a14913434","swim","swim","1620","","EE5","5","","","","swim-engagement","","","","","","","","","","","","","","6","emo-engage","",""
"html-button-response","49","1065539","0.0-7.0-0.0-5.0-0.7","11a7990d387305831ab91b109d1f7ae59f062a6442aa9941bc9f418a14913434","swim","swim","2413","","A4","4","","","","swim-engagement","","","","","","","","","","","","","","5","absorption","",""
"html-button-response","50","1067539","0.0-7.0-0.0-5.0-0.8","11a7990d387305831ab91b109d1f7ae59f062a6442aa9941bc9f418a14913434","swim","swim","1748","","MS1","5","","","","swim-engagement","","","","","","","","","","","","","","6","mental-sim","",""
"html-button-response","51","1070682","0.0-7.0-0.0-5.0-0.9","11a7990d387305831ab91b109d1f7ae59f062a6442aa9941bc9f418a14913434","swim","swim","2869","","A1","5","","","","swim-engagement","","","","","","","","","","","","","","6","absorption","",""
"html-button-response","52","1072346","0.0-7.0-0.0-5.0-0.10","11a7990d387305831ab91b109d1f7ae59f062a6442aa9941bc9f418a14913434","swim","swim","1411","","E10","6","","","","swim-engagement","","","","","","","","","","","","","","7","enjoyment","",""
"html-button-response","53","1074066","0.0-7.0-0.0-5.0-0.11","11a7990d387305831ab91b109d1f7ae59f062a6442aa9941bc9f418a14913434","swim","swim","1467","","EE2","6","","","","swim-engagement","","","","","","","","","","","","","","7","emo-engage","",""
"html-button-response","54","1075986","0.0-7.0-0.0-5.0-0.12","11a7990d387305831ab91b109d1f7ae59f062a6442aa9941bc9f418a14913434","swim","swim","1669","","EE4","5","","","","swim-engagement","","","","","","","","","","","","","","6","emo-engage","",""
"html-button-response","55","1078378","0.0-7.0-0.0-5.0-0.13","11a7990d387305831ab91b109d1f7ae59f062a6442aa9941bc9f418a14913434","swim","swim","2140","","EE3","5","","","","swim-engagement","","","","","","","","","","","","","","6","emo-engage","",""
"html-button-response","56","1080529","0.0-7.0-0.0-5.0-0.14","11a7990d387305831ab91b109d1f7ae59f062a6442aa9941bc9f418a14913434","swim","swim","1898","","E1","4","","","","swim-engagement","","","","","","","","","","","","","","5","enjoyment","",""
"html-button-response","57","1082522","0.0-7.0-0.0-5.0-0.15","11a7990d387305831ab91b109d1f7ae59f062a6442aa9941bc9f418a14913434","swim","swim","1741","","A3","5","","","","swim-engagement","","","","","","","","","","","","","","6","absorption","",""
"html-button-response","58","1084050","0.0-7.0-0.0-5.0-0.16","11a7990d387305831ab91b109d1f7ae59f062a6442aa9941bc9f418a14913434","swim","swim","1276","","E6","5","","","","swim-engagement","","","","","","","","","","","","","","6","enjoyment","",""
"html-button-response","59","1085961","0.0-7.0-0.0-5.0-0.17","11a7990d387305831ab91b109d1f7ae59f062a6442aa9941bc9f418a14913434","swim","swim","1660","","MS3","6","","","","swim-engagement","","","","","","","","","","","","","","7","mental-sim","",""
"html-keyboard-response","60","1392261","0.0-7.0-1.0","11a7990d387305831ab91b109d1f7ae59f062a6442aa9941bc9f418a14913434","swim","swim","306047","","<p>Thank you for your responses. You will now listen to the second story.</p><p>Remember, as you listen to the story you will see letters appear on the screen.</br>As quickly as possible, press <b>&lt;x&gt;</b> if the letter is lowercase and <b>&lt;m&gt;</b> if the letter is uppercase.</p><p>Press <b>&lt;x&gt;</b> or <b>&lt;m&gt;</b> to begin listening!</p>","","88","","","","","","","","","","","","","","","","","","","",""
"html-keyboard-response","61","1392763","0.0-7.0-2.0-0.0","11a7990d387305831ab91b109d1f7ae59f062a6442aa9941bc9f418a14913434","swim","swim","null","","<div style=""font-size:60px;"" tabindex=""0"">+</div>","","null","","","","","","","","","","","","","","","","","","","",""
"dual-task","null","null","null","","swim","swim","1111.1000000238419","","H","null","77","77","1","arctic-dual-task","","H","uppercase","16000","0","4","11a7990d387305831ab91b109d1f7ae59f062a6442aa9941bc9f418a14913434","16000.699999928474","1111.1000000238419","77","1","arctic","","","","",""
"dual-task","null","null","null","","swim","swim","1111.8999999761581","","e","null","88","88","1","arctic-dual-task","","e","lowercase","22000","0","4","11a7990d387305831ab91b109d1f7ae59f062a6442aa9941bc9f418a14913434","22000.899999976158","1111.8999999761581","88","1","arctic","","","","",""
"dual-task","null","null","null","","swim","swim","1240.5","","b","null","88","88","1","arctic-dual-task","","b","lowercase","30000","0","4","11a7990d387305831ab91b109d1f7ae59f062a6442aa9941bc9f418a14913434","30000.199999928474","1240.5","88","1","arctic","","","","",""
"dual-task","null","null","null","","swim","swim","1112","","r","null","88","88","1","arctic-dual-task","","r","lowercase","40000","0","4","11a7990d387305831ab91b109d1f7ae59f062a6442aa9941bc9f418a14913434","40000.799999952316","1112","88","1","arctic","","","","",""
"dual-task","null","null","null","","swim","swim","593.5","","a","null","88","88","1","arctic-dual-task","","a","lowercase","52000","0","4","11a7990d387305831ab91b109d1f7ae59f062a6442aa9941bc9f418a14913434","51999.89999997616","593.5","88","1","arctic","","","","",""
"dual-task","null","null","null","","swim","swim","738.2000000476837","","d","null","88","88","1","arctic-dual-task","","d","lowercase","60000","0","4","11a7990d387305831ab91b109d1f7ae59f062a6442aa9941bc9f418a14913434","60000.39999997616","738.2000000476837","88","1","arctic","","","","",""
"dual-task","null","null","null","","swim","swim","1105.5999999046326","","Q","null","77","77","1","arctic-dual-task","","Q","uppercase","66000","0","4","11a7990d387305831ab91b109d1f7ae59f062a6442aa9941bc9f418a14913434","66000","1105.5999999046326","77","1","arctic","","","","",""
"dual-task","null","null","null","","swim","swim","1209.7999999523163","","B","null","77","77","1","arctic-dual-task","","B","uppercase","74000","0","4","11a7990d387305831ab91b109d1f7ae59f062a6442aa9941bc9f418a14913434","73999.89999997616","1209.7999999523163","77","1","arctic","","","","",""
"dual-task","null","null","null","","swim","swim","1497.7999999523163","","f","null","88","88","1","arctic-dual-task","","f","lowercase","80000","0","4","11a7990d387305831ab91b109d1f7ae59f062a6442aa9941bc9f418a14913434","80000.19999992847","1497.7999999523163","88","1","arctic","","","","",""
"dual-task","null","null","null","","swim","swim","1594.3000000715256","","F","null","77","77","1","arctic-dual-task","","F","uppercase","94000","0","4","11a7990d387305831ab91b109d1f7ae59f062a6442aa9941bc9f418a14913434","94000.19999992847","1594.3000000715256","77","1","arctic","","","","",""
"dual-task","null","null","null","","swim","swim","1034.3999999761581","","B","null","77","77","1","arctic-dual-task","","B","uppercase","106000","0","4","11a7990d387305831ab91b109d1f7ae59f062a6442aa9941bc9f418a14913434","106000.39999997616","1034.3999999761581","77","1","arctic","","","","",""
"dual-task","null","null","null","","swim","swim","NA","","b","null","NA","88","0","arctic-dual-task","","b","lowercase","118000","1","4","11a7990d387305831ab91b109d1f7ae59f062a6442aa9941bc9f418a14913434","117999.89999997616","NA","NA","0","arctic","","","","",""
"dual-task","null","null","null","","swim","swim","1378.6999999284744","","A","null","77","77","1","arctic-dual-task","","A","uppercase","130000","0","4","11a7990d387305831ab91b109d1f7ae59f062a6442aa9941bc9f418a14913434","130000.89999997616","1378.6999999284744","77","1","arctic","","","","",""
"dual-task","null","null","null","","swim","swim","676","","N","null","77","77","1","arctic-dual-task","","N","uppercase","142000","0","4","11a7990d387305831ab91b109d1f7ae59f062a6442aa9941bc9f418a14913434","142000.09999990463","676","77","1","arctic","","","","",""
"dual-task","null","null","null","","swim","swim","764.1999999284744","","n","null","88","88","1","arctic-dual-task","","n","lowercase","156000","0","4","11a7990d387305831ab91b109d1f7ae59f062a6442aa9941bc9f418a14913434","156000.5","764.1999999284744","88","1","arctic","","","","",""
"dual-task","null","null","null","","swim","swim","1636.8999999761581","","e","null","88","88","1","arctic-dual-task","","e","lowercase","162000","0","4","11a7990d387305831ab91b109d1f7ae59f062a6442aa9941bc9f418a14913434","161999.79999995232","1636.8999999761581","88","1","arctic","","","","",""
"dual-task","null","null","null","","swim","swim","788.5","","n","null","88","88","1","arctic-dual-task","","n","lowercase","176000","0","4","11a7990d387305831ab91b109d1f7ae59f062a6442aa9941bc9f418a14913434","176000.69999992847","788.5","88","1","arctic","","","","",""
"dual-task","null","null","null","","swim","swim","837.2000000476837","","D","null","77","77","1","arctic-dual-task","","D","uppercase","184000","0","4","11a7990d387305831ab91b109d1f7ae59f062a6442aa9941bc9f418a14913434","184000.59999990463","837.2000000476837","77","1","arctic","","","","",""
"dual-task","null","null","null","","swim","swim","934.1000000238419","","g","null","88","88","1","arctic-dual-task","","g","lowercase","192000","0","4","11a7990d387305831ab91b109d1f7ae59f062a6442aa9941bc9f418a14913434","191999.89999997616","934.1000000238419","88","1","arctic","","","","",""
"dual-task","null","null","null","","swim","swim","949.7000000476837","","R","null","77","77","1","arctic-dual-task","","R","uppercase","206000","0","4","11a7990d387305831ab91b109d1f7ae59f062a6442aa9941bc9f418a14913434","206000.39999997616","949.7000000476837","77","1","arctic","","","","",""
"dual-task","null","null","null","","swim","swim","630.6999999284744","","H","null","77","77","1","arctic-dual-task","","H","uppercase","216000","0","4","11a7990d387305831ab91b109d1f7ae59f062a6442aa9941bc9f418a14913434","215999.89999997616","630.6999999284744","77","1","arctic","","","","",""
"dual-task","null","null","null","","swim","swim","1710.1000000238419","","d","null","88","88","1","arctic-dual-task","","d","lowercase","226000","0","4","11a7990d387305831ab91b109d1f7ae59f062a6442aa9941bc9f418a14913434","226000.69999992847","1710.1000000238419","88","1","arctic","","","","",""
"dual-task","null","null","null","","swim","swim","1976","","T","null","77","77","1","arctic-dual-task","","T","uppercase","238000","0","4","11a7990d387305831ab91b109d1f7ae59f062a6442aa9941bc9f418a14913434","237999.5","1976","77","1","arctic","","","","",""
"dual-task","null","null","null","","swim","swim","760.2000000476837","","t","null","88","88","1","arctic-dual-task","","t","lowercase","252000","0","4","11a7990d387305831ab91b109d1f7ae59f062a6442aa9941bc9f418a14913434","252000.09999990463","760.2000000476837","88","1","arctic","","","","",""
"dual-task","null","null","null","","swim","swim","1088.5","","q","null","88","88","1","arctic-dual-task","","q","lowercase","262000","0","4","11a7990d387305831ab91b109d1f7ae59f062a6442aa9941bc9f418a14913434","262000","1088.5","88","1","arctic","","","","",""
"dual-task","null","null","null","","swim","swim","1200.5","","B","null","77","77","1","arctic-dual-task","","B","uppercase","272000","0","4","11a7990d387305831ab91b109d1f7ae59f062a6442aa9941bc9f418a14913434","272000.09999990463","1200.5","77","1","arctic","","","","",""
"dual-task","null","null","null","","swim","swim","873.6000000238419","","g","null","88","88","1","arctic-dual-task","","g","lowercase","280000","0","4","11a7990d387305831ab91b109d1f7ae59f062a6442aa9941bc9f418a14913434","279999.59999990463","873.6000000238419","88","1","arctic","","","","",""
"dual-task","null","null","null","","swim","swim","865.7999999523163","","T","null","77","77","1","arctic-dual-task","","T","uppercase","288000","0","4","11a7990d387305831ab91b109d1f7ae59f062a6442aa9941bc9f418a14913434","288000.89999997616","865.7999999523163","77","1","arctic","","","","",""
"dual-task","null","null","null","","swim","swim","1305.3999999761581","","q","null","88","88","1","arctic-dual-task","","q","lowercase","294000","0","4","11a7990d387305831ab91b109d1f7ae59f062a6442aa9941bc9f418a14913434","294000","1305.3999999761581","88","1","arctic","","","","",""
"dual-task","null","null","null","","swim","swim","857.5","","N","null","77","77","1","arctic-dual-task","","N","uppercase","302000","0","4","11a7990d387305831ab91b109d1f7ae59f062a6442aa9941bc9f418a14913434","302000.09999990463","857.5","77","1","arctic","","","","",""
"dual-task","null","null","null","","swim","swim","1443.3999999761581","","R","null","77","77","1","arctic-dual-task","","R","uppercase","308000","0","4","11a7990d387305831ab91b109d1f7ae59f062a6442aa9941bc9f418a14913434","308038.09999990463","1443.3999999761581","77","1","arctic","","","","",""
"dual-task","null","null","null","","swim","swim","1050.5","","G","null","77","77","1","arctic-dual-task","","G","uppercase","318000","0","4","11a7990d387305831ab91b109d1f7ae59f062a6442aa9941bc9f418a14913434","317999.6999999285","1050.5","77","1","arctic","","","","",""
"dual-task","null","null","null","","swim","swim","1026.2000000476837","","E","null","77","77","1","arctic-dual-task","","E","uppercase","324000","0","4","11a7990d387305831ab91b109d1f7ae59f062a6442aa9941bc9f418a14913434","324000.09999990463","1026.2000000476837","77","1","arctic","","","","",""
"dual-task","null","null","null","","swim","swim","554.8999999761581","","B","null","77","77","1","arctic-dual-task","","B","uppercase","330000","0","4","11a7990d387305831ab91b109d1f7ae59f062a6442aa9941bc9f418a14913434","330000.2999999523","554.8999999761581","77","1","arctic","","","","",""
"dual-task","null","null","null","","swim","swim","827.5","","r","null","88","88","1","arctic-dual-task","","r","lowercase","338000","0","4","11a7990d387305831ab91b109d1f7ae59f062a6442aa9941bc9f418a14913434","338000.59999990463","827.5","88","1","arctic","","","","",""
"dual-task","null","null","null","","swim","swim","746.0999999046326","","a","null","88","88","1","arctic-dual-task","","a","lowercase","348000","0","4","11a7990d387305831ab91b109d1f7ae59f062a6442aa9941bc9f418a14913434","348001","746.0999999046326","88","1","arctic","","","","",""
"dual-task","null","null","null","","swim","swim","836.1000000238419","","r","null","88","88","1","arctic-dual-task","","r","lowercase","362000","0","4","11a7990d387305831ab91b109d1f7ae59f062a6442aa9941bc9f418a14913434","361999.7999999523","836.1000000238419","88","1","arctic","","","","",""
"dual-task","null","null","null","","swim","swim","971.0999999046326","","f","null","88","88","1","arctic-dual-task","","f","lowercase","374000","0","4","11a7990d387305831ab91b109d1f7ae59f062a6442aa9941bc9f418a14913434","374000.89999997616","971.0999999046326","88","1","arctic","","","","",""
"dual-task","null","null","null","","swim","swim","940.8999999761581","","H","null","77","77","1","arctic-dual-task","","H","uppercase","384000","0","4","11a7990d387305831ab91b109d1f7ae59f062a6442aa9941bc9f418a14913434","384000.2999999523","940.8999999761581","77","1","arctic","","","","",""
"dual-task","null","null","null","","swim","swim","1148.7999999523163","","A","null","88","77","0","arctic-dual-task","","A","uppercase","390000","0","4","11a7990d387305831ab91b109d1f7ae59f062a6442aa9941bc9f418a14913434","389999.6999999285","1148.7999999523163","88","0","arctic","","","","",""
"dual-task","null","null","null","","swim","swim","916.2999999523163","","N","null","77","77","1","arctic-dual-task","","N","uppercase","402000","0","4","11a7990d387305831ab91b109d1f7ae59f062a6442aa9941bc9f418a14913434","402000.6999999285","916.2999999523163","77","1","arctic","","","","",""
"dual-task","null","null","null","","swim","swim","1192.6000000238419","","g","null","88","88","1","arctic-dual-task","","g","lowercase","410000","0","4","11a7990d387305831ab91b109d1f7ae59f062a6442aa9941bc9f418a14913434","409999.7999999523","1192.6000000238419","88","1","arctic","","","","",""
"dual-task","null","null","null","","swim","swim","812.5","","E","null","77","77","1","arctic-dual-task","","E","uppercase","416000","0","4","11a7990d387305831ab91b109d1f7ae59f062a6442aa9941bc9f418a14913434","416000.7999999523","812.5","77","1","arctic","","","","",""
"dual-task","null","null","null","","swim","swim","1260.8999999761581","","n","null","88","88","1","arctic-dual-task","","n","lowercase","426000","0","4","11a7990d387305831ab91b109d1f7ae59f062a6442aa9941bc9f418a14913434","426000.6999999285","1260.8999999761581","88","1","arctic","","","","",""
"dual-task","null","null","null","","swim","swim","1093.5","","t","null","88","88","1","arctic-dual-task","","t","lowercase","434000","0","4","11a7990d387305831ab91b109d1f7ae59f062a6442aa9941bc9f418a14913434","434000.6999999285","1093.5","88","1","arctic","","","","",""
"dual-task","null","null","null","","swim","swim","1157.1000000238419","","b","null","88","88","1","arctic-dual-task","","b","lowercase","444000","0","4","11a7990d387305831ab91b109d1f7ae59f062a6442aa9941bc9f418a14913434","444001","1157.1000000238419","88","1","arctic","","","","",""
"dual-task","null","null","null","","swim","swim","1197.7000000476837","","e","null","88","88","1","arctic-dual-task","","e","lowercase","458000","0","4","11a7990d387305831ab91b109d1f7ae59f062a6442aa9941bc9f418a14913434","458001.09999990463","1197.7000000476837","88","1","arctic","","","","",""
"dual-task","null","null","null","","swim","swim","1085.8999999761581","","E","null","77","77","1","arctic-dual-task","","E","uppercase","466000","0","4","11a7990d387305831ab91b109d1f7ae59f062a6442aa9941bc9f418a14913434","466001.2999999523","1085.8999999761581","77","1","arctic","","","","",""
"dual-task","null","null","null","","swim","swim","975.4000000953674","","T","null","77","77","1","arctic-dual-task","","T","uppercase","478000","0","4","11a7990d387305831ab91b109d1f7ae59f062a6442aa9941bc9f418a14913434","478000.09999990463","975.4000000953674","77","1","arctic","","","","",""
"dual-task","null","null","null","","swim","swim","855.3000000715256","","E","null","77","77","1","arctic-dual-task","","E","uppercase","492000","0","4","11a7990d387305831ab91b109d1f7ae59f062a6442aa9941bc9f418a14913434","492000.6999999285","855.3000000715256","77","1","arctic","","","","",""
"dual-task","null","null","null","","swim","swim","935.6999999284744","","T","null","77","77","1","arctic-dual-task","","T","uppercase","506000","0","4","11a7990d387305831ab91b109d1f7ae59f062a6442aa9941bc9f418a14913434","506001","935.6999999284744","77","1","arctic","","","","",""
"dual-task","null","null","null","","swim","swim","623.7999999523163","","D","null","77","77","1","arctic-dual-task","","D","uppercase","520000","0","4","11a7990d387305831ab91b109d1f7ae59f062a6442aa9941bc9f418a14913434","520001.39999997616","623.7999999523163","77","1","arctic","","","","",""
"dual-task","null","null","null","","swim","swim","1721","","e","null","88","88","1","arctic-dual-task","","e","lowercase","532000","0","4","11a7990d387305831ab91b109d1f7ae59f062a6442aa9941bc9f418a14913434","532000.2999999523","1721","88","1","arctic","","","","",""
"dual-task","null","null","null","","swim","swim","1001.2999999523163","","A","null","77","77","1","arctic-dual-task","","A","uppercase","544000","0","4","11a7990d387305831ab91b109d1f7ae59f062a6442aa9941bc9f418a14913434","544001.8999999762","1001.2999999523163","77","1","arctic","","","","",""
"dual-task","null","null","null","","swim","swim","1048.2000000476837","","h","null","88","88","1","arctic-dual-task","","h","lowercase","550000","0","4","11a7990d387305831ab91b109d1f7ae59f062a6442aa9941bc9f418a14913434","550001.6999999285","1048.2000000476837","88","1","arctic","","","","",""
"dual-task","null","null","null","","swim","swim","993.7000000476837","","Q","null","77","77","1","arctic-dual-task","","Q","uppercase","558000","0","4","11a7990d387305831ab91b109d1f7ae59f062a6442aa9941bc9f418a14913434","558000.5","993.7000000476837","77","1","arctic","","","","",""
"dual-task","null","null","null","","swim","swim","1090.5999999046326","","a","null","88","88","1","arctic-dual-task","","a","lowercase","566000","0","4","11a7990d387305831ab91b109d1f7ae59f062a6442aa9941bc9f418a14913434","566000","1090.5999999046326","88","1","arctic","","","","",""
"dual-task","null","null","null","","swim","swim","754","","A","null","77","77","1","arctic-dual-task","","A","uppercase","580000","0","4","11a7990d387305831ab91b109d1f7ae59f062a6442aa9941bc9f418a14913434","580000.8999999762","754","77","1","arctic","","","","",""
"dual-task","null","null","null","","swim","swim","1514.1999999284744","","f","null","88","88","1","arctic-dual-task","","f","lowercase","588000","0","4","11a7990d387305831ab91b109d1f7ae59f062a6442aa9941bc9f418a14913434","588000.8999999762","1514.1999999284744","88","1","arctic","","","","",""
"dual-task","null","null","null","","swim","swim","1121.7999999523163","","h","null","88","88","1","arctic-dual-task","","h","lowercase","598000","0","4","11a7990d387305831ab91b109d1f7ae59f062a6442aa9941bc9f418a14913434","598001.6999999285","1121.7999999523163","88","1","arctic","","","","",""
"dual-task","null","null","null","","swim","swim","1019.3999999761581","","a","null","88","88","1","arctic-dual-task","","a","lowercase","606000","0","4","11a7990d387305831ab91b109d1f7ae59f062a6442aa9941bc9f418a14913434","606008.3999999762","1019.3999999761581","88","1","arctic","","","","",""
"dual-task","null","null","null","","swim","swim","1309","","Q","null","77","77","1","arctic-dual-task","","Q","uppercase","616000","0","4","11a7990d387305831ab91b109d1f7ae59f062a6442aa9941bc9f418a14913434","616000","1309","77","1","arctic","","","","",""
"dual-task","null","null","null","","swim","swim","876","","t","null","88","88","1","arctic-dual-task","","t","lowercase","630000","0","4","11a7990d387305831ab91b109d1f7ae59f062a6442aa9941bc9f418a14913434","630000.5","876","88","1","arctic","","","","",""
"dual-task","null","null","null","","swim","swim","1020.3999999761581","","F","null","77","77","1","arctic-dual-task","","F","uppercase","640000","0","4","11a7990d387305831ab91b109d1f7ae59f062a6442aa9941bc9f418a14913434","640000.7999999523","1020.3999999761581","77","1","arctic","","","","",""
"dual-task","null","null","null","","swim","swim","661.3999999761581","","d","null","88","88","1","arctic-dual-task","","d","lowercase","652000","0","4","11a7990d387305831ab91b109d1f7ae59f062a6442aa9941bc9f418a14913434","652000.8999999762","661.3999999761581","88","1","arctic","","","","",""
"dual-task","null","null","null","","swim","swim","893.1000000238419","","G","null","77","77","1","arctic-dual-task","","G","uppercase","666000","0","4","11a7990d387305831ab91b109d1f7ae59f062a6442aa9941bc9f418a14913434","666001.1999999285","893.1000000238419","77","1","arctic","","","","",""
"dual-task","null","null","null","","swim","swim","837.7000000476837","","N","null","77","77","1","arctic-dual-task","","N","uppercase","676000","0","4","11a7990d387305831ab91b109d1f7ae59f062a6442aa9941bc9f418a14913434","676001.0999999046","837.7000000476837","77","1","arctic","","","","",""
"dual-task","null","null","null","","swim","swim","1111.6000000238419","","h","null","88","88","1","arctic-dual-task","","h","lowercase","684000","0","4","11a7990d387305831ab91b109d1f7ae59f062a6442aa9941bc9f418a14913434","684001.1999999285","1111.6000000238419","88","1","arctic","","","","",""
"dual-task","null","null","null","","swim","swim","726.2000000476837","","F","null","77","77","1","arctic-dual-task","","F","uppercase","694000","0","4","11a7990d387305831ab91b109d1f7ae59f062a6442aa9941bc9f418a14913434","694000.5999999046","726.2000000476837","77","1","arctic","","","","",""
"dual-task","null","null","null","","swim","swim","646.6000000238419","","f","null","88","88","1","arctic-dual-task","","f","lowercase","706000","0","4","11a7990d387305831ab91b109d1f7ae59f062a6442aa9941bc9f418a14913434","706001.0999999046","646.6000000238419","88","1","arctic","","","","",""
"dual-task","null","null","null","","swim","swim","638.8999999761581","","d","null","88","88","1","arctic-dual-task","","d","lowercase","714000","0","4","11a7990d387305831ab91b109d1f7ae59f062a6442aa9941bc9f418a14913434","714000.7999999523","638.8999999761581","88","1","arctic","","","","",""
"dual-task","null","null","null","","swim","swim","1213.8999999761581","","R","null","77","77","1","arctic-dual-task","","R","uppercase","728000","0","4","11a7990d387305831ab91b109d1f7ae59f062a6442aa9941bc9f418a14913434","728001.8999999762","1213.8999999761581","77","1","arctic","","","","",""
"dual-task","null","null","null","","swim","swim","NA","","t","null","NA","88","0","arctic-dual-task","","t","lowercase","742000","1","4","11a7990d387305831ab91b109d1f7ae59f062a6442aa9941bc9f418a14913434","742001.2999999523","NA","NA","0","arctic","","","","",""
"dual-task","null","null","null","","swim","swim","1343.1000000238419","","q","null","88","88","1","arctic-dual-task","","q","lowercase","756000","0","4","11a7990d387305831ab91b109d1f7ae59f062a6442aa9941bc9f418a14913434","756001.6999999285","1343.1000000238419","88","1","arctic","","","","",""
"dual-task","null","null","null","","swim","swim","NA","","D","null","NA","77","0","arctic-dual-task","","D","uppercase","762000","1","4","11a7990d387305831ab91b109d1f7ae59f062a6442aa9941bc9f418a14913434","762015.0999999046","NA","NA","0","arctic","","","","",""
"dual-task","null","null","null","","swim","swim","1104.4000000953674","","F","null","77","77","1","arctic-dual-task","","F","uppercase","770000","0","4","11a7990d387305831ab91b109d1f7ae59f062a6442aa9941bc9f418a14913434","770001","1104.4000000953674","77","1","arctic","","","","",""
"dual-task","null","null","null","","swim","swim","1153","","h","null","88","88","1","arctic-dual-task","","h","lowercase","776000","0","4","11a7990d387305831ab91b109d1f7ae59f062a6442aa9941bc9f418a14913434","776000.5","1153","88","1","arctic","","","","",""
"dual-task","null","null","null","","swim","swim","840.2999999523163","","Q","null","77","77","1","arctic-dual-task","","Q","uppercase","784000","0","4","11a7990d387305831ab91b109d1f7ae59f062a6442aa9941bc9f418a14913434","784001.3999999762","840.2999999523163","77","1","arctic","","","","",""
"audio-keyboard-response","62","2193768","0.0-7.0-2.0-1.0","11a7990d387305831ab91b109d1f7ae59f062a6442aa9941bc9f418a14913434","swim","swim","null","","audio/story_arctic.mp3","","null","","","","","","","","","","","","","","","","","","","",""
"html-button-response","63","2213305","0.0-7.0-2.0-2.0","11a7990d387305831ab91b109d1f7ae59f062a6442aa9941bc9f418a14913434","swim","swim","19536","","<p>This concludes the story. Thank you for listening.</p><p>You will now answer some questions about the content of the story.</p>","0","","","","","","","","","","","","","","","","","","","","",""
"survey-multi-choice","64","2217538","0.0-7.0-2.0-3.0-0.0","11a7990d387305831ab91b109d1f7ae59f062a6442aa9941bc9f418a14913434","swim","swim","4228","","<b>What is the name of the narrator&#39;s neighbour?</b>","","","","1","arctic-comprehension","","","","","","","","","","","","","{""Q0"":""Dave""}","","","",""
"survey-multi-choice","65","2223753","0.0-7.0-2.0-3.0-0.1","11a7990d387305831ab91b109d1f7ae59f062a6442aa9941bc9f418a14913434","swim","swim","5959","","<b>How did the narrator prepare for her expedition?</b>","","","","1","arctic-comprehension","","","","","","","","","","","","","{""Q0"":""Trained in Alaska learning how to dogsled""}","","","",""
"survey-multi-choice","66","2230225","0.0-7.0-2.0-3.0-0.2","11a7990d387305831ab91b109d1f7ae59f062a6442aa9941bc9f418a14913434","swim","swim","6212","","<b>How many sponsorships did the narrator receive to support her expedition?</b>","","","","1","arctic-comprehension","","","","","","","","","","","","","{""Q0"":""None""}","","","",""
"survey-multi-choice","67","2240177","0.0-7.0-2.0-3.0-0.3","11a7990d387305831ab91b109d1f7ae59f062a6442aa9941bc9f418a14913434","swim","swim","9695","","<b>What was the objective of the narrator&#39;s expedition?</b>","","","","1","arctic-comprehension","","","","","","","","","","","","","{""Q0"":""Dogsled across Arctic America""}","","","",""
"survey-multi-choice","68","2245008","0.0-7.0-2.0-3.0-0.4","11a7990d387305831ab91b109d1f7ae59f062a6442aa9941bc9f418a14913434","swim","swim","4575","","<b>How did the narrator&#39;s encounter with the polar bears end?</b>","","","","1","arctic-comprehension","","","","","","","","","","","","","{""Q0"":""The bears walked back to their den.""}","","","",""
"survey-multi-choice","69","2250233","0.0-7.0-2.0-3.0-0.5","11a7990d387305831ab91b109d1f7ae59f062a6442aa9941bc9f418a14913434","swim","swim","4968","","<b>How did the narrator&#39;s neighbour respond when she told him about her expedition?</b>","","","","1","arctic-comprehension","","","","","","","","","","","","","{""Q0"":""He said she was going to fail.""}","","","",""
"survey-multi-choice","70","2255217","0.0-7.0-2.0-3.0-0.6","11a7990d387305831ab91b109d1f7ae59f062a6442aa9941bc9f418a14913434","swim","swim","4727","","<b>How did the dogs respond when they saw the bears?</b>","","","","1","arctic-comprehension","","","","","","","","","","","","","{""Q0"":""Approached them""}","","","",""
"survey-multi-choice","71","2262361","0.0-7.0-2.0-3.0-0.7","11a7990d387305831ab91b109d1f7ae59f062a6442aa9941bc9f418a14913434","swim","swim","6888","","<b>What did the narrator do for leisure while in her tent?</b>","","","","1","arctic-comprehension","","","","","","","","","","","","","{""Q0"":""Read""}","","","",""
"survey-multi-choice","72","2269137","0.0-7.0-2.0-3.0-0.8","11a7990d387305831ab91b109d1f7ae59f062a6442aa9941bc9f418a14913434","swim","swim","6521","","<b>Which dog on the narrator&#39;s dog team never followed instructions?</b>","","","","1","arctic-comprehension","","","","","","","","","","","","","{""Q0"":""Robert""}","","","",""
"survey-multi-choice","73","2275896","0.0-7.0-2.0-3.0-0.9","11a7990d387305831ab91b109d1f7ae59f062a6442aa9941bc9f418a14913434","swim","swim","6506","","<b>What were the weather conditions in the Arctic like the winter of the narrator&#39;s expedition?</b>","","","","0","arctic-comprehension","","","","","","","","","","","","","{""Q0"":""It was the coldest winter in recorded history.""}","","","",""
"html-button-response","74","2277317","0.0-7.0-2.0-4.0","11a7990d387305831ab91b109d1f7ae59f062a6442aa9941bc9f418a14913434","swim","swim","1168","","<p>Thank you for your responses.</p><p>You will now answer some questions about your impressions of the story.</p>","0","","","","","","","","","","","","","","","","","","","","",""
"html-button-response","75","2278760","0.0-7.0-2.0-5.0-0.0","11a7990d387305831ab91b109d1f7ae59f062a6442aa9941bc9f418a14913434","swim","swim","1441","","E8","6","","","","arctic-engagement","","","","","","","","","","","","","","7","enjoyment","",""
"html-button-response","76","2279904","0.0-7.0-2.0-5.0-0.1","11a7990d387305831ab91b109d1f7ae59f062a6442aa9941bc9f418a14913434","swim","swim","892","","E6","6","","","","arctic-engagement","","","","","","","","","","","","","","7","enjoyment","",""
"html-button-response","77","2281352","0.0-7.0-2.0-5.0-0.2","11a7990d387305831ab91b109d1f7ae59f062a6442aa9941bc9f418a14913434","swim","swim","1196","","A4","6","","","","arctic-engagement","","","","","","","","","","","","","","7","absorption","",""
"html-button-response","78","2282840","0.0-7.0-2.0-5.0-0.3","11a7990d387305831ab91b109d1f7ae59f062a6442aa9941bc9f418a14913434","swim","swim","1235","","MS2","6","","","","arctic-engagement","","","","","","","","","","","","","","7","mental-sim","",""
"html-button-response","79","2284184","0.0-7.0-2.0-5.0-0.4","11a7990d387305831ab91b109d1f7ae59f062a6442aa9941bc9f418a14913434","swim","swim","1092","","E7","6","","","","arctic-engagement","","","","","","","","","","","","","","7","enjoyment","",""
"html-button-response","80","2287832","0.0-7.0-2.0-5.0-0.5","11a7990d387305831ab91b109d1f7ae59f062a6442aa9941bc9f418a14913434","swim","swim","3395","","MS1","5","","","","arctic-engagement","","","","","","","","","","","","","","6","mental-sim","",""
"html-button-response","81","2289248","0.0-7.0-2.0-5.0-0.6","11a7990d387305831ab91b109d1f7ae59f062a6442aa9941bc9f418a14913434","swim","swim","1163","","A2","6","","","","arctic-engagement","","","","","","","","","","","","","","7","absorption","",""
"html-button-response","82","2290464","0.0-7.0-2.0-5.0-0.7","11a7990d387305831ab91b109d1f7ae59f062a6442aa9941bc9f418a14913434","swim","swim","964","","E10","6","","","","arctic-engagement","","","","","","","","","","","","","","7","enjoyment","",""
"html-button-response","83","2292856","0.0-7.0-2.0-5.0-0.8","11a7990d387305831ab91b109d1f7ae59f062a6442aa9941bc9f418a14913434","swim","swim","2140","","EE2","6","","","","arctic-engagement","","","","","","","","","","","","","","7","emo-engage","",""
"html-button-response","84","2294207","0.0-7.0-2.0-5.0-0.9","11a7990d387305831ab91b109d1f7ae59f062a6442aa9941bc9f418a14913434","swim","swim","1099","","EE5","6","","","","arctic-engagement","","","","","","","","","","","","","","7","emo-engage","",""
"html-button-response","85","2295633","0.0-7.0-2.0-5.0-0.10","11a7990d387305831ab91b109d1f7ae59f062a6442aa9941bc9f418a14913434","swim","swim","1172","","EE3","6","","","","arctic-engagement","","","","","","","","","","","","","","7","emo-engage","",""
"html-button-response","86","2298080","0.0-7.0-2.0-5.0-0.11","11a7990d387305831ab91b109d1f7ae59f062a6442aa9941bc9f418a14913434","swim","swim","2195","","EE4","5","","","","arctic-engagement","","","","","","","","","","","","","","6","emo-engage","",""
"html-button-response","87","2300288","0.0-7.0-2.0-5.0-0.12","11a7990d387305831ab91b109d1f7ae59f062a6442aa9941bc9f418a14913434","swim","swim","1956","","A5","6","","","","arctic-engagement","","","","","","","","","","","","","","7","absorption","",""
"html-button-response","88","2301512","0.0-7.0-2.0-5.0-0.13","11a7990d387305831ab91b109d1f7ae59f062a6442aa9941bc9f418a14913434","swim","swim","972","","A3","6","","","","arctic-engagement","","","","","","","","","","","","","","7","absorption","",""
"html-button-response","89","2304655","0.0-7.0-2.0-5.0-0.14","11a7990d387305831ab91b109d1f7ae59f062a6442aa9941bc9f418a14913434","swim","swim","2893","","A1","6","","","","arctic-engagement","","","","","","","","","","","","","","7","absorption","",""
"html-button-response","90","2306263","0.0-7.0-2.0-5.0-0.15","11a7990d387305831ab91b109d1f7ae59f062a6442aa9941bc9f418a14913434","swim","swim","1356","","MS3","6","","","","arctic-engagement","","","","","","","","","","","","","","7","mental-sim","",""
"html-button-response","91","2307616","0.0-7.0-2.0-5.0-0.16","11a7990d387305831ab91b109d1f7ae59f062a6442aa9941bc9f418a14913434","swim","swim","1101","","E1","6","","","","arctic-engagement","","","","","","","","","","","","","","7","enjoyment","",""
"html-button-response","92","2309991","0.0-7.0-2.0-5.0-0.17","11a7990d387305831ab91b109d1f7ae59f062a6442aa9941bc9f418a14913434","swim","swim","2123","","EE1","6","","","","arctic-engagement","","","","","","","","","","","","","","7","emo-engage","",""
"html-button-response","93","2312159","0.0-8.0","11a7990d387305831ab91b109d1f7ae59f062a6442aa9941bc9f418a14913434","swim","swim","1914","","<p>Thank you for your responses.</p><p>You will now answer some demographic, hearing, and general health questions.</p>","0","","","","","","","","","","","","","","","","","","","","",""
"survey-multi-choice","94","2315591","0.0-9.0-0.0","11a7990d387305831ab91b109d1f7ae59f062a6442aa9941bc9f418a14913434","swim","swim","3429","","","","","","","survey","","","","","","","","","","","","","{""Q0"":""Microsoft Edge""}","","","browser",""
"survey-text","95","2319455","0.0-9.0-1.0","11a7990d387305831ab91b109d1f7ae59f062a6442aa9941bc9f418a14913434","swim","swim","3581.2999999523163","","","","","","","survey","","","","","","","","","","","","","{""AGE"":""40""}","","","age","40"
"survey-multi-choice","96","2321335","0.0-9.0-2.0","11a7990d387305831ab91b109d1f7ae59f062a6442aa9941bc9f418a14913434","swim","swim","1626","","","","","","","survey","","","","","","","","","","","","","{""Q0"":""Male""}","","","gender","Male"
"survey-multi-choice","97","2324959","0.0-9.0-4.0","11a7990d387305831ab91b109d1f7ae59f062a6442aa9941bc9f418a14913434","swim","swim","3371","","","","","","","survey","","","","","","","","","","","","","{""Q0"":""Left""}","","","handedness","Left"
"survey-multi-choice","98","2327814","0.0-9.0-5.0","11a7990d387305831ab91b109d1f7ae59f062a6442aa9941bc9f418a14913434","swim","swim","2599","","","","","","","survey","","","","","","","","","","","","","{""Q0"":""Some university undergraduate schooling""}","","","education","Some university undergraduate schooling"
"survey-text","99","2332782","0.0-10.0-0.0","11a7990d387305831ab91b109d1f7ae59f062a6442aa9941bc9f418a14913434","swim","swim","4714.600000023842","","","","","","","survey","","","","","","","","","","","","","{""L1"":""english""}","","","first-language","english"
"survey-text","100","2337222","0.0-10.0-1.0","11a7990d387305831ab91b109d1f7ae59f062a6442aa9941bc9f418a14913434","swim","swim","4147.800000071526","","","","","","","survey","","","","","","","","","","","","","{""L2name"":"""",""L2fluency"":"""",""L3name"":"""",""L3fluency"":"""",""L4name"":"""",""L4fluency"":""""}","","","additional-languages","{""L2name"":"""",""L2fluency"":"""",""L3name"":"""",""L3fluency"":"""",""L4name"":"""",""L4fluency"":""""}"
"survey-multi-choice","101","2339870","0.0-10.0-2.0","11a7990d387305831ab91b109d1f7ae59f062a6442aa9941bc9f418a14913434","swim","swim","2395","","","","","","","survey","","","","","","","","","","","","","{""Q0"":""No""}","","","hearing-aid","No"
"survey-multi-choice","102","2342678","0.0-10.0-3.0","11a7990d387305831ab91b109d1f7ae59f062a6442aa9941bc9f418a14913434","swim","swim","2555","","","","","","","survey","","","","","","","","","","","","","{""Q0"":""Never""}","","","ringing-ears","Never"
"survey-multi-choice","103","2344990","0.0-10.0-5.0","11a7990d387305831ab91b109d1f7ae59f062a6442aa9941bc9f418a14913434","swim","swim","2058","","","","","","","survey","","","","","","","","","","","","","{""Q0"":""No""}","","","neuro-disease","No"
"survey-multi-choice","104","2348117","0.0-10.0-7.0","11a7990d387305831ab91b109d1f7ae59f062a6442aa9941bc9f418a14913434","swim","swim","2876","","","","","","","survey","","","","","","","","","","","","","{""Q0"":""No""}","","","take-meds","No"
"survey-text","105","2353501","0.0-10.0-9.0","11a7990d387305831ab91b109d1f7ae59f062a6442aa9941bc9f418a14913434","swim","swim","4926.5","","","","","","","survey","","","","","","","","","","","","","{""HC"":""""}","","","health-concerns",""
"html-button-response","106","2356525","0.0-11.0-0.0","11a7990d387305831ab91b109d1f7ae59f062a6442aa9941bc9f418a14913434","swim","swim","2771","","<p>How would you describe your musical skills/experiences?</p>","2","","","","survey","","","","","","","","","","","","","","","","music-skill","3"
"survey-multi-choice","107","2359029","0.0-11.0-1.0","11a7990d387305831ab91b109d1f7ae59f062a6442aa9941bc9f418a14913434","swim","swim","2252","","","","","","","survey","","","","","","","","","","","","","{""Q0"":""No""}","","","music-instrument","No"
"html-button-response","108","2361118","0.0-12.0-0.0","11a7990d387305831ab91b109d1f7ae59f062a6442aa9941bc9f418a14913434","swim","swim","1834","","<p>How would you describe your general hearing abilities?</p>","5","","","","survey","","","","","","","","","","","","","","","","ssq-01","6"
"html-button-response","109","2365622","0.0-12.0-1.0","11a7990d387305831ab91b109d1f7ae59f062a6442aa9941bc9f418a14913434","swim","swim","4251","","<p>When you talk with someone at a place that strongly reverberates/echoes (e.g., in a church or train station),</br>can you understand what the person says?</p>","10","","","","survey","","","","","","","","","","","","","","","","ssq-02","10"
"html-button-response","110","2368031","0.0-12.0-2.0","11a7990d387305831ab91b109d1f7ae59f062a6442aa9941bc9f418a14913434","swim","swim","2156","","<p>When you are with a group (~5 people) in a lively restaurant, can you follow the group's conversation?</p>","10","","","","survey","","","","","","","","","","","","","","","","ssq-03","10"
"html-button-response","111","2371085","0.0-12.0-3.0","11a7990d387305831ab91b109d1f7ae59f062a6442aa9941bc9f418a14913434","swim","swim","2800","","<p>Based on the sound of a bus or truck, can you tell whether it is moving towards or away from you?</p>","10","","","","survey","","","","","","","","","","","","","","","","ssq-04","10"
"html-button-response","112","2373245","0.0-12.0-4.0","11a7990d387305831ab91b109d1f7ae59f062a6442aa9941bc9f418a14913434","swim","swim","1907","","<p>When you are in an unknown environment, can you tell from which direction a brief sound originates?</p>","10","","","","survey","","","","","","","","","","","","","","","","ssq-05","10"
"html-button-response","113","2376533","0.0-12.0-5.0","11a7990d387305831ab91b109d1f7ae59f062a6442aa9941bc9f418a14913434","swim","swim","3034","","<p>Are you able to ignore distracting sounds when you concentrate on a specific aspect of your acoustic surrounding?</p>","10","","","","survey","","","","","","","","","","","","","","","","ssq-06","10"
"fullscreen","114","2377786","0.0-13.0","11a7990d387305831ab91b109d1f7ae59f062a6442aa9941bc9f418a14913434","swim","swim","","","","","","","","","true","","","","","","","","","","","","","","","",""
