"trial_type","trial_index","time_elapsed","internal_node_id","ParticipantID","firstStory","scramStory","rt","url","stimulus","button_pressed","key_press","correctRESP","correct","designation","success","letterStim","letterType","ONSET","TIMEOUT","CONDITION","Participant","ONSET_ACTUAL","RT","RESP","ACC","STORY","responses","response","type","surveyQuestion","QRESP"
"pavlovia","0","4","0.0-0.0","520771299f51d40fc6cc744b707e725729864ca4df96567099a7c988cc1f78fa","arctic","arctic","","","","","","","","","","","","","","","","","","","","","","","","",""
"external-html","1","20705","0.0-1.0","520771299f51d40fc6cc744b707e725729864ca4df96567099a7c988cc1f78fa","arctic","arctic","20216","consent/consent_updated.html","","","","","","","","","","","","","","","","","","","","","","",""
"html-button-response","2","341134","0.0-2.0-0.0","520771299f51d40fc6cc744b707e725729864ca4df96567099a7c988cc1f78fa","arctic","arctic","320428","","<p>Before we begin the main task, you will complete a short volume calibration and headphone check.</p><p>Please make sure you are in a quiet listening environment, that you are wearing headphones, and that your computer's volume is turned on.<p></p>","0","","","","","","","","","","","","","","","","","","","","",""
"html-button-response","3","343960","0.0-2.0-1.0","520771299f51d40fc6cc744b707e725729864ca4df96567099a7c988cc1f78fa","arctic","arctic","2568","","<p>The volume calibration will be first.</p><p>You will hear a thirty-second noise. Please adjust your computer's volume so that this noise is being presented at a comfortable level.<p></p>","0","","","","","","","","","","","","","","","","","","","","",""
"audio-button-response","4","351344","0.0-2.0-2.0","520771299f51d40fc6cc744b707e725729864ca4df96567099a7c988cc1f78fa","arctic","arctic","7110","","audio/volumetest.mp3","0","","","","","","","","","","","","","","","","","","","","",""
"html-keyboard-response","5","364296","0.0-3.0-0.0","520771299f51d40fc6cc744b707e725729864ca4df96567099a7c988cc1f78fa","arctic","arctic","12951","","<p>You will now complete a short headphone check.</p><p>On each trial, you will hear three tones. One of these tones will be quieter than the others. Your task is to identify whether the quiet tone occurred first, second, or third.</p><p>There are six trials in total.<p></p><p></p>(Press SPACEBAR to begin)","","32","","","","","","","","","","","","","","","","","","","",""
"html-keyboard-response","6","365068","0.0-3.0-1.0-0.0","520771299f51d40fc6cc744b707e725729864ca4df96567099a7c988cc1f78fa","arctic","arctic","null","","<div style=""font-size:60px;"">+</div>","","null","","","","","","","","","","","","","","","","","","","",""
"audio-button-response","7","369406","0.0-3.0-1.0-1.0","520771299f51d40fc6cc744b707e725729864ca4df96567099a7c988cc1f78fa","arctic","arctic","4336","","audio/t2_2.mp3","1","","1","1","headphone-test","","","","","","","","","","","","","","","","",""
"html-keyboard-response","8","369919","0.0-3.0-1.0-2.0","520771299f51d40fc6cc744b707e725729864ca4df96567099a7c988cc1f78fa","arctic","arctic","null","","<p>Correct</p>","","null","","","","","","","","","","","","","","","","","","","",""
"html-keyboard-response","9","370438","0.0-3.0-1.0-0.1","520771299f51d40fc6cc744b707e725729864ca4df96567099a7c988cc1f78fa","arctic","arctic","null","","<div style=""font-size:60px;"">+</div>","","null","","","","","","","","","","","","","","","","","","","",""
"audio-button-response","10","374790","0.0-3.0-1.0-1.1","520771299f51d40fc6cc744b707e725729864ca4df96567099a7c988cc1f78fa","arctic","arctic","4350","","audio/t1_1.mp3","0","","0","1","headphone-test","","","","","","","","","","","","","","","","",""
"html-keyboard-response","11","375309","0.0-3.0-1.0-2.1","520771299f51d40fc6cc744b707e725729864ca4df96567099a7c988cc1f78fa","arctic","arctic","null","","<p>Correct</p>","","null","","","","","","","","","","","","","","","","","","","",""
"html-keyboard-response","12","375815","0.0-3.0-1.0-0.2","520771299f51d40fc6cc744b707e725729864ca4df96567099a7c988cc1f78fa","arctic","arctic","null","","<div style=""font-size:60px;"">+</div>","","null","","","","","","","","","","","","","","","","","","","",""
"audio-button-response","13","380117","0.0-3.0-1.0-1.2","520771299f51d40fc6cc744b707e725729864ca4df96567099a7c988cc1f78fa","arctic","arctic","4300","","audio/t2_1.mp3","1","","1","1","headphone-test","","","","","","","","","","","","","","","","",""
"html-keyboard-response","14","380618","0.0-3.0-1.0-2.2","520771299f51d40fc6cc744b707e725729864ca4df96567099a7c988cc1f78fa","arctic","arctic","null","","<p>Correct</p>","","null","","","","","","","","","","","","","","","","","","","",""
"html-keyboard-response","15","381119","0.0-3.0-1.0-0.3","520771299f51d40fc6cc744b707e725729864ca4df96567099a7c988cc1f78fa","arctic","arctic","null","","<div style=""font-size:60px;"">+</div>","","null","","","","","","","","","","","","","","","","","","","",""
"audio-button-response","16","386784","0.0-3.0-1.0-1.3","520771299f51d40fc6cc744b707e725729864ca4df96567099a7c988cc1f78fa","arctic","arctic","5664","","audio/t3_1.mp3","2","","2","1","headphone-test","","","","","","","","","","","","","","","","",""
"html-keyboard-response","17","387298","0.0-3.0-1.0-2.3","520771299f51d40fc6cc744b707e725729864ca4df96567099a7c988cc1f78fa","arctic","arctic","null","","<p>Correct</p>","","null","","","","","","","","","","","","","","","","","","","",""
"html-keyboard-response","18","387801","0.0-3.0-1.0-0.4","520771299f51d40fc6cc744b707e725729864ca4df96567099a7c988cc1f78fa","arctic","arctic","null","","<div style=""font-size:60px;"">+</div>","","null","","","","","","","","","","","","","","","","","","","",""
"audio-button-response","19","391975","0.0-3.0-1.0-1.4","520771299f51d40fc6cc744b707e725729864ca4df96567099a7c988cc1f78fa","arctic","arctic","4173","","audio/t3_2.mp3","2","","2","1","headphone-test","","","","","","","","","","","","","","","","",""
"html-keyboard-response","20","392481","0.0-3.0-1.0-2.4","520771299f51d40fc6cc744b707e725729864ca4df96567099a7c988cc1f78fa","arctic","arctic","null","","<p>Correct</p>","","null","","","","","","","","","","","","","","","","","","","",""
"html-keyboard-response","21","392991","0.0-3.0-1.0-0.5","520771299f51d40fc6cc744b707e725729864ca4df96567099a7c988cc1f78fa","arctic","arctic","null","","<div style=""font-size:60px;"">+</div>","","null","","","","","","","","","","","","","","","","","","","",""
"audio-button-response","22","396993","0.0-3.0-1.0-1.5","520771299f51d40fc6cc744b707e725729864ca4df96567099a7c988cc1f78fa","arctic","arctic","3997","","audio/t1_2.mp3","2","","0","0","headphone-test","","","","","","","","","","","","","","","","",""
"html-keyboard-response","23","397500","0.0-3.0-1.0-2.5","520771299f51d40fc6cc744b707e725729864ca4df96567099a7c988cc1f78fa","arctic","arctic","null","","<p>Incorrect</p>","","null","","","","","","","","","","","","","","","","","","","",""
"fullscreen","24","400324","0.0-4.0","520771299f51d40fc6cc744b707e725729864ca4df96567099a7c988cc1f78fa","arctic","arctic","","","","","","","","","true","","","","","","","","","","","","","","","",""
"html-button-response","25","425860","0.0-5.0-0.0","520771299f51d40fc6cc744b707e725729864ca4df96567099a7c988cc1f78fa","arctic","arctic","25533","","<p>There are two blocks to this experiment.</p><p>In each block, you will hear a ~13.5 minute story. One of the stories will be scrambled. Please listen carefully to both stories and understand them as best you can.</p><p>After each story, you will be asked some questions to assess your comprehension.</p>","0","","","","","","","","","","","","","","","","","","","","",""
"html-button-response","26","439645","0.0-5.0-1.0","520771299f51d40fc6cc744b707e725729864ca4df96567099a7c988cc1f78fa","arctic","arctic","13785","","<p>During each story, there will be an additional task.</p><p>A letter will occasionally appear on the screen.</br>Your job is to - as quickly as you can - decide whether the letter is lowercase or uppercase and press one of two keys on the keyboard:</p><p>If the letter is <b>lowercase</b>, press key &lt;<b>x</b>&gt;.</p><p>If the letter is <b>uppercase</b>, press key &lt;<b>m</b>&gt;.</p>","0","","","","","","","","","","","","","","","","","","","","",""
"html-keyboard-response","27","460557","0.0-5.0-2.0","520771299f51d40fc6cc744b707e725729864ca4df96567099a7c988cc1f78fa","arctic","arctic","20912","","<p>Because we want your responses to be as quick as possible, please keep your index fingers over the keys while listening.</p><p>Each block lasts about 20 minutes.</p><p><b>Press &lt;x&gt; or &lt;m&gt; to start the first block!</b></p>","","88","","","","","","","","","","","","","","","","","","","",""
"html-keyboard-response","28","461059","0.0-6.0-0.0-0.0","520771299f51d40fc6cc744b707e725729864ca4df96567099a7c988cc1f78fa","arctic","arctic","null","","<div style=""font-size:60px;"" tabindex=""0"">+</div>","","null","","","","","","","","","","","","","","","","","","","",""
"dual-task","null","null","null","","arctic","arctic","1124","","f","null","88","88","1","arctic-dual-task","","f","lowercase","14000","0","3","520771299f51d40fc6cc744b707e725729864ca4df96567099a7c988cc1f78fa","14005","1124","88","1","arctic","","","","",""
"dual-task","null","null","null","","arctic","arctic","664","","F","null","77","77","1","arctic-dual-task","","F","uppercase","28000","0","3","520771299f51d40fc6cc744b707e725729864ca4df96567099a7c988cc1f78fa","28015","664","77","1","arctic","","","","",""
"dual-task","null","null","null","","arctic","arctic","669","","Q","null","77","77","1","arctic-dual-task","","Q","uppercase","38000","0","3","520771299f51d40fc6cc744b707e725729864ca4df96567099a7c988cc1f78fa","38015","669","77","1","arctic","","","","",""
"dual-task","null","null","null","","arctic","arctic","654","","n","null","88","88","1","arctic-dual-task","","n","lowercase","50000","0","3","520771299f51d40fc6cc744b707e725729864ca4df96567099a7c988cc1f78fa","50000","654","88","1","arctic","","","","",""
"dual-task","null","null","null","","arctic","arctic","548","","T","null","77","77","1","arctic-dual-task","","T","uppercase","58000","0","3","520771299f51d40fc6cc744b707e725729864ca4df96567099a7c988cc1f78fa","58016","548","77","1","arctic","","","","",""
"dual-task","null","null","null","","arctic","arctic","664","","N","null","77","77","1","arctic-dual-task","","N","uppercase","70000","0","3","520771299f51d40fc6cc744b707e725729864ca4df96567099a7c988cc1f78fa","70016","664","77","1","arctic","","","","",""
"dual-task","null","null","null","","arctic","arctic","608","","e","null","88","88","1","arctic-dual-task","","e","lowercase","84000","0","3","520771299f51d40fc6cc744b707e725729864ca4df96567099a7c988cc1f78fa","84006","608","88","1","arctic","","","","",""
"dual-task","null","null","null","","arctic","arctic","600","","B","null","77","77","1","arctic-dual-task","","B","uppercase","98000","0","3","520771299f51d40fc6cc744b707e725729864ca4df96567099a7c988cc1f78fa","98015","600","77","1","arctic","","","","",""
"dual-task","null","null","null","","arctic","arctic","705","","H","null","77","77","1","arctic-dual-task","","H","uppercase","112000","0","3","520771299f51d40fc6cc744b707e725729864ca4df96567099a7c988cc1f78fa","112005","705","77","1","arctic","","","","",""
"dual-task","null","null","null","","arctic","arctic","574","","R","null","77","77","1","arctic-dual-task","","R","uppercase","120000","0","3","520771299f51d40fc6cc744b707e725729864ca4df96567099a7c988cc1f78fa","120005","574","77","1","arctic","","","","",""
"dual-task","null","null","null","","arctic","arctic","579","","H","null","77","77","1","arctic-dual-task","","H","uppercase","132000","0","3","520771299f51d40fc6cc744b707e725729864ca4df96567099a7c988cc1f78fa","132005","579","77","1","arctic","","","","",""
"dual-task","null","null","null","","arctic","arctic","552","","D","null","77","77","1","arctic-dual-task","","D","uppercase","146000","0","3","520771299f51d40fc6cc744b707e725729864ca4df96567099a7c988cc1f78fa","146015","552","77","1","arctic","","","","",""
"dual-task","null","null","null","","arctic","arctic","623","","G","null","77","77","1","arctic-dual-task","","G","uppercase","154000","0","3","520771299f51d40fc6cc744b707e725729864ca4df96567099a7c988cc1f78fa","154003","623","77","1","arctic","","","","",""
"dual-task","null","null","null","","arctic","arctic","786","","t","null","88","88","1","arctic-dual-task","","t","lowercase","164000","0","3","520771299f51d40fc6cc744b707e725729864ca4df96567099a7c988cc1f78fa","164015","786","88","1","arctic","","","","",""
"dual-task","null","null","null","","arctic","arctic","627","","E","null","77","77","1","arctic-dual-task","","E","uppercase","178000","0","3","520771299f51d40fc6cc744b707e725729864ca4df96567099a7c988cc1f78fa","178015","627","77","1","arctic","","","","",""
"dual-task","null","null","null","","arctic","arctic","635","","T","null","77","77","1","arctic-dual-task","","T","uppercase","186000","0","3","520771299f51d40fc6cc744b707e725729864ca4df96567099a7c988cc1f78fa","186005","635","77","1","arctic","","","","",""
"dual-task","null","null","null","","arctic","arctic","665","","H","null","77","77","1","arctic-dual-task","","H","uppercase","200000","0","3","520771299f51d40fc6cc744b707e725729864ca4df96567099a7c988cc1f78fa","200015","665","77","1","arctic","","","","",""
"dual-task","null","null","null","","arctic","arctic","545","","D","null","77","77","1","arctic-dual-task","","D","uppercase","212000","0","3","520771299f51d40fc6cc744b707e725729864ca4df96567099a7c988cc1f78fa","212004","545","77","1","arctic","","","","",""
"dual-task","null","null","null","","arctic","arctic","596","","E","null","77","77","1","arctic-dual-task","","E","uppercase","220000","0","3","520771299f51d40fc6cc744b707e725729864ca4df96567099a7c988cc1f78fa","219999","596","77","1","arctic","","","","",""
"dual-task","null","null","null","","arctic","arctic","664","","R","null","77","77","1","arctic-dual-task","","R","uppercase","234000","0","3","520771299f51d40fc6cc744b707e725729864ca4df96567099a7c988cc1f78fa","234005","664","77","1","arctic","","","","",""
"dual-task","null","null","null","","arctic","arctic","518","","Q","null","77","77","1","arctic-dual-task","","Q","uppercase","246000","0","3","520771299f51d40fc6cc744b707e725729864ca4df96567099a7c988cc1f78fa","245999","518","77","1","arctic","","","","",""
"dual-task","null","null","null","","arctic","arctic","752","","d","null","88","88","1","arctic-dual-task","","d","lowercase","256000","0","3","520771299f51d40fc6cc744b707e725729864ca4df96567099a7c988cc1f78fa","256016","752","88","1","arctic","","","","",""
"dual-task","null","null","null","","arctic","arctic","452","","R","null","77","77","1","arctic-dual-task","","R","uppercase","264000","0","3","520771299f51d40fc6cc744b707e725729864ca4df96567099a7c988cc1f78fa","264015","452","77","1","arctic","","","","",""
"dual-task","null","null","null","","arctic","arctic","594","","d","null","88","88","1","arctic-dual-task","","d","lowercase","274000","0","3","520771299f51d40fc6cc744b707e725729864ca4df96567099a7c988cc1f78fa","274004","594","88","1","arctic","","","","",""
"dual-task","null","null","null","","arctic","arctic","627","","E","null","77","77","1","arctic-dual-task","","E","uppercase","286000","0","3","520771299f51d40fc6cc744b707e725729864ca4df96567099a7c988cc1f78fa","285999","627","77","1","arctic","","","","",""
"dual-task","null","null","null","","arctic","arctic","622","","r","null","88","88","1","arctic-dual-task","","r","lowercase","296000","0","3","520771299f51d40fc6cc744b707e725729864ca4df96567099a7c988cc1f78fa","295999","622","88","1","arctic","","","","",""
"dual-task","null","null","null","","arctic","arctic","656","","g","null","88","88","1","arctic-dual-task","","g","lowercase","306000","0","3","520771299f51d40fc6cc744b707e725729864ca4df96567099a7c988cc1f78fa","305999","656","88","1","arctic","","","","",""
"dual-task","null","null","null","","arctic","arctic","569","","B","null","77","77","1","arctic-dual-task","","B","uppercase","314000","0","3","520771299f51d40fc6cc744b707e725729864ca4df96567099a7c988cc1f78fa","314005","569","77","1","arctic","","","","",""
"dual-task","null","null","null","","arctic","arctic","707","","r","null","88","88","1","arctic-dual-task","","r","lowercase","326000","0","3","520771299f51d40fc6cc744b707e725729864ca4df96567099a7c988cc1f78fa","326015","707","88","1","arctic","","","","",""
"dual-task","null","null","null","","arctic","arctic","892","","r","null","88","88","1","arctic-dual-task","","r","lowercase","334000","0","3","520771299f51d40fc6cc744b707e725729864ca4df96567099a7c988cc1f78fa","334005","892","88","1","arctic","","","","",""
"dual-task","null","null","null","","arctic","arctic","728","","b","null","88","88","1","arctic-dual-task","","b","lowercase","346000","0","3","520771299f51d40fc6cc744b707e725729864ca4df96567099a7c988cc1f78fa","346015","728","88","1","arctic","","","","",""
"dual-task","null","null","null","","arctic","arctic","672","","h","null","88","88","1","arctic-dual-task","","h","lowercase","356000","0","3","520771299f51d40fc6cc744b707e725729864ca4df96567099a7c988cc1f78fa","356005","672","88","1","arctic","","","","",""
"dual-task","null","null","null","","arctic","arctic","621","","F","null","77","77","1","arctic-dual-task","","F","uppercase","366000","0","3","520771299f51d40fc6cc744b707e725729864ca4df96567099a7c988cc1f78fa","366005","621","77","1","arctic","","","","",""
"dual-task","null","null","null","","arctic","arctic","578","","a","null","88","88","1","arctic-dual-task","","a","lowercase","376000","0","3","520771299f51d40fc6cc744b707e725729864ca4df96567099a7c988cc1f78fa","375999","578","88","1","arctic","","","","",""
"dual-task","null","null","null","","arctic","arctic","790","","N","null","77","77","1","arctic-dual-task","","N","uppercase","386000","0","3","520771299f51d40fc6cc744b707e725729864ca4df96567099a7c988cc1f78fa","386015","790","77","1","arctic","","","","",""
"dual-task","null","null","null","","arctic","arctic","546","","N","null","77","77","1","arctic-dual-task","","N","uppercase","398000","0","3","520771299f51d40fc6cc744b707e725729864ca4df96567099a7c988cc1f78fa","398005","546","77","1","arctic","","","","",""
"dual-task","null","null","null","","arctic","arctic","781","","h","null","88","88","1","arctic-dual-task","","h","lowercase","404000","0","3","520771299f51d40fc6cc744b707e725729864ca4df96567099a7c988cc1f78fa","404016","781","88","1","arctic","","","","",""
"dual-task","null","null","null","","arctic","arctic","574","","q","null","88","88","1","arctic-dual-task","","q","lowercase","418000","0","3","520771299f51d40fc6cc744b707e725729864ca4df96567099a7c988cc1f78fa","418015","574","88","1","arctic","","","","",""
"dual-task","null","null","null","","arctic","arctic","993","","A","null","77","77","1","arctic-dual-task","","A","uppercase","424000","0","3","520771299f51d40fc6cc744b707e725729864ca4df96567099a7c988cc1f78fa","424006","993","77","1","arctic","","","","",""
"dual-task","null","null","null","","arctic","arctic","730","","d","null","88","88","1","arctic-dual-task","","d","lowercase","436000","0","3","520771299f51d40fc6cc744b707e725729864ca4df96567099a7c988cc1f78fa","435999","730","88","1","arctic","","","","",""
"dual-task","null","null","null","","arctic","arctic","649","","F","null","77","77","1","arctic-dual-task","","F","uppercase","446000","0","3","520771299f51d40fc6cc744b707e725729864ca4df96567099a7c988cc1f78fa","446005","649","77","1","arctic","","","","",""
"dual-task","null","null","null","","arctic","arctic","527","","G","null","77","77","1","arctic-dual-task","","G","uppercase","452000","0","3","520771299f51d40fc6cc744b707e725729864ca4df96567099a7c988cc1f78fa","452016","527","77","1","arctic","","","","",""
"dual-task","null","null","null","","arctic","arctic","589","","q","null","88","88","1","arctic-dual-task","","q","lowercase","460000","0","3","520771299f51d40fc6cc744b707e725729864ca4df96567099a7c988cc1f78fa","460000","589","88","1","arctic","","","","",""
"dual-task","null","null","null","","arctic","arctic","618","","e","null","88","88","1","arctic-dual-task","","e","lowercase","468000","0","3","520771299f51d40fc6cc744b707e725729864ca4df96567099a7c988cc1f78fa","467999","618","88","1","arctic","","","","",""
"dual-task","null","null","null","","arctic","arctic","605","","B","null","77","77","1","arctic-dual-task","","B","uppercase","474000","0","3","520771299f51d40fc6cc744b707e725729864ca4df96567099a7c988cc1f78fa","474000","605","77","1","arctic","","","","",""
"dual-task","null","null","null","","arctic","arctic","578","","T","null","77","77","1","arctic-dual-task","","T","uppercase","484000","0","3","520771299f51d40fc6cc744b707e725729864ca4df96567099a7c988cc1f78fa","484015","578","77","1","arctic","","","","",""
"dual-task","null","null","null","","arctic","arctic","593","","g","null","88","88","1","arctic-dual-task","","g","lowercase","498000","0","3","520771299f51d40fc6cc744b707e725729864ca4df96567099a7c988cc1f78fa","498016","593","88","1","arctic","","","","",""
"dual-task","null","null","null","","arctic","arctic","1225","","r","null","88","88","1","arctic-dual-task","","r","lowercase","504000","0","3","520771299f51d40fc6cc744b707e725729864ca4df96567099a7c988cc1f78fa","503999","1225","88","1","arctic","","","","",""
"dual-task","null","null","null","","arctic","arctic","631","","D","null","77","77","1","arctic-dual-task","","D","uppercase","512000","0","3","520771299f51d40fc6cc744b707e725729864ca4df96567099a7c988cc1f78fa","512015","631","77","1","arctic","","","","",""
"dual-task","null","null","null","","arctic","arctic","875","","t","null","88","88","1","arctic-dual-task","","t","lowercase","518000","0","3","520771299f51d40fc6cc744b707e725729864ca4df96567099a7c988cc1f78fa","518016","875","88","1","arctic","","","","",""
"dual-task","null","null","null","","arctic","arctic","624","","E","null","77","77","1","arctic-dual-task","","E","uppercase","528000","0","3","520771299f51d40fc6cc744b707e725729864ca4df96567099a7c988cc1f78fa","528006","624","77","1","arctic","","","","",""
"dual-task","null","null","null","","arctic","arctic","626","","e","null","88","88","1","arctic-dual-task","","e","lowercase","536000","0","3","520771299f51d40fc6cc744b707e725729864ca4df96567099a7c988cc1f78fa","536006","626","88","1","arctic","","","","",""
"dual-task","null","null","null","","arctic","arctic","792","","H","null","77","77","1","arctic-dual-task","","H","uppercase","548000","0","3","520771299f51d40fc6cc744b707e725729864ca4df96567099a7c988cc1f78fa","548006","792","77","1","arctic","","","","",""
"dual-task","null","null","null","","arctic","arctic","597","","R","null","77","77","1","arctic-dual-task","","R","uppercase","556000","0","3","520771299f51d40fc6cc744b707e725729864ca4df96567099a7c988cc1f78fa","556006","597","77","1","arctic","","","","",""
"dual-task","null","null","null","","arctic","arctic","838","","d","null","88","88","1","arctic-dual-task","","d","lowercase","568000","0","3","520771299f51d40fc6cc744b707e725729864ca4df96567099a7c988cc1f78fa","568015","838","88","1","arctic","","","","",""
"dual-task","null","null","null","","arctic","arctic","650","","h","null","88","88","1","arctic-dual-task","","h","lowercase","576000","0","3","520771299f51d40fc6cc744b707e725729864ca4df96567099a7c988cc1f78fa","576006","650","88","1","arctic","","","","",""
"dual-task","null","null","null","","arctic","arctic","622","","N","null","77","77","1","arctic-dual-task","","N","uppercase","584000","0","3","520771299f51d40fc6cc744b707e725729864ca4df96567099a7c988cc1f78fa","584005","622","77","1","arctic","","","","",""
"dual-task","null","null","null","","arctic","arctic","694","","n","null","88","88","1","arctic-dual-task","","n","lowercase","592000","0","3","520771299f51d40fc6cc744b707e725729864ca4df96567099a7c988cc1f78fa","592015","694","88","1","arctic","","","","",""
"dual-task","null","null","null","","arctic","arctic","1040","","b","null","77","88","0","arctic-dual-task","","b","lowercase","600000","0","3","520771299f51d40fc6cc744b707e725729864ca4df96567099a7c988cc1f78fa","600006","1040","77","0","arctic","","","","",""
"dual-task","null","null","null","","arctic","arctic","692","","Q","null","77","77","1","arctic-dual-task","","Q","uppercase","614000","0","3","520771299f51d40fc6cc744b707e725729864ca4df96567099a7c988cc1f78fa","614005","692","77","1","arctic","","","","",""
"dual-task","null","null","null","","arctic","arctic","593","","D","null","77","77","1","arctic-dual-task","","D","uppercase","622000","0","3","520771299f51d40fc6cc744b707e725729864ca4df96567099a7c988cc1f78fa","622002","593","77","1","arctic","","","","",""
"dual-task","null","null","null","","arctic","arctic","711","","b","null","88","88","1","arctic-dual-task","","b","lowercase","628000","0","3","520771299f51d40fc6cc744b707e725729864ca4df96567099a7c988cc1f78fa","628017","711","88","1","arctic","","","","",""
"dual-task","null","null","null","","arctic","arctic","735","","g","null","88","88","1","arctic-dual-task","","g","lowercase","636000","0","3","520771299f51d40fc6cc744b707e725729864ca4df96567099a7c988cc1f78fa","636005","735","88","1","arctic","","","","",""
"dual-task","null","null","null","","arctic","arctic","602","","g","null","88","88","1","arctic-dual-task","","g","lowercase","642000","0","3","520771299f51d40fc6cc744b707e725729864ca4df96567099a7c988cc1f78fa","641999","602","88","1","arctic","","","","",""
"dual-task","null","null","null","","arctic","arctic","615","","A","null","77","77","1","arctic-dual-task","","A","uppercase","650000","0","3","520771299f51d40fc6cc744b707e725729864ca4df96567099a7c988cc1f78fa","650005","615","77","1","arctic","","","","",""
"dual-task","null","null","null","","arctic","arctic","780","","q","null","88","88","1","arctic-dual-task","","q","lowercase","662000","0","3","520771299f51d40fc6cc744b707e725729864ca4df96567099a7c988cc1f78fa","662005","780","88","1","arctic","","","","",""
"dual-task","null","null","null","","arctic","arctic","630","","a","null","88","88","1","arctic-dual-task","","a","lowercase","668000","0","3","520771299f51d40fc6cc744b707e725729864ca4df96567099a7c988cc1f78fa","668005","630","88","1","arctic","","","","",""
"dual-task","null","null","null","","arctic","arctic","530","","A","null","77","77","1","arctic-dual-task","","A","uppercase","674000","0","3","520771299f51d40fc6cc744b707e725729864ca4df96567099a7c988cc1f78fa","674010","530","77","1","arctic","","","","",""
"dual-task","null","null","null","","arctic","arctic","640","","n","null","88","88","1","arctic-dual-task","","n","lowercase","682000","0","3","520771299f51d40fc6cc744b707e725729864ca4df96567099a7c988cc1f78fa","682016","640","88","1","arctic","","","","",""
"dual-task","null","null","null","","arctic","arctic","610","","n","null","88","88","1","arctic-dual-task","","n","lowercase","696000","0","3","520771299f51d40fc6cc744b707e725729864ca4df96567099a7c988cc1f78fa","696006","610","88","1","arctic","","","","",""
"dual-task","null","null","null","","arctic","arctic","856","","A","null","77","77","1","arctic-dual-task","","A","uppercase","704000","0","3","520771299f51d40fc6cc744b707e725729864ca4df96567099a7c988cc1f78fa","704001","856","77","1","arctic","","","","",""
"dual-task","null","null","null","","arctic","arctic","687","","f","null","88","88","1","arctic-dual-task","","f","lowercase","710000","0","3","520771299f51d40fc6cc744b707e725729864ca4df96567099a7c988cc1f78fa","710000","687","88","1","arctic","","","","",""
"dual-task","null","null","null","","arctic","arctic","571","","a","null","88","88","1","arctic-dual-task","","a","lowercase","722000","0","3","520771299f51d40fc6cc744b707e725729864ca4df96567099a7c988cc1f78fa","722000","571","88","1","arctic","","","","",""
"dual-task","null","null","null","","arctic","arctic","636","","b","null","88","88","1","arctic-dual-task","","b","lowercase","730000","0","3","520771299f51d40fc6cc744b707e725729864ca4df96567099a7c988cc1f78fa","730006","636","88","1","arctic","","","","",""
"dual-task","null","null","null","","arctic","arctic","637","","G","null","77","77","1","arctic-dual-task","","G","uppercase","740000","0","3","520771299f51d40fc6cc744b707e725729864ca4df96567099a7c988cc1f78fa","740001","637","77","1","arctic","","","","",""
"dual-task","null","null","null","","arctic","arctic","542","","f","null","88","88","1","arctic-dual-task","","f","lowercase","750000","0","3","520771299f51d40fc6cc744b707e725729864ca4df96567099a7c988cc1f78fa","750000","542","88","1","arctic","","","","",""
"dual-task","null","null","null","","arctic","arctic","676","","t","null","88","88","1","arctic-dual-task","","t","lowercase","758000","0","3","520771299f51d40fc6cc744b707e725729864ca4df96567099a7c988cc1f78fa","758016","676","88","1","arctic","","","","",""
"dual-task","null","null","null","","arctic","arctic","799","","T","null","77","77","1","arctic-dual-task","","T","uppercase","772000","0","3","520771299f51d40fc6cc744b707e725729864ca4df96567099a7c988cc1f78fa","772002","799","77","1","arctic","","","","",""
"dual-task","null","null","null","","arctic","arctic","870","","B","null","77","77","1","arctic-dual-task","","B","uppercase","782000","0","3","520771299f51d40fc6cc744b707e725729864ca4df96567099a7c988cc1f78fa","782000","870","77","1","arctic","","","","",""
"audio-keyboard-response","29","1259082","0.0-6.0-0.0-1.0","520771299f51d40fc6cc744b707e725729864ca4df96567099a7c988cc1f78fa","arctic","arctic","null","","audio/story_arctic_scrambled.mp3","","null","","","","","","","","","","","","","","","","","","","",""
"html-button-response","30","1262332","0.0-6.0-0.0-2.0","520771299f51d40fc6cc744b707e725729864ca4df96567099a7c988cc1f78fa","arctic","arctic","3248","","<p>This concludes the story. Thank you for listening.</p><p>You will now answer some questions about the content of the story.</p>","0","","","","","","","","","","","","","","","","","","","","",""
"survey-multi-choice","31","1270064","0.0-6.0-0.0-3.0-0.0","520771299f51d40fc6cc744b707e725729864ca4df96567099a7c988cc1f78fa","arctic","arctic","7730","","<b>How did the dogs respond when they saw the bears?</b>","","","","0","arctic-comprehension","","","","","","","","","","","","","{""Q0"":""Barked aggressively""}","","","",""
"survey-multi-choice","32","1281051","0.0-6.0-0.0-3.0-0.1","520771299f51d40fc6cc744b707e725729864ca4df96567099a7c988cc1f78fa","arctic","arctic","10726","","<b>What was the objective of the narrator&#39;s expedition?</b>","","","","1","arctic-comprehension","","","","","","","","","","","","","{""Q0"":""Dogsled across Arctic America""}","","","",""
"survey-multi-choice","33","1296201","0.0-6.0-0.0-3.0-0.2","520771299f51d40fc6cc744b707e725729864ca4df96567099a7c988cc1f78fa","arctic","arctic","14897","","<b>How did the narrator&#39;s encounter with the polar bears end?</b>","","","","1","arctic-comprehension","","","","","","","","","","","","","{""Q0"":""The bears walked back to their den.""}","","","",""
"survey-multi-choice","34","1301287","0.0-6.0-0.0-3.0-0.3","520771299f51d40fc6cc744b707e725729864ca4df96567099a7c988cc1f78fa","arctic","arctic","4814","","<b>What did the narrator do for leisure while in her tent?</b>","","","","1","arctic-comprehension","","","","","","","","","","","","","{""Q0"":""Read""}","","","",""
"survey-multi-choice","35","1306163","0.0-6.0-0.0-3.0-0.4","520771299f51d40fc6cc744b707e725729864ca4df96567099a7c988cc1f78fa","arctic","arctic","4620","","<b>What is the name of the narrator&#39;s neighbour?</b>","","","","1","arctic-comprehension","","","","","","","","","","","","","{""Q0"":""Dave""}","","","",""
"survey-multi-choice","36","1320343","0.0-6.0-0.0-3.0-0.5","520771299f51d40fc6cc744b707e725729864ca4df96567099a7c988cc1f78fa","arctic","arctic","13924","","<b>How many sponsorships did the narrator receive to support her expedition?</b>","","","","0","arctic-comprehension","","","","","","","","","","","","","{""Q0"":""One""}","","","",""
"survey-multi-choice","37","1326501","0.0-6.0-0.0-3.0-0.6","520771299f51d40fc6cc744b707e725729864ca4df96567099a7c988cc1f78fa","arctic","arctic","5899","","<b>Which dog on the narrator&#39;s dog team never followed instructions?</b>","","","","1","arctic-comprehension","","","","","","","","","","","","","{""Q0"":""Robert""}","","","",""
"survey-multi-choice","38","1344500","0.0-6.0-0.0-3.0-0.7","520771299f51d40fc6cc744b707e725729864ca4df96567099a7c988cc1f78fa","arctic","arctic","17736","","<b>How did the narrator&#39;s neighbour respond when she told him about her expedition?</b>","","","","0","arctic-comprehension","","","","","","","","","","","","","{""Q0"":""He said he was worried about her.""}","","","",""
"survey-multi-choice","39","1356099","0.0-6.0-0.0-3.0-0.8","520771299f51d40fc6cc744b707e725729864ca4df96567099a7c988cc1f78fa","arctic","arctic","11346","","<b>What were the weather conditions in the Arctic like the winter of the narrator&#39;s expedition?</b>","","","","1","arctic-comprehension","","","","","","","","","","","","","{""Q0"":""There were more storms than any other winter in recorded history.""}","","","",""
"survey-multi-choice","40","1370283","0.0-6.0-0.0-3.0-0.9","520771299f51d40fc6cc744b707e725729864ca4df96567099a7c988cc1f78fa","arctic","arctic","13912","","<b>How did the narrator prepare for her expedition?</b>","","","","1","arctic-comprehension","","","","","","","","","","","","","{""Q0"":""Trained in Alaska learning how to dogsled""}","","","",""
"html-button-response","41","1372632","0.0-6.0-0.0-4.0","520771299f51d40fc6cc744b707e725729864ca4df96567099a7c988cc1f78fa","arctic","arctic","2082","","<p>Thank you for your responses.</p><p>You will now answer some questions about your impressions of the story.</p>","0","","","","","","","","","","","","","","","","","","","","",""
"html-button-response","42","1381627","0.0-6.0-0.0-5.0-0.0","520771299f51d40fc6cc744b707e725729864ca4df96567099a7c988cc1f78fa","arctic","arctic","8994","","E10","2","","","","arctic-engagement","","","","","","","","","","","","","","3","enjoyment","",""
"html-button-response","43","1385132","0.0-6.0-0.0-5.0-0.1","520771299f51d40fc6cc744b707e725729864ca4df96567099a7c988cc1f78fa","arctic","arctic","3251","","A4","3","","","","arctic-engagement","","","","","","","","","","","","","","4","absorption","",""
"html-button-response","44","1387389","0.0-6.0-0.0-5.0-0.2","520771299f51d40fc6cc744b707e725729864ca4df96567099a7c988cc1f78fa","arctic","arctic","1988","","A2","4","","","","arctic-engagement","","","","","","","","","","","","","","5","absorption","",""
"html-button-response","45","1390011","0.0-6.0-0.0-5.0-0.3","520771299f51d40fc6cc744b707e725729864ca4df96567099a7c988cc1f78fa","arctic","arctic","2371","","A5","3","","","","arctic-engagement","","","","","","","","","","","","","","4","absorption","",""
"html-button-response","46","1392726","0.0-6.0-0.0-5.0-0.4","520771299f51d40fc6cc744b707e725729864ca4df96567099a7c988cc1f78fa","arctic","arctic","2461","","MS2","3","","","","arctic-engagement","","","","","","","","","","","","","","4","mental-sim","",""
"html-button-response","47","1395533","0.0-6.0-0.0-5.0-0.5","520771299f51d40fc6cc744b707e725729864ca4df96567099a7c988cc1f78fa","arctic","arctic","2551","","A3","2","","","","arctic-engagement","","","","","","","","","","","","","","3","absorption","",""
"html-button-response","48","1398972","0.0-6.0-0.0-5.0-0.6","520771299f51d40fc6cc744b707e725729864ca4df96567099a7c988cc1f78fa","arctic","arctic","3188","","MS3","2","","","","arctic-engagement","","","","","","","","","","","","","","3","mental-sim","",""
"html-button-response","49","1400825","0.0-6.0-0.0-5.0-0.7","520771299f51d40fc6cc744b707e725729864ca4df96567099a7c988cc1f78fa","arctic","arctic","1584","","E1","4","","","","arctic-engagement","","","","","","","","","","","","","","5","enjoyment","",""
"html-button-response","50","1403793","0.0-6.0-0.0-5.0-0.8","520771299f51d40fc6cc744b707e725729864ca4df96567099a7c988cc1f78fa","arctic","arctic","2716","","MS1","3","","","","arctic-engagement","","","","","","","","","","","","","","4","mental-sim","",""
"html-button-response","51","1407567","0.0-6.0-0.0-5.0-0.9","520771299f51d40fc6cc744b707e725729864ca4df96567099a7c988cc1f78fa","arctic","arctic","3522","","E7","5","","","","arctic-engagement","","","","","","","","","","","","","","6","enjoyment","",""
"html-button-response","52","1410047","0.0-6.0-0.0-5.0-0.10","520771299f51d40fc6cc744b707e725729864ca4df96567099a7c988cc1f78fa","arctic","arctic","2218","","EE5","3","","","","arctic-engagement","","","","","","","","","","","","","","4","emo-engage","",""
"html-button-response","53","1414352","0.0-6.0-0.0-5.0-0.11","520771299f51d40fc6cc744b707e725729864ca4df96567099a7c988cc1f78fa","arctic","arctic","4055","","EE4","4","","","","arctic-engagement","","","","","","","","","","","","","","5","emo-engage","",""
"html-button-response","54","1416257","0.0-6.0-0.0-5.0-0.12","520771299f51d40fc6cc744b707e725729864ca4df96567099a7c988cc1f78fa","arctic","arctic","1646","","EE2","2","","","","arctic-engagement","","","","","","","","","","","","","","3","emo-engage","",""
"html-button-response","55","1419687","0.0-6.0-0.0-5.0-0.13","520771299f51d40fc6cc744b707e725729864ca4df96567099a7c988cc1f78fa","arctic","arctic","3175","","EE1","2","","","","arctic-engagement","","","","","","","","","","","","","","3","emo-engage","",""
"html-button-response","56","1422424","0.0-6.0-0.0-5.0-0.14","520771299f51d40fc6cc744b707e725729864ca4df96567099a7c988cc1f78fa","arctic","arctic","2472","","E8","5","","","","arctic-engagement","","","","","","","","","","","","","","6","enjoyment","",""
"html-button-response","57","1426884","0.0-6.0-0.0-5.0-0.15","520771299f51d40fc6cc744b707e725729864ca4df96567099a7c988cc1f78fa","arctic","arctic","4210","","EE3","3","","","","arctic-engagement","","","","","","","","","","","","","","4","emo-engage","",""
"html-button-response","58","1429711","0.0-6.0-0.0-5.0-0.16","520771299f51d40fc6cc744b707e725729864ca4df96567099a7c988cc1f78fa","arctic","arctic","2577","","E6","3","","","","arctic-engagement","","","","","","","","","","","","","","4","enjoyment","",""
"html-button-response","59","1434197","0.0-6.0-0.0-5.0-0.17","520771299f51d40fc6cc744b707e725729864ca4df96567099a7c988cc1f78fa","arctic","arctic","4228","","A1","5","","","","arctic-engagement","","","","","","","","","","","","","","6","absorption","",""
"html-keyboard-response","60","1453392","0.0-6.0-1.0","520771299f51d40fc6cc744b707e725729864ca4df96567099a7c988cc1f78fa","arctic","arctic","18944","","<p>Thank you for your responses. You will now listen to the second story.</p><p>Remember, as you listen to the story you will see letters appear on the screen.</br>As quickly as possible, press <b>&lt;x&gt;</b> if the letter is lowercase and <b>&lt;m&gt;</b> if the letter is uppercase.</p><p>Press <b>&lt;x&gt;</b> or <b>&lt;m&gt;</b> to begin listening!</p>","","88","","","","","","","","","","","","","","","","","","","",""
"html-keyboard-response","61","1453897","0.0-6.0-2.0-0.0","520771299f51d40fc6cc744b707e725729864ca4df96567099a7c988cc1f78fa","arctic","arctic","null","","<div style=""font-size:60px;"" tabindex=""0"">+</div>","","null","","","","","","","","","","","","","","","","","","","",""
"dual-task","null","null","null","","arctic","arctic","NA","","N","null","NA","77","0","swim-dual-task","","N","uppercase","14000","1","3","520771299f51d40fc6cc744b707e725729864ca4df96567099a7c988cc1f78fa","14000","NA","NA","0","swim","","","","",""
"dual-task","null","null","null","","arctic","arctic","NA","","E","null","NA","77","0","swim-dual-task","","E","uppercase","20000","1","3","520771299f51d40fc6cc744b707e725729864ca4df96567099a7c988cc1f78fa","19999","NA","NA","0","swim","","","","",""
"dual-task","null","null","null","","arctic","arctic","NA","","D","null","NA","77","0","swim-dual-task","","D","uppercase","32000","1","3","520771299f51d40fc6cc744b707e725729864ca4df96567099a7c988cc1f78fa","32011","NA","NA","0","swim","","","","",""
"dual-task","null","null","null","","arctic","arctic","NA","","T","null","NA","77","0","swim-dual-task","","T","uppercase","44000","1","3","520771299f51d40fc6cc744b707e725729864ca4df96567099a7c988cc1f78fa","44001","NA","NA","0","swim","","","","",""
"dual-task","null","null","null","","arctic","arctic","NA","","d","null","NA","88","0","swim-dual-task","","d","lowercase","56000","1","3","520771299f51d40fc6cc744b707e725729864ca4df96567099a7c988cc1f78fa","56006","NA","NA","0","swim","","","","",""
"dual-task","null","null","null","","arctic","arctic","676","","e","null","88","88","1","swim-dual-task","","e","lowercase","66000","0","3","520771299f51d40fc6cc744b707e725729864ca4df96567099a7c988cc1f78fa","66004","676","88","1","swim","","","","",""
"dual-task","null","null","null","","arctic","arctic","602","","R","null","77","77","1","swim-dual-task","","R","uppercase","80000","0","3","520771299f51d40fc6cc744b707e725729864ca4df96567099a7c988cc1f78fa","80011","602","77","1","swim","","","","",""
"dual-task","null","null","null","","arctic","arctic","495","","q","null","88","88","1","swim-dual-task","","q","lowercase","88000","0","3","520771299f51d40fc6cc744b707e725729864ca4df96567099a7c988cc1f78fa","88002","495","88","1","swim","","","","",""
"dual-task","null","null","null","","arctic","arctic","592","","G","null","77","77","1","swim-dual-task","","G","uppercase","96000","0","3","520771299f51d40fc6cc744b707e725729864ca4df96567099a7c988cc1f78fa","96000","592","77","1","swim","","","","",""
"dual-task","null","null","null","","arctic","arctic","627","","r","null","88","88","1","swim-dual-task","","r","lowercase","106000","0","3","520771299f51d40fc6cc744b707e725729864ca4df96567099a7c988cc1f78fa","106000","627","88","1","swim","","","","",""
"dual-task","null","null","null","","arctic","arctic","688","","t","null","88","88","1","swim-dual-task","","t","lowercase","112000","0","3","520771299f51d40fc6cc744b707e725729864ca4df96567099a7c988cc1f78fa","112012","688","88","1","swim","","","","",""
"dual-task","null","null","null","","arctic","arctic","718","","d","null","88","88","1","swim-dual-task","","d","lowercase","120000","0","3","520771299f51d40fc6cc744b707e725729864ca4df96567099a7c988cc1f78fa","120001","718","88","1","swim","","","","",""
"dual-task","null","null","null","","arctic","arctic","586","","B","null","77","77","1","swim-dual-task","","B","uppercase","134000","0","3","520771299f51d40fc6cc744b707e725729864ca4df96567099a7c988cc1f78fa","134001","586","77","1","swim","","","","",""
"dual-task","null","null","null","","arctic","arctic","536","","a","null","88","88","1","swim-dual-task","","a","lowercase","144000","0","3","520771299f51d40fc6cc744b707e725729864ca4df96567099a7c988cc1f78fa","144002","536","88","1","swim","","","","",""
"dual-task","null","null","null","","arctic","arctic","673","","r","null","88","88","1","swim-dual-task","","r","lowercase","152000","0","3","520771299f51d40fc6cc744b707e725729864ca4df96567099a7c988cc1f78fa","152010","673","88","1","swim","","","","",""
"dual-task","null","null","null","","arctic","arctic","550","","n","null","88","88","1","swim-dual-task","","n","lowercase","164000","0","3","520771299f51d40fc6cc744b707e725729864ca4df96567099a7c988cc1f78fa","164001","550","88","1","swim","","","","",""
"dual-task","null","null","null","","arctic","arctic","647","","F","null","77","77","1","swim-dual-task","","F","uppercase","176000","0","3","520771299f51d40fc6cc744b707e725729864ca4df96567099a7c988cc1f78fa","176001","647","77","1","swim","","","","",""
"dual-task","null","null","null","","arctic","arctic","584","","H","null","77","77","1","swim-dual-task","","H","uppercase","188000","0","3","520771299f51d40fc6cc744b707e725729864ca4df96567099a7c988cc1f78fa","188000","584","77","1","swim","","","","",""
"dual-task","null","null","null","","arctic","arctic","739","","f","null","88","88","1","swim-dual-task","","f","lowercase","198000","0","3","520771299f51d40fc6cc744b707e725729864ca4df96567099a7c988cc1f78fa","198001","739","88","1","swim","","","","",""
"dual-task","null","null","null","","arctic","arctic","700","","b","null","88","88","1","swim-dual-task","","b","lowercase","208000","0","3","520771299f51d40fc6cc744b707e725729864ca4df96567099a7c988cc1f78fa","208007","700","88","1","swim","","","","",""
"dual-task","null","null","null","","arctic","arctic","672","","T","null","77","77","1","swim-dual-task","","T","uppercase","218000","0","3","520771299f51d40fc6cc744b707e725729864ca4df96567099a7c988cc1f78fa","218000","672","77","1","swim","","","","",""
"dual-task","null","null","null","","arctic","arctic","546","","N","null","77","77","1","swim-dual-task","","N","uppercase","228000","0","3","520771299f51d40fc6cc744b707e725729864ca4df96567099a7c988cc1f78fa","228011","546","77","1","swim","","","","",""
"dual-task","null","null","null","","arctic","arctic","663","","r","null","88","88","1","swim-dual-task","","r","lowercase","240000","0","3","520771299f51d40fc6cc744b707e725729864ca4df96567099a7c988cc1f78fa","240001","663","88","1","swim","","","","",""
"dual-task","null","null","null","","arctic","arctic","624","","D","null","77","77","1","swim-dual-task","","D","uppercase","252000","0","3","520771299f51d40fc6cc744b707e725729864ca4df96567099a7c988cc1f78fa","252001","624","77","1","swim","","","","",""
"dual-task","null","null","null","","arctic","arctic","537","","n","null","88","88","1","swim-dual-task","","n","lowercase","260000","0","3","520771299f51d40fc6cc744b707e725729864ca4df96567099a7c988cc1f78fa","260000","537","88","1","swim","","","","",""
"dual-task","null","null","null","","arctic","arctic","559","","B","null","77","77","1","swim-dual-task","","B","uppercase","274000","0","3","520771299f51d40fc6cc744b707e725729864ca4df96567099a7c988cc1f78fa","274011","559","77","1","swim","","","","",""
"dual-task","null","null","null","","arctic","arctic","652","","g","null","77","88","0","swim-dual-task","","g","lowercase","284000","0","3","520771299f51d40fc6cc744b707e725729864ca4df96567099a7c988cc1f78fa","284012","652","77","0","swim","","","","",""
"dual-task","null","null","null","","arctic","arctic","584","","D","null","77","77","1","swim-dual-task","","D","uppercase","296000","0","3","520771299f51d40fc6cc744b707e725729864ca4df96567099a7c988cc1f78fa","296000","584","77","1","swim","","","","",""
"dual-task","null","null","null","","arctic","arctic","665","","g","null","88","88","1","swim-dual-task","","g","lowercase","310000","0","3","520771299f51d40fc6cc744b707e725729864ca4df96567099a7c988cc1f78fa","310011","665","88","1","swim","","","","",""
"dual-task","null","null","null","","arctic","arctic","626","","H","null","77","77","1","swim-dual-task","","H","uppercase","318000","0","3","520771299f51d40fc6cc744b707e725729864ca4df96567099a7c988cc1f78fa","318001","626","77","1","swim","","","","",""
"dual-task","null","null","null","","arctic","arctic","623","","H","null","77","77","1","swim-dual-task","","H","uppercase","328000","0","3","520771299f51d40fc6cc744b707e725729864ca4df96567099a7c988cc1f78fa","328000","623","77","1","swim","","","","",""
"dual-task","null","null","null","","arctic","arctic","726","","G","null","88","77","0","swim-dual-task","","G","uppercase","334000","0","3","520771299f51d40fc6cc744b707e725729864ca4df96567099a7c988cc1f78fa","334001","726","88","0","swim","","","","",""
"dual-task","null","null","null","","arctic","arctic","539","","e","null","88","88","1","swim-dual-task","","e","lowercase","344000","0","3","520771299f51d40fc6cc744b707e725729864ca4df96567099a7c988cc1f78fa","344002","539","88","1","swim","","","","",""
"dual-task","null","null","null","","arctic","arctic","689","","N","null","77","77","1","swim-dual-task","","N","uppercase","352000","0","3","520771299f51d40fc6cc744b707e725729864ca4df96567099a7c988cc1f78fa","352000","689","77","1","swim","","","","",""
"dual-task","null","null","null","","arctic","arctic","679","","R","null","77","77","1","swim-dual-task","","R","uppercase","366000","0","3","520771299f51d40fc6cc744b707e725729864ca4df96567099a7c988cc1f78fa","366002","679","77","1","swim","","","","",""
"dual-task","null","null","null","","arctic","arctic","712","","A","null","77","77","1","swim-dual-task","","A","uppercase","374000","0","3","520771299f51d40fc6cc744b707e725729864ca4df96567099a7c988cc1f78fa","374000","712","77","1","swim","","","","",""
"dual-task","null","null","null","","arctic","arctic","629","","R","null","77","77","1","swim-dual-task","","R","uppercase","382000","0","3","520771299f51d40fc6cc744b707e725729864ca4df96567099a7c988cc1f78fa","382000","629","77","1","swim","","","","",""
"dual-task","null","null","null","","arctic","arctic","658","","A","null","77","77","1","swim-dual-task","","A","uppercase","392000","0","3","520771299f51d40fc6cc744b707e725729864ca4df96567099a7c988cc1f78fa","392011","658","77","1","swim","","","","",""
"dual-task","null","null","null","","arctic","arctic","661","","q","null","88","88","1","swim-dual-task","","q","lowercase","400000","0","3","520771299f51d40fc6cc744b707e725729864ca4df96567099a7c988cc1f78fa","400010","661","88","1","swim","","","","",""
"dual-task","null","null","null","","arctic","arctic","542","","n","null","88","88","1","swim-dual-task","","n","lowercase","414000","0","3","520771299f51d40fc6cc744b707e725729864ca4df96567099a7c988cc1f78fa","414010","542","88","1","swim","","","","",""
"dual-task","null","null","null","","arctic","arctic","617","","g","null","88","88","1","swim-dual-task","","g","lowercase","424000","0","3","520771299f51d40fc6cc744b707e725729864ca4df96567099a7c988cc1f78fa","424000","617","88","1","swim","","","","",""
"dual-task","null","null","null","","arctic","arctic","622","","N","null","77","77","1","swim-dual-task","","N","uppercase","434000","0","3","520771299f51d40fc6cc744b707e725729864ca4df96567099a7c988cc1f78fa","434003","622","77","1","swim","","","","",""
"dual-task","null","null","null","","arctic","arctic","656","","a","null","88","88","1","swim-dual-task","","a","lowercase","446000","0","3","520771299f51d40fc6cc744b707e725729864ca4df96567099a7c988cc1f78fa","446001","656","88","1","swim","","","","",""
"dual-task","null","null","null","","arctic","arctic","665","","F","null","77","77","1","swim-dual-task","","F","uppercase","456000","0","3","520771299f51d40fc6cc744b707e725729864ca4df96567099a7c988cc1f78fa","456002","665","77","1","swim","","","","",""
"dual-task","null","null","null","","arctic","arctic","720","","Q","null","88","77","0","swim-dual-task","","Q","uppercase","466000","0","3","520771299f51d40fc6cc744b707e725729864ca4df96567099a7c988cc1f78fa","466014","720","88","0","swim","","","","",""
"dual-task","null","null","null","","arctic","arctic","719","","Q","null","88","77","0","swim-dual-task","","Q","uppercase","478000","0","3","520771299f51d40fc6cc744b707e725729864ca4df96567099a7c988cc1f78fa","477999","719","88","0","swim","","","","",""
"dual-task","null","null","null","","arctic","arctic","694","","A","null","77","77","1","swim-dual-task","","A","uppercase","488000","0","3","520771299f51d40fc6cc744b707e725729864ca4df96567099a7c988cc1f78fa","488000","694","77","1","swim","","","","",""
"dual-task","null","null","null","","arctic","arctic","771","","b","null","88","88","1","swim-dual-task","","b","lowercase","498000","0","3","520771299f51d40fc6cc744b707e725729864ca4df96567099a7c988cc1f78fa","498009","771","88","1","swim","","","","",""
"dual-task","null","null","null","","arctic","arctic","736","","e","null","88","88","1","swim-dual-task","","e","lowercase","512000","0","3","520771299f51d40fc6cc744b707e725729864ca4df96567099a7c988cc1f78fa","512012","736","88","1","swim","","","","",""
"dual-task","null","null","null","","arctic","arctic","657","","Q","null","77","77","1","swim-dual-task","","Q","uppercase","518000","0","3","520771299f51d40fc6cc744b707e725729864ca4df96567099a7c988cc1f78fa","518000","657","77","1","swim","","","","",""
"dual-task","null","null","null","","arctic","arctic","906","","h","null","88","88","1","swim-dual-task","","h","lowercase","524000","0","3","520771299f51d40fc6cc744b707e725729864ca4df96567099a7c988cc1f78fa","524012","906","88","1","swim","","","","",""
"dual-task","null","null","null","","arctic","arctic","864","","E","null","88","77","0","swim-dual-task","","E","uppercase","536000","0","3","520771299f51d40fc6cc744b707e725729864ca4df96567099a7c988cc1f78fa","536011","864","88","0","swim","","","","",""
"dual-task","null","null","null","","arctic","arctic","579","","d","null","88","88","1","swim-dual-task","","d","lowercase","550000","0","3","520771299f51d40fc6cc744b707e725729864ca4df96567099a7c988cc1f78fa","550000","579","88","1","swim","","","","",""
"dual-task","null","null","null","","arctic","arctic","576","","B","null","77","77","1","swim-dual-task","","B","uppercase","556000","0","3","520771299f51d40fc6cc744b707e725729864ca4df96567099a7c988cc1f78fa","556001","576","77","1","swim","","","","",""
"dual-task","null","null","null","","arctic","arctic","693","","b","null","77","88","0","swim-dual-task","","b","lowercase","562000","0","3","520771299f51d40fc6cc744b707e725729864ca4df96567099a7c988cc1f78fa","562011","693","77","0","swim","","","","",""
"dual-task","null","null","null","","arctic","arctic","862","","t","null","88","88","1","swim-dual-task","","t","lowercase","568000","0","3","520771299f51d40fc6cc744b707e725729864ca4df96567099a7c988cc1f78fa","568004","862","88","1","swim","","","","",""
"dual-task","null","null","null","","arctic","arctic","615","","H","null","77","77","1","swim-dual-task","","H","uppercase","580000","0","3","520771299f51d40fc6cc744b707e725729864ca4df96567099a7c988cc1f78fa","580002","615","77","1","swim","","","","",""
"dual-task","null","null","null","","arctic","arctic","947","","E","null","88","77","0","swim-dual-task","","E","uppercase","590000","0","3","520771299f51d40fc6cc744b707e725729864ca4df96567099a7c988cc1f78fa","590002","947","88","0","swim","","","","",""
"dual-task","null","null","null","","arctic","arctic","647","","t","null","88","88","1","swim-dual-task","","t","lowercase","604000","0","3","520771299f51d40fc6cc744b707e725729864ca4df96567099a7c988cc1f78fa","604002","647","88","1","swim","","","","",""
"dual-task","null","null","null","","arctic","arctic","673","","T","null","77","77","1","swim-dual-task","","T","uppercase","614000","0","3","520771299f51d40fc6cc744b707e725729864ca4df96567099a7c988cc1f78fa","614000","673","77","1","swim","","","","",""
"dual-task","null","null","null","","arctic","arctic","721","","G","null","77","77","1","swim-dual-task","","G","uppercase","624000","0","3","520771299f51d40fc6cc744b707e725729864ca4df96567099a7c988cc1f78fa","624000","721","77","1","swim","","","","",""
"dual-task","null","null","null","","arctic","arctic","599","","b","null","88","88","1","swim-dual-task","","b","lowercase","632000","0","3","520771299f51d40fc6cc744b707e725729864ca4df96567099a7c988cc1f78fa","632012","599","88","1","swim","","","","",""
"dual-task","null","null","null","","arctic","arctic","717","","r","null","88","88","1","swim-dual-task","","r","lowercase","642000","0","3","520771299f51d40fc6cc744b707e725729864ca4df96567099a7c988cc1f78fa","642002","717","88","1","swim","","","","",""
"dual-task","null","null","null","","arctic","arctic","726","","n","null","88","88","1","swim-dual-task","","n","lowercase","648000","0","3","520771299f51d40fc6cc744b707e725729864ca4df96567099a7c988cc1f78fa","648002","726","88","1","swim","","","","",""
"dual-task","null","null","null","","arctic","arctic","937","","q","null","77","88","0","swim-dual-task","","q","lowercase","660000","0","3","520771299f51d40fc6cc744b707e725729864ca4df96567099a7c988cc1f78fa","660012","937","77","0","swim","","","","",""
"dual-task","null","null","null","","arctic","arctic","647","","a","null","88","88","1","swim-dual-task","","a","lowercase","670000","0","3","520771299f51d40fc6cc744b707e725729864ca4df96567099a7c988cc1f78fa","670012","647","88","1","swim","","","","",""
"dual-task","null","null","null","","arctic","arctic","783","","h","null","88","88","1","swim-dual-task","","h","lowercase","680000","0","3","520771299f51d40fc6cc744b707e725729864ca4df96567099a7c988cc1f78fa","680012","783","88","1","swim","","","","",""
"dual-task","null","null","null","","arctic","arctic","776","","f","null","88","88","1","swim-dual-task","","f","lowercase","692000","0","3","520771299f51d40fc6cc744b707e725729864ca4df96567099a7c988cc1f78fa","692002","776","88","1","swim","","","","",""
"dual-task","null","null","null","","arctic","arctic","876","","T","null","77","77","1","swim-dual-task","","T","uppercase","702000","0","3","520771299f51d40fc6cc744b707e725729864ca4df96567099a7c988cc1f78fa","702003","876","77","1","swim","","","","",""
"dual-task","null","null","null","","arctic","arctic","684","","f","null","88","88","1","swim-dual-task","","f","lowercase","710000","0","3","520771299f51d40fc6cc744b707e725729864ca4df96567099a7c988cc1f78fa","710001","684","88","1","swim","","","","",""
"dual-task","null","null","null","","arctic","arctic","887","","a","null","88","88","1","swim-dual-task","","a","lowercase","718000","0","3","520771299f51d40fc6cc744b707e725729864ca4df96567099a7c988cc1f78fa","718013","887","88","1","swim","","","","",""
"dual-task","null","null","null","","arctic","arctic","1105","","A","null","77","77","1","swim-dual-task","","A","uppercase","730000","0","3","520771299f51d40fc6cc744b707e725729864ca4df96567099a7c988cc1f78fa","730000","1105","77","1","swim","","","","",""
"dual-task","null","null","null","","arctic","arctic","534","","E","null","77","77","1","swim-dual-task","","E","uppercase","742000","0","3","520771299f51d40fc6cc744b707e725729864ca4df96567099a7c988cc1f78fa","742001","534","77","1","swim","","","","",""
"dual-task","null","null","null","","arctic","arctic","668","","t","null","88","88","1","swim-dual-task","","t","lowercase","748000","0","3","520771299f51d40fc6cc744b707e725729864ca4df96567099a7c988cc1f78fa","748002","668","88","1","swim","","","","",""
"dual-task","null","null","null","","arctic","arctic","679","","G","null","77","77","1","swim-dual-task","","G","uppercase","762000","0","3","520771299f51d40fc6cc744b707e725729864ca4df96567099a7c988cc1f78fa","762012","679","77","1","swim","","","","",""
"dual-task","null","null","null","","arctic","arctic","750","","Q","null","88","77","0","swim-dual-task","","Q","uppercase","772000","0","3","520771299f51d40fc6cc744b707e725729864ca4df96567099a7c988cc1f78fa","772012","750","88","0","swim","","","","",""
"dual-task","null","null","null","","arctic","arctic","560","","e","null","88","88","1","swim-dual-task","","e","lowercase","784000","0","3","520771299f51d40fc6cc744b707e725729864ca4df96567099a7c988cc1f78fa","784002","560","88","1","swim","","","","",""
"dual-task","null","null","null","","arctic","arctic","635","","g","null","88","88","1","swim-dual-task","","g","lowercase","792000","0","3","520771299f51d40fc6cc744b707e725729864ca4df96567099a7c988cc1f78fa","792000","635","88","1","swim","","","","",""
"audio-keyboard-response","62","2263933","0.0-6.0-2.0-1.0","520771299f51d40fc6cc744b707e725729864ca4df96567099a7c988cc1f78fa","arctic","arctic","null","","audio/story_swim.mp3","","null","","","","","","","","","","","","","","","","","","","",""
"html-button-response","63","2271137","0.0-6.0-2.0-2.0","520771299f51d40fc6cc744b707e725729864ca4df96567099a7c988cc1f78fa","arctic","arctic","7203","","<p>This concludes the story. Thank you for listening.</p><p>You will now answer some questions about the content of the story.</p>","0","","","","","","","","","","","","","","","","","","","","",""
"survey-multi-choice","64","2284233","0.0-6.0-2.0-3.0-0.0","520771299f51d40fc6cc744b707e725729864ca4df96567099a7c988cc1f78fa","arctic","arctic","13094","","<b>What were the astronaut candidates trained to do at the naval air station?</b>","","","","1","swim-comprehension","","","","","","","","","","","","","{""Q0"":""Eject out of aircraft and survive in water long enough to be rescued""}","","","",""
"survey-multi-choice","65","2290369","0.0-6.0-2.0-3.0-0.1","520771299f51d40fc6cc744b707e725729864ca4df96567099a7c988cc1f78fa","arctic","arctic","5875","","<b>How many astronaut candidates reported for duty at the Johnson Space Center?</b>","","","","1","swim-comprehension","","","","","","","","","","","","","{""Q0"":""Forty-four""}","","","",""
"survey-multi-choice","66","2294844","0.0-6.0-2.0-3.0-0.2","520771299f51d40fc6cc744b707e725729864ca4df96567099a7c988cc1f78fa","arctic","arctic","4208","","<b>Where is the home of naval aviation?</b>","","","","0","swim-comprehension","","","","","","","","","","","","","{""Q0"":""Los Angeles""}","","","",""
"survey-multi-choice","67","2309817","0.0-6.0-2.0-3.0-0.3","520771299f51d40fc6cc744b707e725729864ca4df96567099a7c988cc1f78fa","arctic","arctic","14717","","<b>How often does the narrator swim, now that he is a good swimmer?</b>","","","","1","swim-comprehension","","","","","","","","","","","","","{""Q0"":""Never swam again in his life""}","","","",""
"survey-multi-choice","68","2315378","0.0-6.0-2.0-3.0-0.4","520771299f51d40fc6cc744b707e725729864ca4df96567099a7c988cc1f78fa","arctic","arctic","5306","","<b>How many times did the astronaut candidates have to complete the final exercise to pass?</b>","","","","1","swim-comprehension","","","","","","","","","","","","","{""Q0"":""Two""}","","","",""
"survey-multi-choice","69","2318590","0.0-6.0-2.0-3.0-0.5","520771299f51d40fc6cc744b707e725729864ca4df96567099a7c988cc1f78fa","arctic","arctic","2943","","<b>What is the narrator afraid of, aside from the water?</b>","","","","1","swim-comprehension","","","","","","","","","","","","","{""Q0"":""Heights""}","","","",""
"survey-multi-choice","70","2329990","0.0-6.0-2.0-3.0-0.6","520771299f51d40fc6cc744b707e725729864ca4df96567099a7c988cc1f78fa","arctic","arctic","11146","","<b>What was the final step of the first swim test in the pool?</b>","","","","1","swim-comprehension","","","","","","","","","","","","","{""Q0"":""Tread water with hands above the water""}","","","",""
"survey-multi-choice","71","2337386","0.0-6.0-2.0-3.0-0.7","520771299f51d40fc6cc744b707e725729864ca4df96567099a7c988cc1f78fa","arctic","arctic","7141","","<b>What gave the narrator his greatest feeling of accomplishment?</b>","","","","1","swim-comprehension","","","","","","","","","","","","","{""Q0"":""Passing the water survival course""}","","","",""
"survey-multi-choice","72","2344037","0.0-6.0-2.0-3.0-0.8","520771299f51d40fc6cc744b707e725729864ca4df96567099a7c988cc1f78fa","arctic","arctic","6389","","<b>How many astronaut candidates passed the first swim test?</b>","","","","1","swim-comprehension","","","","","","","","","","","","","{""Q0"":""All of them""}","","","",""
"survey-multi-choice","73","2349949","0.0-6.0-2.0-3.0-0.9","520771299f51d40fc6cc744b707e725729864ca4df96567099a7c988cc1f78fa","arctic","arctic","5645","","<b>How did the narrator train for his swim test?</b>","","","","1","swim-comprehension","","","","","","","","","","","","","{""Q0"":""Took his kids to the pool every day""}","","","",""
"html-button-response","74","2351459","0.0-6.0-2.0-4.0","520771299f51d40fc6cc744b707e725729864ca4df96567099a7c988cc1f78fa","arctic","arctic","1257","","<p>Thank you for your responses.</p><p>You will now answer some questions about your impressions of the story.</p>","0","","","","","","","","","","","","","","","","","","","","",""
"html-button-response","75","2354320","0.0-6.0-2.0-5.0-0.0","520771299f51d40fc6cc744b707e725729864ca4df96567099a7c988cc1f78fa","arctic","arctic","2860","","A2","5","","","","swim-engagement","","","","","","","","","","","","","","6","absorption","",""
"html-button-response","76","2356572","0.0-6.0-2.0-5.0-0.1","520771299f51d40fc6cc744b707e725729864ca4df96567099a7c988cc1f78fa","arctic","arctic","2000","","EE1","4","","","","swim-engagement","","","","","","","","","","","","","","5","emo-engage","",""
"html-button-response","77","2358582","0.0-6.0-2.0-5.0-0.2","520771299f51d40fc6cc744b707e725729864ca4df96567099a7c988cc1f78fa","arctic","arctic","1755","","MS2","5","","","","swim-engagement","","","","","","","","","","","","","","6","mental-sim","",""
"html-button-response","78","2360909","0.0-6.0-2.0-5.0-0.3","520771299f51d40fc6cc744b707e725729864ca4df96567099a7c988cc1f78fa","arctic","arctic","2065","","E6","4","","","","swim-engagement","","","","","","","","","","","","","","5","enjoyment","",""
"html-button-response","79","2362532","0.0-6.0-2.0-5.0-0.4","520771299f51d40fc6cc744b707e725729864ca4df96567099a7c988cc1f78fa","arctic","arctic","1371","","E7","5","","","","swim-engagement","","","","","","","","","","","","","","6","enjoyment","",""
"html-button-response","80","2363962","0.0-6.0-2.0-5.0-0.5","520771299f51d40fc6cc744b707e725729864ca4df96567099a7c988cc1f78fa","arctic","arctic","1177","","A3","6","","","","swim-engagement","","","","","","","","","","","","","","7","absorption","",""
"html-button-response","81","2366888","0.0-6.0-2.0-5.0-0.6","520771299f51d40fc6cc744b707e725729864ca4df96567099a7c988cc1f78fa","arctic","arctic","2675","","EE2","3","","","","swim-engagement","","","","","","","","","","","","","","4","emo-engage","",""
"html-button-response","82","2368566","0.0-6.0-2.0-5.0-0.7","520771299f51d40fc6cc744b707e725729864ca4df96567099a7c988cc1f78fa","arctic","arctic","1427","","EE4","5","","","","swim-engagement","","","","","","","","","","","","","","6","emo-engage","",""
"html-button-response","83","2371474","0.0-6.0-2.0-5.0-0.8","520771299f51d40fc6cc744b707e725729864ca4df96567099a7c988cc1f78fa","arctic","arctic","2643","","EE5","5","","","","swim-engagement","","","","","","","","","","","","","","6","emo-engage","",""
"html-button-response","84","2373297","0.0-6.0-2.0-5.0-0.9","520771299f51d40fc6cc744b707e725729864ca4df96567099a7c988cc1f78fa","arctic","arctic","1555","","E8","6","","","","swim-engagement","","","","","","","","","","","","","","7","enjoyment","",""
"html-button-response","85","2375922","0.0-6.0-2.0-5.0-0.10","520771299f51d40fc6cc744b707e725729864ca4df96567099a7c988cc1f78fa","arctic","arctic","2371","","A1","6","","","","swim-engagement","","","","","","","","","","","","","","7","absorption","",""
"html-button-response","86","2380013","0.0-6.0-2.0-5.0-0.11","520771299f51d40fc6cc744b707e725729864ca4df96567099a7c988cc1f78fa","arctic","arctic","3819","","A5","5","","","","swim-engagement","","","","","","","","","","","","","","6","absorption","",""
"html-button-response","87","2384097","0.0-6.0-2.0-5.0-0.12","520771299f51d40fc6cc744b707e725729864ca4df96567099a7c988cc1f78fa","arctic","arctic","3821","","MS1","5","","","","swim-engagement","","","","","","","","","","","","","","6","mental-sim","",""
"html-button-response","88","2386073","0.0-6.0-2.0-5.0-0.13","520771299f51d40fc6cc744b707e725729864ca4df96567099a7c988cc1f78fa","arctic","arctic","1711","","MS3","5","","","","swim-engagement","","","","","","","","","","","","","","6","mental-sim","",""
"html-button-response","89","2388178","0.0-6.0-2.0-5.0-0.14","520771299f51d40fc6cc744b707e725729864ca4df96567099a7c988cc1f78fa","arctic","arctic","1846","","EE3","5","","","","swim-engagement","","","","","","","","","","","","","","6","emo-engage","",""
"html-button-response","90","2390081","0.0-6.0-2.0-5.0-0.15","520771299f51d40fc6cc744b707e725729864ca4df96567099a7c988cc1f78fa","arctic","arctic","1639","","E1","6","","","","swim-engagement","","","","","","","","","","","","","","7","enjoyment","",""
"html-button-response","91","2393370","0.0-6.0-2.0-5.0-0.16","520771299f51d40fc6cc744b707e725729864ca4df96567099a7c988cc1f78fa","arctic","arctic","3017","","A4","5","","","","swim-engagement","","","","","","","","","","","","","","6","absorption","",""
"html-button-response","92","2395494","0.0-6.0-2.0-5.0-0.17","520771299f51d40fc6cc744b707e725729864ca4df96567099a7c988cc1f78fa","arctic","arctic","1872","","E10","6","","","","swim-engagement","","","","","","","","","","","","","","7","enjoyment","",""
"html-button-response","93","2396933","0.0-8.0","520771299f51d40fc6cc744b707e725729864ca4df96567099a7c988cc1f78fa","arctic","arctic","1182","","<p>Thank you for your responses.</p><p>You will now answer some demographic, hearing, and general health questions.</p>","0","","","","","","","","","","","","","","","","","","","","",""
"survey-multi-choice","94","2416588","0.0-9.0-0.0","520771299f51d40fc6cc744b707e725729864ca4df96567099a7c988cc1f78fa","arctic","arctic","19654","","","","","","","survey","","","","","","","","","","","","","{""Q0"":""Firefox""}","","","browser",""
"survey-text","95","2420397","0.0-9.0-1.0","520771299f51d40fc6cc744b707e725729864ca4df96567099a7c988cc1f78fa","arctic","arctic","3544","","","","","","","survey","","","","","","","","","","","","","{""AGE"":""28""}","","","age","28"
"survey-multi-choice","96","2424410","0.0-9.0-2.0","520771299f51d40fc6cc744b707e725729864ca4df96567099a7c988cc1f78fa","arctic","arctic","3753","","","","","","","survey","","","","","","","","","","","","","{""Q0"":""Male""}","","","gender","Male"
"survey-multi-choice","97","2426993","0.0-9.0-4.0","520771299f51d40fc6cc744b707e725729864ca4df96567099a7c988cc1f78fa","arctic","arctic","2331","","","","","","","survey","","","","","","","","","","","","","{""Q0"":""Right""}","","","handedness","Right"
"survey-multi-choice","98","2429221","0.0-9.0-5.0","520771299f51d40fc6cc744b707e725729864ca4df96567099a7c988cc1f78fa","arctic","arctic","1974","","","","","","","survey","","","","","","","","","","","","","{""Q0"":""Bachelor's Degree""}","","","education","Bachelor's Degree"
"survey-text","99","2433423","0.0-10.0-0.0","520771299f51d40fc6cc744b707e725729864ca4df96567099a7c988cc1f78fa","arctic","arctic","3926","","","","","","","survey","","","","","","","","","","","","","{""L1"":""english""}","","","first-language","english"
"survey-text","100","2438155","0.0-10.0-1.0","520771299f51d40fc6cc744b707e725729864ca4df96567099a7c988cc1f78fa","arctic","arctic","4464","","","","","","","survey","","","","","","","","","","","","","{""L2name"":"""",""L2fluency"":"""",""L3name"":"""",""L3fluency"":"""",""L4name"":"""",""L4fluency"":""""}","","","additional-languages","{""L2name"":"""",""L2fluency"":"""",""L3name"":"""",""L3fluency"":"""",""L4name"":"""",""L4fluency"":""""}"
"survey-multi-choice","101","2441759","0.0-10.0-2.0","520771299f51d40fc6cc744b707e725729864ca4df96567099a7c988cc1f78fa","arctic","arctic","3351","","","","","","","survey","","","","","","","","","","","","","{""Q0"":""No""}","","","hearing-aid","No"
"survey-multi-choice","102","2445264","0.0-10.0-3.0","520771299f51d40fc6cc744b707e725729864ca4df96567099a7c988cc1f78fa","arctic","arctic","3249","","","","","","","survey","","","","","","","","","","","","","{""Q0"":""Never""}","","","ringing-ears","Never"
"survey-multi-choice","103","2448090","0.0-10.0-5.0","520771299f51d40fc6cc744b707e725729864ca4df96567099a7c988cc1f78fa","arctic","arctic","2565","","","","","","","survey","","","","","","","","","","","","","{""Q0"":""No""}","","","neuro-disease","No"
"survey-multi-choice","104","2459481","0.0-10.0-7.0","520771299f51d40fc6cc744b707e725729864ca4df96567099a7c988cc1f78fa","arctic","arctic","11127","","","","","","","survey","","","","","","","","","","","","","{""Q0"":""No""}","","","take-meds","No"
"survey-text","105","2465450","0.0-10.0-9.0","520771299f51d40fc6cc744b707e725729864ca4df96567099a7c988cc1f78fa","arctic","arctic","5705","","","","","","","survey","","","","","","","","","","","","","{""HC"":""""}","","","health-concerns",""
"html-button-response","106","2467934","0.0-11.0-0.0","520771299f51d40fc6cc744b707e725729864ca4df96567099a7c988cc1f78fa","arctic","arctic","2230","","<p>How would you describe your musical skills/experiences?</p>","1","","","","survey","","","","","","","","","","","","","","","","music-skill","2"
"survey-multi-choice","107","2470384","0.0-11.0-1.0","520771299f51d40fc6cc744b707e725729864ca4df96567099a7c988cc1f78fa","arctic","arctic","2198","","","","","","","survey","","","","","","","","","","","","","{""Q0"":""No""}","","","music-instrument","No"
"html-button-response","108","2473795","0.0-12.0-0.0","520771299f51d40fc6cc744b707e725729864ca4df96567099a7c988cc1f78fa","arctic","arctic","3140","","<p>How would you describe your general hearing abilities?</p>","5","","","","survey","","","","","","","","","","","","","","","","ssq-01","6"
"html-button-response","109","2492497","0.0-12.0-1.0","520771299f51d40fc6cc744b707e725729864ca4df96567099a7c988cc1f78fa","arctic","arctic","18433","","<p>When you talk with someone at a place that strongly reverberates/echoes (e.g., in a church or train station),</br>can you understand what the person says?</p>","6","","","","survey","","","","","","","","","","","","","","","","ssq-02","6"
"html-button-response","110","2497015","0.0-12.0-2.0","520771299f51d40fc6cc744b707e725729864ca4df96567099a7c988cc1f78fa","arctic","arctic","4254","","<p>When you are with a group (~5 people) in a lively restaurant, can you follow the group's conversation?</p>","8","","","","survey","","","","","","","","","","","","","","","","ssq-03","8"
"html-button-response","111","2500106","0.0-12.0-3.0","520771299f51d40fc6cc744b707e725729864ca4df96567099a7c988cc1f78fa","arctic","arctic","2821","","<p>Based on the sound of a bus or truck, can you tell whether it is moving towards or away from you?</p>","9","","","","survey","","","","","","","","","","","","","","","","ssq-04","9"
"html-button-response","112","2505573","0.0-12.0-4.0","520771299f51d40fc6cc744b707e725729864ca4df96567099a7c988cc1f78fa","arctic","arctic","5202","","<p>When you are in an unknown environment, can you tell from which direction a brief sound originates?</p>","8","","","","survey","","","","","","","","","","","","","","","","ssq-05","8"
"html-button-response","113","2509125","0.0-12.0-5.0","520771299f51d40fc6cc744b707e725729864ca4df96567099a7c988cc1f78fa","arctic","arctic","3289","","<p>Are you able to ignore distracting sounds when you concentrate on a specific aspect of your acoustic surrounding?</p>","6","","","","survey","","","","","","","","","","","","","","","","ssq-06","6"
"fullscreen","114","2510384","0.0-13.0","520771299f51d40fc6cc744b707e725729864ca4df96567099a7c988cc1f78fa","arctic","arctic","","","","","","","","","true","","","","","","","","","","","","","","","",""
