"trial_type","trial_index","time_elapsed","internal_node_id","ParticipantID","firstStory","scramStory","rt","url","stimulus","button_pressed","key_press","correctRESP","correct","designation","success","letterStim","letterType","ONSET","TIMEOUT","CONDITION","Participant","ONSET_ACTUAL","RT","RESP","ACC","STORY","responses","response","type","surveyQuestion","QRESP"
"pavlovia","0","18","0.0-0.0","85a0f81952ddf4239deec3e553483b882ec6c330766b4fc2a6a58baf22784309","arctic","swim","","","","","","","","","","","","","","","","","","","","","","","","",""
"external-html","1","6777","0.0-1.0","85a0f81952ddf4239deec3e553483b882ec6c330766b4fc2a6a58baf22784309","arctic","swim","5763","consent/consent_updated.html","","","","","","","","","","","","","","","","","","","","","","",""
"html-button-response","2","13870","0.0-2.0-0.0","85a0f81952ddf4239deec3e553483b882ec6c330766b4fc2a6a58baf22784309","arctic","swim","7092","","<p>Before we begin the main task, you will complete a short volume calibration and headphone check.</p><p>Please make sure you are in a quiet listening environment, that you are wearing headphones, and that your computer's volume is turned on.<p></p>","0","","","","","","","","","","","","","","","","","","","","",""
"html-button-response","3","25822","0.0-2.0-1.0","85a0f81952ddf4239deec3e553483b882ec6c330766b4fc2a6a58baf22784309","arctic","swim","11701","","<p>The volume calibration will be first.</p><p>You will hear a thirty-second noise. Please adjust your computer's volume so that this noise is being presented at a comfortable level.<p></p>","0","","","","","","","","","","","","","","","","","","","","",""
"audio-button-response","4","35355","0.0-2.0-2.0","85a0f81952ddf4239deec3e553483b882ec6c330766b4fc2a6a58baf22784309","arctic","swim","9277","","audio/volumetest.mp3","0","","","","","","","","","","","","","","","","","","","","",""
"html-keyboard-response","5","41812","0.0-3.0-0.0","85a0f81952ddf4239deec3e553483b882ec6c330766b4fc2a6a58baf22784309","arctic","swim","6451","","<p>You will now complete a short headphone check.</p><p>On each trial, you will hear three tones. One of these tones will be quieter than the others. Your task is to identify whether the quiet tone occurred first, second, or third.</p><p>There are six trials in total.<p></p><p></p>(Press SPACEBAR to begin)","","32","","","","","","","","","","","","","","","","","","","",""
"html-keyboard-response","6","42582","0.0-3.0-1.0-0.0","85a0f81952ddf4239deec3e553483b882ec6c330766b4fc2a6a58baf22784309","arctic","swim","null","","<div style=""font-size:60px;"">+</div>","","null","","","","","","","","","","","","","","","","","","","",""
"audio-button-response","7","47030","0.0-3.0-1.0-1.0","85a0f81952ddf4239deec3e553483b882ec6c330766b4fc2a6a58baf22784309","arctic","swim","4443","","audio/t1_2.mp3","2","","0","0","headphone-test","","","","","","","","","","","","","","","","",""
"html-keyboard-response","8","47546","0.0-3.0-1.0-2.0","85a0f81952ddf4239deec3e553483b882ec6c330766b4fc2a6a58baf22784309","arctic","swim","null","","<p>Incorrect</p>","","null","","","","","","","","","","","","","","","","","","","",""
"html-keyboard-response","9","48055","0.0-3.0-1.0-0.1","85a0f81952ddf4239deec3e553483b882ec6c330766b4fc2a6a58baf22784309","arctic","swim","null","","<div style=""font-size:60px;"">+</div>","","null","","","","","","","","","","","","","","","","","","","",""
"audio-button-response","10","53420","0.0-3.0-1.0-1.1","85a0f81952ddf4239deec3e553483b882ec6c330766b4fc2a6a58baf22784309","arctic","swim","5364","","audio/t1_1.mp3","1","","0","0","headphone-test","","","","","","","","","","","","","","","","",""
"html-keyboard-response","11","53933","0.0-3.0-1.0-2.1","85a0f81952ddf4239deec3e553483b882ec6c330766b4fc2a6a58baf22784309","arctic","swim","null","","<p>Incorrect</p>","","null","","","","","","","","","","","","","","","","","","","",""
"html-keyboard-response","12","54437","0.0-3.0-1.0-0.2","85a0f81952ddf4239deec3e553483b882ec6c330766b4fc2a6a58baf22784309","arctic","swim","null","","<div style=""font-size:60px;"">+</div>","","null","","","","","","","","","","","","","","","","","","","",""
"audio-button-response","13","59133","0.0-3.0-1.0-1.2","85a0f81952ddf4239deec3e553483b882ec6c330766b4fc2a6a58baf22784309","arctic","swim","4692","","audio/t2_2.mp3","1","","1","1","headphone-test","","","","","","","","","","","","","","","","",""
"html-keyboard-response","14","59634","0.0-3.0-1.0-2.2","85a0f81952ddf4239deec3e553483b882ec6c330766b4fc2a6a58baf22784309","arctic","swim","null","","<p>Correct</p>","","null","","","","","","","","","","","","","","","","","","","",""
"html-keyboard-response","15","60152","0.0-3.0-1.0-0.3","85a0f81952ddf4239deec3e553483b882ec6c330766b4fc2a6a58baf22784309","arctic","swim","null","","<div style=""font-size:60px;"">+</div>","","null","","","","","","","","","","","","","","","","","","","",""
"audio-button-response","16","64300","0.0-3.0-1.0-1.3","85a0f81952ddf4239deec3e553483b882ec6c330766b4fc2a6a58baf22784309","arctic","swim","4145","","audio/t3_1.mp3","2","","2","1","headphone-test","","","","","","","","","","","","","","","","",""
"html-keyboard-response","17","64801","0.0-3.0-1.0-2.3","85a0f81952ddf4239deec3e553483b882ec6c330766b4fc2a6a58baf22784309","arctic","swim","null","","<p>Correct</p>","","null","","","","","","","","","","","","","","","","","","","",""
"html-keyboard-response","18","65307","0.0-3.0-1.0-0.4","85a0f81952ddf4239deec3e553483b882ec6c330766b4fc2a6a58baf22784309","arctic","swim","null","","<div style=""font-size:60px;"">+</div>","","null","","","","","","","","","","","","","","","","","","","",""
"audio-button-response","19","69428","0.0-3.0-1.0-1.4","85a0f81952ddf4239deec3e553483b882ec6c330766b4fc2a6a58baf22784309","arctic","swim","4117","","audio/t3_2.mp3","2","","2","1","headphone-test","","","","","","","","","","","","","","","","",""
"html-keyboard-response","20","69945","0.0-3.0-1.0-2.4","85a0f81952ddf4239deec3e553483b882ec6c330766b4fc2a6a58baf22784309","arctic","swim","null","","<p>Correct</p>","","null","","","","","","","","","","","","","","","","","","","",""
"html-keyboard-response","21","70461","0.0-3.0-1.0-0.5","85a0f81952ddf4239deec3e553483b882ec6c330766b4fc2a6a58baf22784309","arctic","swim","null","","<div style=""font-size:60px;"">+</div>","","null","","","","","","","","","","","","","","","","","","","",""
"audio-button-response","22","74668","0.0-3.0-1.0-1.5","85a0f81952ddf4239deec3e553483b882ec6c330766b4fc2a6a58baf22784309","arctic","swim","4204","","audio/t2_1.mp3","1","","1","1","headphone-test","","","","","","","","","","","","","","","","",""
"html-keyboard-response","23","75169","0.0-3.0-1.0-2.5","85a0f81952ddf4239deec3e553483b882ec6c330766b4fc2a6a58baf22784309","arctic","swim","null","","<p>Correct</p>","","null","","","","","","","","","","","","","","","","","","","",""
"fullscreen","24","77354","0.0-4.0","85a0f81952ddf4239deec3e553483b882ec6c330766b4fc2a6a58baf22784309","arctic","swim","","","","","","","","","true","","","","","","","","","","","","","","","",""
"html-button-response","25","88660","0.0-5.0-0.0","85a0f81952ddf4239deec3e553483b882ec6c330766b4fc2a6a58baf22784309","arctic","swim","11305","","<p>There are two blocks to this experiment.</p><p>In each block, you will hear a ~13.5 minute story. One of the stories will be scrambled. Please listen carefully to both stories and understand them as best you can.</p><p>After each story, you will be asked some questions to assess your comprehension.</p>","0","","","","","","","","","","","","","","","","","","","","",""
"html-button-response","26","101373","0.0-5.0-1.0","85a0f81952ddf4239deec3e553483b882ec6c330766b4fc2a6a58baf22784309","arctic","swim","12712","","<p>During each story, there will be an additional task.</p><p>A letter will occasionally appear on the screen.</br>Your job is to - as quickly as you can - decide whether the letter is lowercase or uppercase and press one of two keys on the keyboard:</p><p>If the letter is <b>lowercase</b>, press key &lt;<b>x</b>&gt;.</p><p>If the letter is <b>uppercase</b>, press key &lt;<b>m</b>&gt;.</p>","0","","","","","","","","","","","","","","","","","","","","",""
"html-keyboard-response","27","109200","0.0-5.0-2.0","85a0f81952ddf4239deec3e553483b882ec6c330766b4fc2a6a58baf22784309","arctic","swim","7826","","<p>Because we want your responses to be as quick as possible, please keep your index fingers over the keys while listening.</p><p>Each block lasts about 20 minutes.</p><p><b>Press &lt;x&gt; or &lt;m&gt; to start the first block!</b></p>","","88","","","","","","","","","","","","","","","","","","","",""
"html-keyboard-response","28","109706","0.0-6.0-0.0-0.0","85a0f81952ddf4239deec3e553483b882ec6c330766b4fc2a6a58baf22784309","arctic","swim","null","","<div style=""font-size:60px;"" tabindex=""0"">+</div>","","null","","","","","","","","","","","","","","","","","","","",""
"dual-task","null","null","null","","arctic","swim","790","","E","null","77","77","1","arctic-dual-task","","E","uppercase","14000","0","3","85a0f81952ddf4239deec3e553483b882ec6c330766b4fc2a6a58baf22784309","14004","790","77","1","arctic","","","","",""
"dual-task","null","null","null","","arctic","swim","879.2000000476837","","E","null","77","77","1","arctic-dual-task","","E","uppercase","28000","0","3","85a0f81952ddf4239deec3e553483b882ec6c330766b4fc2a6a58baf22784309","28002","879.2000000476837","77","1","arctic","","","","",""
"dual-task","null","null","null","","arctic","swim","577.1000000238419","","a","null","88","88","1","arctic-dual-task","","a","lowercase","38000","0","3","85a0f81952ddf4239deec3e553483b882ec6c330766b4fc2a6a58baf22784309","38002.200000047684","577.1000000238419","88","1","arctic","","","","",""
"dual-task","null","null","null","","arctic","swim","581.8999999761581","","e","null","88","88","1","arctic-dual-task","","e","lowercase","50000","0","3","85a0f81952ddf4239deec3e553483b882ec6c330766b4fc2a6a58baf22784309","50003.700000047684","581.8999999761581","88","1","arctic","","","","",""
"dual-task","null","null","null","","arctic","swim","540","","T","null","77","77","1","arctic-dual-task","","T","uppercase","58000","0","3","85a0f81952ddf4239deec3e553483b882ec6c330766b4fc2a6a58baf22784309","58004.10000002384","540","77","1","arctic","","","","",""
"dual-task","null","null","null","","arctic","swim","658.2000000476837","","E","null","77","77","1","arctic-dual-task","","E","uppercase","70000","0","3","85a0f81952ddf4239deec3e553483b882ec6c330766b4fc2a6a58baf22784309","70004.10000002384","658.2000000476837","77","1","arctic","","","","",""
"dual-task","null","null","null","","arctic","swim","523.5","","F","null","77","77","1","arctic-dual-task","","F","uppercase","84000","0","3","85a0f81952ddf4239deec3e553483b882ec6c330766b4fc2a6a58baf22784309","84002.5","523.5","77","1","arctic","","","","",""
"dual-task","null","null","null","","arctic","swim","450.7000000476837","","r","null","88","88","1","arctic-dual-task","","r","lowercase","98000","0","3","85a0f81952ddf4239deec3e553483b882ec6c330766b4fc2a6a58baf22784309","98012.70000004768","450.7000000476837","88","1","arctic","","","","",""
"dual-task","null","null","null","","arctic","swim","641.7999999523163","","N","null","77","77","1","arctic-dual-task","","N","uppercase","112000","0","3","85a0f81952ddf4239deec3e553483b882ec6c330766b4fc2a6a58baf22784309","112014.80000007153","641.7999999523163","77","1","arctic","","","","",""
"dual-task","null","null","null","","arctic","swim","1197.8999999761581","","e","null","88","88","1","arctic-dual-task","","e","lowercase","120000","0","3","85a0f81952ddf4239deec3e553483b882ec6c330766b4fc2a6a58baf22784309","120012.10000002384","1197.8999999761581","88","1","arctic","","","","",""
"dual-task","null","null","null","","arctic","swim","623.6000000238419","","D","null","77","77","1","arctic-dual-task","","D","uppercase","132000","0","3","85a0f81952ddf4239deec3e553483b882ec6c330766b4fc2a6a58baf22784309","132015.10000002384","623.6000000238419","77","1","arctic","","","","",""
"dual-task","null","null","null","","arctic","swim","521","","H","null","77","77","1","arctic-dual-task","","H","uppercase","146000","0","3","85a0f81952ddf4239deec3e553483b882ec6c330766b4fc2a6a58baf22784309","146001","521","77","1","arctic","","","","",""
"dual-task","null","null","null","","arctic","swim","636.3999999761581","","T","null","77","77","1","arctic-dual-task","","T","uppercase","154000","0","3","85a0f81952ddf4239deec3e553483b882ec6c330766b4fc2a6a58baf22784309","154003","636.3999999761581","77","1","arctic","","","","",""
"dual-task","null","null","null","","arctic","swim","577.3999999761581","","t","null","88","88","1","arctic-dual-task","","t","lowercase","164000","0","3","85a0f81952ddf4239deec3e553483b882ec6c330766b4fc2a6a58baf22784309","164013.39999997616","577.3999999761581","88","1","arctic","","","","",""
"dual-task","null","null","null","","arctic","swim","428.40000009536743","","e","null","88","88","1","arctic-dual-task","","e","lowercase","178000","0","3","85a0f81952ddf4239deec3e553483b882ec6c330766b4fc2a6a58baf22784309","178001.10000002384","428.40000009536743","88","1","arctic","","","","",""
"dual-task","null","null","null","","arctic","swim","520.2999999523163","","T","null","77","77","1","arctic-dual-task","","T","uppercase","186000","0","3","85a0f81952ddf4239deec3e553483b882ec6c330766b4fc2a6a58baf22784309","186011","520.2999999523163","77","1","arctic","","","","",""
"dual-task","null","null","null","","arctic","swim","503","","a","null","88","88","1","arctic-dual-task","","a","lowercase","200000","0","3","85a0f81952ddf4239deec3e553483b882ec6c330766b4fc2a6a58baf22784309","199999.60000002384","503","88","1","arctic","","","","",""
"dual-task","null","null","null","","arctic","swim","551.1000000238419","","r","null","88","88","1","arctic-dual-task","","r","lowercase","212000","0","3","85a0f81952ddf4239deec3e553483b882ec6c330766b4fc2a6a58baf22784309","212017.10000002384","551.1000000238419","88","1","arctic","","","","",""
"dual-task","null","null","null","","arctic","swim","670.7999999523163","","d","null","88","88","1","arctic-dual-task","","d","lowercase","220000","0","3","85a0f81952ddf4239deec3e553483b882ec6c330766b4fc2a6a58baf22784309","220010.39999997616","670.7999999523163","88","1","arctic","","","","",""
"dual-task","null","null","null","","arctic","swim","462.6999999284744","","H","null","77","77","1","arctic-dual-task","","H","uppercase","234000","0","3","85a0f81952ddf4239deec3e553483b882ec6c330766b4fc2a6a58baf22784309","234010.5","462.6999999284744","77","1","arctic","","","","",""
"dual-task","null","null","null","","arctic","swim","514.8000000715256","","d","null","88","88","1","arctic-dual-task","","d","lowercase","246000","0","3","85a0f81952ddf4239deec3e553483b882ec6c330766b4fc2a6a58baf22784309","246008.89999997616","514.8000000715256","88","1","arctic","","","","",""
"dual-task","null","null","null","","arctic","swim","651.7999999523163","","b","null","88","88","1","arctic-dual-task","","b","lowercase","256000","0","3","85a0f81952ddf4239deec3e553483b882ec6c330766b4fc2a6a58baf22784309","255998.20000004768","651.7999999523163","88","1","arctic","","","","",""
"dual-task","null","null","null","","arctic","swim","615.7000000476837","","R","null","77","77","1","arctic-dual-task","","R","uppercase","264000","0","3","85a0f81952ddf4239deec3e553483b882ec6c330766b4fc2a6a58baf22784309","264021.7000000477","615.7000000476837","77","1","arctic","","","","",""
"dual-task","null","null","null","","arctic","swim","534.7999999523163","","G","null","77","77","1","arctic-dual-task","","G","uppercase","274000","0","3","85a0f81952ddf4239deec3e553483b882ec6c330766b4fc2a6a58baf22784309","273999.39999997616","534.7999999523163","77","1","arctic","","","","",""
"dual-task","null","null","null","","arctic","swim","474.39999997615814","","h","null","88","88","1","arctic-dual-task","","h","lowercase","286000","0","3","85a0f81952ddf4239deec3e553483b882ec6c330766b4fc2a6a58baf22784309","286020.89999997616","474.39999997615814","88","1","arctic","","","","",""
"dual-task","null","null","null","","arctic","swim","568.0999999046326","","t","null","88","88","1","arctic-dual-task","","t","lowercase","296000","0","3","85a0f81952ddf4239deec3e553483b882ec6c330766b4fc2a6a58baf22784309","296017.39999997616","568.0999999046326","88","1","arctic","","","","",""
"dual-task","null","null","null","","arctic","swim","551.8999999761581","","q","null","88","88","1","arctic-dual-task","","q","lowercase","306000","0","3","85a0f81952ddf4239deec3e553483b882ec6c330766b4fc2a6a58baf22784309","306009.7000000477","551.8999999761581","88","1","arctic","","","","",""
"dual-task","null","null","null","","arctic","swim","554.1000000238419","","t","null","88","88","1","arctic-dual-task","","t","lowercase","314000","0","3","85a0f81952ddf4239deec3e553483b882ec6c330766b4fc2a6a58baf22784309","314011.5","554.1000000238419","88","1","arctic","","","","",""
"dual-task","null","null","null","","arctic","swim","482.2999999523163","","q","null","88","88","1","arctic-dual-task","","q","lowercase","326000","0","3","85a0f81952ddf4239deec3e553483b882ec6c330766b4fc2a6a58baf22784309","326000","482.2999999523163","88","1","arctic","","","","",""
"dual-task","null","null","null","","arctic","swim","447.39999997615814","","h","null","88","88","1","arctic-dual-task","","h","lowercase","334000","0","3","85a0f81952ddf4239deec3e553483b882ec6c330766b4fc2a6a58baf22784309","334008","447.39999997615814","88","1","arctic","","","","",""
"dual-task","null","null","null","","arctic","swim","448.10000002384186","","a","null","88","88","1","arctic-dual-task","","a","lowercase","346000","0","3","85a0f81952ddf4239deec3e553483b882ec6c330766b4fc2a6a58baf22784309","346019","448.10000002384186","88","1","arctic","","","","",""
"dual-task","null","null","null","","arctic","swim","635.5","","B","null","77","77","1","arctic-dual-task","","B","uppercase","356000","0","3","85a0f81952ddf4239deec3e553483b882ec6c330766b4fc2a6a58baf22784309","356015","635.5","77","1","arctic","","","","",""
"dual-task","null","null","null","","arctic","swim","531.7000000476837","","F","null","77","77","1","arctic-dual-task","","F","uppercase","366000","0","3","85a0f81952ddf4239deec3e553483b882ec6c330766b4fc2a6a58baf22784309","366007.7000000477","531.7000000476837","77","1","arctic","","","","",""
"dual-task","null","null","null","","arctic","swim","499.2000000476837","","B","null","77","77","1","arctic-dual-task","","B","uppercase","376000","0","3","85a0f81952ddf4239deec3e553483b882ec6c330766b4fc2a6a58baf22784309","376011.89999997616","499.2000000476837","77","1","arctic","","","","",""
"dual-task","null","null","null","","arctic","swim","638.3999999761581","","f","null","88","88","1","arctic-dual-task","","f","lowercase","386000","0","3","85a0f81952ddf4239deec3e553483b882ec6c330766b4fc2a6a58baf22784309","386005.8000000715","638.3999999761581","88","1","arctic","","","","",""
"dual-task","null","null","null","","arctic","swim","518.4000000953674","","R","null","77","77","1","arctic-dual-task","","R","uppercase","398000","0","3","85a0f81952ddf4239deec3e553483b882ec6c330766b4fc2a6a58baf22784309","398016.8000000715","518.4000000953674","77","1","arctic","","","","",""
"dual-task","null","null","null","","arctic","swim","636.2000000476837","","r","null","88","88","1","arctic-dual-task","","r","lowercase","404000","0","3","85a0f81952ddf4239deec3e553483b882ec6c330766b4fc2a6a58baf22784309","404018.3000000715","636.2000000476837","88","1","arctic","","","","",""
"dual-task","null","null","null","","arctic","swim","517.2999999523163","","d","null","88","88","1","arctic-dual-task","","d","lowercase","418000","0","3","85a0f81952ddf4239deec3e553483b882ec6c330766b4fc2a6a58baf22784309","418017.60000002384","517.2999999523163","88","1","arctic","","","","",""
"dual-task","null","null","null","","arctic","swim","611.7999999523163","","b","null","88","88","1","arctic-dual-task","","b","lowercase","424000","0","3","85a0f81952ddf4239deec3e553483b882ec6c330766b4fc2a6a58baf22784309","424015.60000002384","611.7999999523163","88","1","arctic","","","","",""
"dual-task","null","null","null","","arctic","swim","448.10000002384186","","b","null","88","88","1","arctic-dual-task","","b","lowercase","436000","0","3","85a0f81952ddf4239deec3e553483b882ec6c330766b4fc2a6a58baf22784309","436011.3000000715","448.10000002384186","88","1","arctic","","","","",""
"dual-task","null","null","null","","arctic","swim","474.39999997615814","","A","null","77","77","1","arctic-dual-task","","A","uppercase","446000","0","3","85a0f81952ddf4239deec3e553483b882ec6c330766b4fc2a6a58baf22784309","446005.2000000477","474.39999997615814","77","1","arctic","","","","",""
"dual-task","null","null","null","","arctic","swim","738.5","","D","null","77","77","1","arctic-dual-task","","D","uppercase","452000","0","3","85a0f81952ddf4239deec3e553483b882ec6c330766b4fc2a6a58baf22784309","452003.5","738.5","77","1","arctic","","","","",""
"dual-task","null","null","null","","arctic","swim","815.6000000238419","","Q","null","77","77","1","arctic-dual-task","","Q","uppercase","460000","0","3","85a0f81952ddf4239deec3e553483b882ec6c330766b4fc2a6a58baf22784309","460015.10000002384","815.6000000238419","77","1","arctic","","","","",""
"dual-task","null","null","null","","arctic","swim","642.2999999523163","","b","null","88","88","1","arctic-dual-task","","b","lowercase","468000","0","3","85a0f81952ddf4239deec3e553483b882ec6c330766b4fc2a6a58baf22784309","468018.3000000715","642.2999999523163","88","1","arctic","","","","",""
"dual-task","null","null","null","","arctic","swim","609.7000000476837","","f","null","88","88","1","arctic-dual-task","","f","lowercase","474000","0","3","85a0f81952ddf4239deec3e553483b882ec6c330766b4fc2a6a58baf22784309","474014.39999997616","609.7000000476837","88","1","arctic","","","","",""
"dual-task","null","null","null","","arctic","swim","446.1999999284744","","R","null","77","77","1","arctic-dual-task","","R","uppercase","484000","0","3","85a0f81952ddf4239deec3e553483b882ec6c330766b4fc2a6a58baf22784309","484017.8000000715","446.1999999284744","77","1","arctic","","","","",""
"dual-task","null","null","null","","arctic","swim","535.6999999284744","","f","null","88","88","1","arctic-dual-task","","f","lowercase","498000","0","3","85a0f81952ddf4239deec3e553483b882ec6c330766b4fc2a6a58baf22784309","498013.3000000715","535.6999999284744","88","1","arctic","","","","",""
"dual-task","null","null","null","","arctic","swim","526.6999999284744","","g","null","88","88","1","arctic-dual-task","","g","lowercase","504000","0","3","85a0f81952ddf4239deec3e553483b882ec6c330766b4fc2a6a58baf22784309","504001.5","526.6999999284744","88","1","arctic","","","","",""
"dual-task","null","null","null","","arctic","swim","635.6000000238419","","F","null","77","77","1","arctic-dual-task","","F","uppercase","512000","0","3","85a0f81952ddf4239deec3e553483b882ec6c330766b4fc2a6a58baf22784309","512001.8000000715","635.6000000238419","77","1","arctic","","","","",""
"dual-task","null","null","null","","arctic","swim","633","","q","null","88","88","1","arctic-dual-task","","q","lowercase","518000","0","3","85a0f81952ddf4239deec3e553483b882ec6c330766b4fc2a6a58baf22784309","518013.5","633","88","1","arctic","","","","",""
"dual-task","null","null","null","","arctic","swim","492.89999997615814","","T","null","77","77","1","arctic-dual-task","","T","uppercase","528000","0","3","85a0f81952ddf4239deec3e553483b882ec6c330766b4fc2a6a58baf22784309","528016.3000000715","492.89999997615814","77","1","arctic","","","","",""
"dual-task","null","null","null","","arctic","swim","507.7000000476837","","e","null","88","88","1","arctic-dual-task","","e","lowercase","536000","0","3","85a0f81952ddf4239deec3e553483b882ec6c330766b4fc2a6a58baf22784309","536012.8000000715","507.7000000476837","88","1","arctic","","","","",""
"dual-task","null","null","null","","arctic","swim","488.90000009536743","","h","null","88","88","1","arctic-dual-task","","h","lowercase","548000","0","3","85a0f81952ddf4239deec3e553483b882ec6c330766b4fc2a6a58baf22784309","548014.7000000477","488.90000009536743","88","1","arctic","","","","",""
"dual-task","null","null","null","","arctic","swim","646.5","","G","null","77","77","1","arctic-dual-task","","G","uppercase","556000","0","3","85a0f81952ddf4239deec3e553483b882ec6c330766b4fc2a6a58baf22784309","556002.8000000715","646.5","77","1","arctic","","","","",""
"dual-task","null","null","null","","arctic","swim","538.4000000953674","","R","null","77","77","1","arctic-dual-task","","R","uppercase","568000","0","3","85a0f81952ddf4239deec3e553483b882ec6c330766b4fc2a6a58baf22784309","568002.3000000715","538.4000000953674","77","1","arctic","","","","",""
"dual-task","null","null","null","","arctic","swim","801","","H","null","77","77","1","arctic-dual-task","","H","uppercase","576000","0","3","85a0f81952ddf4239deec3e553483b882ec6c330766b4fc2a6a58baf22784309","576005.6000000238","801","77","1","arctic","","","","",""
"dual-task","null","null","null","","arctic","swim","494.8000000715256","","B","null","77","77","1","arctic-dual-task","","B","uppercase","584000","0","3","85a0f81952ddf4239deec3e553483b882ec6c330766b4fc2a6a58baf22784309","584004.7000000477","494.8000000715256","77","1","arctic","","","","",""
"dual-task","null","null","null","","arctic","swim","527.4000000953674","","g","null","88","88","1","arctic-dual-task","","g","lowercase","592000","0","3","85a0f81952ddf4239deec3e553483b882ec6c330766b4fc2a6a58baf22784309","592004.2000000477","527.4000000953674","88","1","arctic","","","","",""
"dual-task","null","null","null","","arctic","swim","584.6000000238419","","D","null","77","77","1","arctic-dual-task","","D","uppercase","600000","0","3","85a0f81952ddf4239deec3e553483b882ec6c330766b4fc2a6a58baf22784309","600013.8999999762","584.6000000238419","77","1","arctic","","","","",""
"dual-task","null","null","null","","arctic","swim","631.7000000476837","","Q","null","77","77","1","arctic-dual-task","","Q","uppercase","614000","0","3","85a0f81952ddf4239deec3e553483b882ec6c330766b4fc2a6a58baf22784309","614002.1000000238","631.7000000476837","77","1","arctic","","","","",""
"dual-task","null","null","null","","arctic","swim","545.3000000715256","","G","null","77","77","1","arctic-dual-task","","G","uppercase","622000","0","3","85a0f81952ddf4239deec3e553483b882ec6c330766b4fc2a6a58baf22784309","622016.3000000715","545.3000000715256","77","1","arctic","","","","",""
"dual-task","null","null","null","","arctic","swim","648.2999999523163","","q","null","88","88","1","arctic-dual-task","","q","lowercase","628000","0","3","85a0f81952ddf4239deec3e553483b882ec6c330766b4fc2a6a58baf22784309","628011.3000000715","648.2999999523163","88","1","arctic","","","","",""
"dual-task","null","null","null","","arctic","swim","576.8999999761581","","n","null","88","88","1","arctic-dual-task","","n","lowercase","636000","0","3","85a0f81952ddf4239deec3e553483b882ec6c330766b4fc2a6a58baf22784309","636002.1000000238","576.8999999761581","88","1","arctic","","","","",""
"dual-task","null","null","null","","arctic","swim","518.7999999523163","","B","null","77","77","1","arctic-dual-task","","B","uppercase","642000","0","3","85a0f81952ddf4239deec3e553483b882ec6c330766b4fc2a6a58baf22784309","642004.3000000715","518.7999999523163","77","1","arctic","","","","",""
"dual-task","null","null","null","","arctic","swim","452","","g","null","88","88","1","arctic-dual-task","","g","lowercase","650000","0","3","85a0f81952ddf4239deec3e553483b882ec6c330766b4fc2a6a58baf22784309","650000.7000000477","452","88","1","arctic","","","","",""
"dual-task","null","null","null","","arctic","swim","502.60000002384186","","A","null","77","77","1","arctic-dual-task","","A","uppercase","662000","0","3","85a0f81952ddf4239deec3e553483b882ec6c330766b4fc2a6a58baf22784309","662000.8000000715","502.60000002384186","77","1","arctic","","","","",""
"dual-task","null","null","null","","arctic","swim","813.3999999761581","","N","null","77","77","1","arctic-dual-task","","N","uppercase","668000","0","3","85a0f81952ddf4239deec3e553483b882ec6c330766b4fc2a6a58baf22784309","668001","813.3999999761581","77","1","arctic","","","","",""
"dual-task","null","null","null","","arctic","swim","609.2999999523163","","a","null","88","88","1","arctic-dual-task","","a","lowercase","674000","0","3","85a0f81952ddf4239deec3e553483b882ec6c330766b4fc2a6a58baf22784309","674021.6000000238","609.2999999523163","88","1","arctic","","","","",""
"dual-task","null","null","null","","arctic","swim","507.89999997615814","","n","null","88","88","1","arctic-dual-task","","n","lowercase","682000","0","3","85a0f81952ddf4239deec3e553483b882ec6c330766b4fc2a6a58baf22784309","682013.7000000477","507.89999997615814","88","1","arctic","","","","",""
"dual-task","null","null","null","","arctic","swim","521.7000000476837","","Q","null","77","77","1","arctic-dual-task","","Q","uppercase","696000","0","3","85a0f81952ddf4239deec3e553483b882ec6c330766b4fc2a6a58baf22784309","696004.8000000715","521.7000000476837","77","1","arctic","","","","",""
"dual-task","null","null","null","","arctic","swim","437.3000000715256","","F","null","77","77","1","arctic-dual-task","","F","uppercase","704000","0","3","85a0f81952ddf4239deec3e553483b882ec6c330766b4fc2a6a58baf22784309","704020.8999999762","437.3000000715256","77","1","arctic","","","","",""
"dual-task","null","null","null","","arctic","swim","475.7000000476837","","Q","null","77","77","1","arctic-dual-task","","Q","uppercase","710000","0","3","85a0f81952ddf4239deec3e553483b882ec6c330766b4fc2a6a58baf22784309","710022.5","475.7000000476837","77","1","arctic","","","","",""
"dual-task","null","null","null","","arctic","swim","611","","n","null","88","88","1","arctic-dual-task","","n","lowercase","722000","0","3","85a0f81952ddf4239deec3e553483b882ec6c330766b4fc2a6a58baf22784309","722011.7000000477","611","88","1","arctic","","","","",""
"dual-task","null","null","null","","arctic","swim","549.6000000238419","","N","null","77","77","1","arctic-dual-task","","N","uppercase","730000","0","3","85a0f81952ddf4239deec3e553483b882ec6c330766b4fc2a6a58baf22784309","730022.3000000715","549.6000000238419","77","1","arctic","","","","",""
"dual-task","null","null","null","","arctic","swim","560.5","","g","null","88","88","1","arctic-dual-task","","g","lowercase","740000","0","3","85a0f81952ddf4239deec3e553483b882ec6c330766b4fc2a6a58baf22784309","740019","560.5","88","1","arctic","","","","",""
"dual-task","null","null","null","","arctic","swim","390","","G","null","77","77","1","arctic-dual-task","","G","uppercase","750000","0","3","85a0f81952ddf4239deec3e553483b882ec6c330766b4fc2a6a58baf22784309","750020.7000000477","390","77","1","arctic","","","","",""
"dual-task","null","null","null","","arctic","swim","500.3000000715256","","n","null","88","88","1","arctic-dual-task","","n","lowercase","758000","0","3","85a0f81952ddf4239deec3e553483b882ec6c330766b4fc2a6a58baf22784309","758009.8000000715","500.3000000715256","88","1","arctic","","","","",""
"dual-task","null","null","null","","arctic","swim","582.2999999523163","","E","null","77","77","1","arctic-dual-task","","E","uppercase","772000","0","3","85a0f81952ddf4239deec3e553483b882ec6c330766b4fc2a6a58baf22784309","772021.3000000715","582.2999999523163","77","1","arctic","","","","",""
"dual-task","null","null","null","","arctic","swim","434.39999997615814","","h","null","88","88","1","arctic-dual-task","","h","lowercase","782000","0","3","85a0f81952ddf4239deec3e553483b882ec6c330766b4fc2a6a58baf22784309","782010.5","434.39999997615814","88","1","arctic","","","","",""
"audio-keyboard-response","29","907862","0.0-6.0-0.0-1.0","85a0f81952ddf4239deec3e553483b882ec6c330766b4fc2a6a58baf22784309","arctic","swim","null","","audio/story_arctic.mp3","","null","","","","","","","","","","","","","","","","","","","",""
"html-button-response","30","911156","0.0-6.0-0.0-2.0","85a0f81952ddf4239deec3e553483b882ec6c330766b4fc2a6a58baf22784309","arctic","swim","3291","","<p>This concludes the story. Thank you for listening.</p><p>You will now answer some questions about the content of the story.</p>","0","","","","","","","","","","","","","","","","","","","","",""
"survey-multi-choice","31","919456","0.0-6.0-0.0-3.0-0.0","85a0f81952ddf4239deec3e553483b882ec6c330766b4fc2a6a58baf22784309","arctic","swim","8294","","<b>How did the dogs respond when they saw the bears?</b>","","","","1","arctic-comprehension","","","","","","","","","","","","","{""Q0"":""Approached them""}","","","",""
"survey-multi-choice","32","926532","0.0-6.0-0.0-3.0-0.1","85a0f81952ddf4239deec3e553483b882ec6c330766b4fc2a6a58baf22784309","arctic","swim","6822","","<b>How did the narrator&#39;s encounter with the polar bears end?</b>","","","","1","arctic-comprehension","","","","","","","","","","","","","{""Q0"":""The bears walked back to their den.""}","","","",""
"survey-multi-choice","33","931340","0.0-6.0-0.0-3.0-0.2","85a0f81952ddf4239deec3e553483b882ec6c330766b4fc2a6a58baf22784309","arctic","swim","4526","","<b>How many sponsorships did the narrator receive to support her expedition?</b>","","","","1","arctic-comprehension","","","","","","","","","","","","","{""Q0"":""None""}","","","",""
"survey-multi-choice","34","935572","0.0-6.0-0.0-3.0-0.3","85a0f81952ddf4239deec3e553483b882ec6c330766b4fc2a6a58baf22784309","arctic","swim","3979","","<b>Which dog on the narrator&#39;s dog team never followed instructions?</b>","","","","1","arctic-comprehension","","","","","","","","","","","","","{""Q0"":""Robert""}","","","",""
"survey-multi-choice","35","942284","0.0-6.0-0.0-3.0-0.4","85a0f81952ddf4239deec3e553483b882ec6c330766b4fc2a6a58baf22784309","arctic","swim","6440","","<b>What were the weather conditions in the Arctic like the winter of the narrator&#39;s expedition?</b>","","","","1","arctic-comprehension","","","","","","","","","","","","","{""Q0"":""There were more storms than any other winter in recorded history.""}","","","",""
"survey-multi-choice","36","949380","0.0-6.0-0.0-3.0-0.5","85a0f81952ddf4239deec3e553483b882ec6c330766b4fc2a6a58baf22784309","arctic","swim","6834","","<b>How did the narrator prepare for her expedition?</b>","","","","1","arctic-comprehension","","","","","","","","","","","","","{""Q0"":""Trained in Alaska learning how to dogsled""}","","","",""
"survey-multi-choice","37","954916","0.0-6.0-0.0-3.0-0.6","85a0f81952ddf4239deec3e553483b882ec6c330766b4fc2a6a58baf22784309","arctic","swim","5278","","<b>What was the objective of the narrator&#39;s expedition?</b>","","","","1","arctic-comprehension","","","","","","","","","","","","","{""Q0"":""Dogsled across Arctic America""}","","","",""
"survey-multi-choice","38","961646","0.0-6.0-0.0-3.0-0.7","85a0f81952ddf4239deec3e553483b882ec6c330766b4fc2a6a58baf22784309","arctic","swim","6470","","<b>How did the narrator&#39;s neighbour respond when she told him about her expedition?</b>","","","","1","arctic-comprehension","","","","","","","","","","","","","{""Q0"":""He said she was going to fail.""}","","","",""
"survey-multi-choice","39","965492","0.0-6.0-0.0-3.0-0.8","85a0f81952ddf4239deec3e553483b882ec6c330766b4fc2a6a58baf22784309","arctic","swim","3590","","<b>What did the narrator do for leisure while in her tent?</b>","","","","1","arctic-comprehension","","","","","","","","","","","","","{""Q0"":""Read""}","","","",""
"survey-multi-choice","40","969299","0.0-6.0-0.0-3.0-0.9","85a0f81952ddf4239deec3e553483b882ec6c330766b4fc2a6a58baf22784309","arctic","swim","3551","","<b>What is the name of the narrator&#39;s neighbour?</b>","","","","1","arctic-comprehension","","","","","","","","","","","","","{""Q0"":""Dave""}","","","",""
"html-button-response","41","971315","0.0-6.0-0.0-4.0","85a0f81952ddf4239deec3e553483b882ec6c330766b4fc2a6a58baf22784309","arctic","swim","1763","","<p>Thank you for your responses.</p><p>You will now answer some questions about your impressions of the story.</p>","0","","","","","","","","","","","","","","","","","","","","",""
"html-button-response","42","975300","0.0-6.0-0.0-5.0-0.0","85a0f81952ddf4239deec3e553483b882ec6c330766b4fc2a6a58baf22784309","arctic","swim","3983","","EE1","5","","","","arctic-engagement","","","","","","","","","","","","","","6","emo-engage","",""
"html-button-response","43","977299","0.0-6.0-0.0-5.0-0.1","85a0f81952ddf4239deec3e553483b882ec6c330766b4fc2a6a58baf22784309","arctic","swim","1746","","E10","6","","","","arctic-engagement","","","","","","","","","","","","","","7","enjoyment","",""
"html-button-response","44","981004","0.0-6.0-0.0-5.0-0.2","85a0f81952ddf4239deec3e553483b882ec6c330766b4fc2a6a58baf22784309","arctic","swim","3452","","MS1","5","","","","arctic-engagement","","","","","","","","","","","","","","6","mental-sim","",""
"html-button-response","45","983219","0.0-6.0-0.0-5.0-0.3","85a0f81952ddf4239deec3e553483b882ec6c330766b4fc2a6a58baf22784309","arctic","swim","1962","","EE3","5","","","","arctic-engagement","","","","","","","","","","","","","","6","emo-engage","",""
"html-button-response","46","985059","0.0-6.0-0.0-5.0-0.4","85a0f81952ddf4239deec3e553483b882ec6c330766b4fc2a6a58baf22784309","arctic","swim","1587","","E6","6","","","","arctic-engagement","","","","","","","","","","","","","","7","enjoyment","",""
"html-button-response","47","986659","0.0-6.0-0.0-5.0-0.5","85a0f81952ddf4239deec3e553483b882ec6c330766b4fc2a6a58baf22784309","arctic","swim","1346","","A3","6","","","","arctic-engagement","","","","","","","","","","","","","","7","absorption","",""
"html-button-response","48","991499","0.0-6.0-0.0-5.0-0.6","85a0f81952ddf4239deec3e553483b882ec6c330766b4fc2a6a58baf22784309","arctic","swim","4587","","A4","5","","","","arctic-engagement","","","","","","","","","","","","","","6","absorption","",""
"html-button-response","49","995003","0.0-6.0-0.0-5.0-0.7","85a0f81952ddf4239deec3e553483b882ec6c330766b4fc2a6a58baf22784309","arctic","swim","3251","","A1","4","","","","arctic-engagement","","","","","","","","","","","","","","5","absorption","",""
"html-button-response","50","998027","0.0-6.0-0.0-5.0-0.8","85a0f81952ddf4239deec3e553483b882ec6c330766b4fc2a6a58baf22784309","arctic","swim","2768","","A2","6","","","","arctic-engagement","","","","","","","","","","","","","","7","absorption","",""
"html-button-response","51","1001779","0.0-6.0-0.0-5.0-0.9","85a0f81952ddf4239deec3e553483b882ec6c330766b4fc2a6a58baf22784309","arctic","swim","3499","","A5","4","","","","arctic-engagement","","","","","","","","","","","","","","5","absorption","",""
"html-button-response","52","1003811","0.0-6.0-0.0-5.0-0.10","85a0f81952ddf4239deec3e553483b882ec6c330766b4fc2a6a58baf22784309","arctic","swim","1779","","E7","6","","","","arctic-engagement","","","","","","","","","","","","","","7","enjoyment","",""
"html-button-response","53","1005731","0.0-6.0-0.0-5.0-0.11","85a0f81952ddf4239deec3e553483b882ec6c330766b4fc2a6a58baf22784309","arctic","swim","1667","","E1","6","","","","arctic-engagement","","","","","","","","","","","","","","7","enjoyment","",""
"html-button-response","54","1007875","0.0-6.0-0.0-5.0-0.12","85a0f81952ddf4239deec3e553483b882ec6c330766b4fc2a6a58baf22784309","arctic","swim","1891","","MS3","5","","","","arctic-engagement","","","","","","","","","","","","","","6","mental-sim","",""
"html-button-response","55","1010235","0.0-6.0-0.0-5.0-0.13","85a0f81952ddf4239deec3e553483b882ec6c330766b4fc2a6a58baf22784309","arctic","swim","2107","","E8","5","","","","arctic-engagement","","","","","","","","","","","","","","6","enjoyment","",""
"html-button-response","56","1013059","0.0-6.0-0.0-5.0-0.14","85a0f81952ddf4239deec3e553483b882ec6c330766b4fc2a6a58baf22784309","arctic","swim","2571","","EE4","4","","","","arctic-engagement","","","","","","","","","","","","","","5","emo-engage","",""
"html-button-response","57","1014811","0.0-6.0-0.0-5.0-0.15","85a0f81952ddf4239deec3e553483b882ec6c330766b4fc2a6a58baf22784309","arctic","swim","1500","","EE2","5","","","","arctic-engagement","","","","","","","","","","","","","","6","emo-engage","",""
"html-button-response","58","1019011","0.0-6.0-0.0-5.0-0.16","85a0f81952ddf4239deec3e553483b882ec6c330766b4fc2a6a58baf22784309","arctic","swim","3946","","MS2","4","","","","arctic-engagement","","","","","","","","","","","","","","5","mental-sim","",""
"html-button-response","59","1020640","0.0-6.0-0.0-5.0-0.17","85a0f81952ddf4239deec3e553483b882ec6c330766b4fc2a6a58baf22784309","arctic","swim","1374","","EE5","5","","","","arctic-engagement","","","","","","","","","","","","","","6","emo-engage","",""
"html-keyboard-response","60","1027942","0.0-6.0-1.0","85a0f81952ddf4239deec3e553483b882ec6c330766b4fc2a6a58baf22784309","arctic","swim","7049","","<p>Thank you for your responses. You will now listen to the second story.</p><p>Remember, as you listen to the story you will see letters appear on the screen.</br>As quickly as possible, press <b>&lt;x&gt;</b> if the letter is lowercase and <b>&lt;m&gt;</b> if the letter is uppercase.</p><p>Press <b>&lt;x&gt;</b> or <b>&lt;m&gt;</b> to begin listening!</p>","","77","","","","","","","","","","","","","","","","","","","",""
"html-keyboard-response","61","1028447","0.0-6.0-2.0-0.0","85a0f81952ddf4239deec3e553483b882ec6c330766b4fc2a6a58baf22784309","arctic","swim","null","","<div style=""font-size:60px;"" tabindex=""0"">+</div>","","null","","","","","","","","","","","","","","","","","","","",""
"dual-task","null","null","null","","arctic","swim","626.3000000715256","","n","null","88","88","1","swim-dual-task","","n","lowercase","14000","0","3","85a0f81952ddf4239deec3e553483b882ec6c330766b4fc2a6a58baf22784309","14012.299999952316","626.3000000715256","88","1","swim","","","","",""
"dual-task","null","null","null","","arctic","swim","701.2000000476837","","B","null","77","77","1","swim-dual-task","","B","uppercase","20000","0","3","85a0f81952ddf4239deec3e553483b882ec6c330766b4fc2a6a58baf22784309","20007.599999904633","701.2000000476837","77","1","swim","","","","",""
"dual-task","null","null","null","","arctic","swim","563.1999999284744","","N","null","88","77","0","swim-dual-task","","N","uppercase","32000","0","3","85a0f81952ddf4239deec3e553483b882ec6c330766b4fc2a6a58baf22784309","32009.399999976158","563.1999999284744","88","0","swim","","","","",""
"dual-task","null","null","null","","arctic","swim","485","","A","null","77","77","1","swim-dual-task","","A","uppercase","44000","0","3","85a0f81952ddf4239deec3e553483b882ec6c330766b4fc2a6a58baf22784309","44018.39999997616","485","77","1","swim","","","","",""
"dual-task","null","null","null","","arctic","swim","595.2000000476837","","Q","null","77","77","1","swim-dual-task","","Q","uppercase","56000","0","3","85a0f81952ddf4239deec3e553483b882ec6c330766b4fc2a6a58baf22784309","56018.09999990463","595.2000000476837","77","1","swim","","","","",""
"dual-task","null","null","null","","arctic","swim","545.6999999284744","","f","null","88","88","1","swim-dual-task","","f","lowercase","66000","0","3","85a0f81952ddf4239deec3e553483b882ec6c330766b4fc2a6a58baf22784309","66008.59999990463","545.6999999284744","88","1","swim","","","","",""
"dual-task","null","null","null","","arctic","swim","688.8000000715256","","G","null","77","77","1","swim-dual-task","","G","uppercase","80000","0","3","85a0f81952ddf4239deec3e553483b882ec6c330766b4fc2a6a58baf22784309","80005.5","688.8000000715256","77","1","swim","","","","",""
"dual-task","null","null","null","","arctic","swim","700.3999999761581","","B","null","77","77","1","swim-dual-task","","B","uppercase","88000","0","3","85a0f81952ddf4239deec3e553483b882ec6c330766b4fc2a6a58baf22784309","88014.19999992847","700.3999999761581","77","1","swim","","","","",""
"dual-task","null","null","null","","arctic","swim","675.2999999523163","","D","null","77","77","1","swim-dual-task","","D","uppercase","96000","0","3","85a0f81952ddf4239deec3e553483b882ec6c330766b4fc2a6a58baf22784309","96007.89999997616","675.2999999523163","77","1","swim","","","","",""
"dual-task","null","null","null","","arctic","swim","521","","h","null","88","88","1","swim-dual-task","","h","lowercase","106000","0","3","85a0f81952ddf4239deec3e553483b882ec6c330766b4fc2a6a58baf22784309","106006.79999995232","521","88","1","swim","","","","",""
"dual-task","null","null","null","","arctic","swim","381.7999999523163","","b","null","77","88","0","swim-dual-task","","b","lowercase","112000","0","3","85a0f81952ddf4239deec3e553483b882ec6c330766b4fc2a6a58baf22784309","112011.79999995232","381.7999999523163","77","0","swim","","","","",""
"dual-task","null","null","null","","arctic","swim","576.3999999761581","","G","null","77","77","1","swim-dual-task","","G","uppercase","120000","0","3","85a0f81952ddf4239deec3e553483b882ec6c330766b4fc2a6a58baf22784309","120016.29999995232","576.3999999761581","77","1","swim","","","","",""
"dual-task","null","null","null","","arctic","swim","530.5999999046326","","d","null","88","88","1","swim-dual-task","","d","lowercase","134000","0","3","85a0f81952ddf4239deec3e553483b882ec6c330766b4fc2a6a58baf22784309","134006.29999995232","530.5999999046326","88","1","swim","","","","",""
"dual-task","null","null","null","","arctic","swim","665.3000000715256","","r","null","88","88","1","swim-dual-task","","r","lowercase","144000","0","3","85a0f81952ddf4239deec3e553483b882ec6c330766b4fc2a6a58baf22784309","144003.59999990463","665.3000000715256","88","1","swim","","","","",""
"dual-task","null","null","null","","arctic","swim","545.1000000238419","","r","null","88","88","1","swim-dual-task","","r","lowercase","152000","0","3","85a0f81952ddf4239deec3e553483b882ec6c330766b4fc2a6a58baf22784309","152004.29999995232","545.1000000238419","88","1","swim","","","","",""
"dual-task","null","null","null","","arctic","swim","603.3000000715256","","G","null","77","77","1","swim-dual-task","","G","uppercase","164000","0","3","85a0f81952ddf4239deec3e553483b882ec6c330766b4fc2a6a58baf22784309","164003.09999990463","603.3000000715256","77","1","swim","","","","",""
"dual-task","null","null","null","","arctic","swim","668.7000000476837","","r","null","88","88","1","swim-dual-task","","r","lowercase","176000","0","3","85a0f81952ddf4239deec3e553483b882ec6c330766b4fc2a6a58baf22784309","176004.59999990463","668.7000000476837","88","1","swim","","","","",""
"dual-task","null","null","null","","arctic","swim","639.1000000238419","","D","null","77","77","1","swim-dual-task","","D","uppercase","188000","0","3","85a0f81952ddf4239deec3e553483b882ec6c330766b4fc2a6a58baf22784309","188006.09999990463","639.1000000238419","77","1","swim","","","","",""
"dual-task","null","null","null","","arctic","swim","534.1999999284744","","f","null","88","88","1","swim-dual-task","","f","lowercase","198000","0","3","85a0f81952ddf4239deec3e553483b882ec6c330766b4fc2a6a58baf22784309","198013.29999995232","534.1999999284744","88","1","swim","","","","",""
"dual-task","null","null","null","","arctic","swim","554.5","","g","null","88","88","1","swim-dual-task","","g","lowercase","208000","0","3","85a0f81952ddf4239deec3e553483b882ec6c330766b4fc2a6a58baf22784309","208015.19999992847","554.5","88","1","swim","","","","",""
"dual-task","null","null","null","","arctic","swim","581.9000000953674","","B","null","77","77","1","swim-dual-task","","B","uppercase","218000","0","3","85a0f81952ddf4239deec3e553483b882ec6c330766b4fc2a6a58baf22784309","218004.59999990463","581.9000000953674","77","1","swim","","","","",""
"dual-task","null","null","null","","arctic","swim","503.6999999284744","","d","null","88","88","1","swim-dual-task","","d","lowercase","228000","0","3","85a0f81952ddf4239deec3e553483b882ec6c330766b4fc2a6a58baf22784309","228014.5","503.6999999284744","88","1","swim","","","","",""
"dual-task","null","null","null","","arctic","swim","615.8999999761581","","q","null","88","88","1","swim-dual-task","","q","lowercase","240000","0","3","85a0f81952ddf4239deec3e553483b882ec6c330766b4fc2a6a58baf22784309","240005.09999990463","615.8999999761581","88","1","swim","","","","",""
"dual-task","null","null","null","","arctic","swim","552","","h","null","88","88","1","swim-dual-task","","h","lowercase","252000","0","3","85a0f81952ddf4239deec3e553483b882ec6c330766b4fc2a6a58baf22784309","252005.09999990463","552","88","1","swim","","","","",""
"dual-task","null","null","null","","arctic","swim","572.2999999523163","","E","null","77","77","1","swim-dual-task","","E","uppercase","260000","0","3","85a0f81952ddf4239deec3e553483b882ec6c330766b4fc2a6a58baf22784309","260004","572.2999999523163","77","1","swim","","","","",""
"dual-task","null","null","null","","arctic","swim","566.7000000476837","","B","null","77","77","1","swim-dual-task","","B","uppercase","274000","0","3","85a0f81952ddf4239deec3e553483b882ec6c330766b4fc2a6a58baf22784309","274014.1999999285","566.7000000476837","77","1","swim","","","","",""
"dual-task","null","null","null","","arctic","swim","509.60000002384186","","D","null","77","77","1","swim-dual-task","","D","uppercase","284000","0","3","85a0f81952ddf4239deec3e553483b882ec6c330766b4fc2a6a58baf22784309","284002.2999999523","509.60000002384186","77","1","swim","","","","",""
"dual-task","null","null","null","","arctic","swim","508.5","","T","null","77","77","1","swim-dual-task","","T","uppercase","296000","0","3","85a0f81952ddf4239deec3e553483b882ec6c330766b4fc2a6a58baf22784309","296010.59999990463","508.5","77","1","swim","","","","",""
"dual-task","null","null","null","","arctic","swim","547.8999999761581","","E","null","77","77","1","swim-dual-task","","E","uppercase","310000","0","3","85a0f81952ddf4239deec3e553483b882ec6c330766b4fc2a6a58baf22784309","310003.6999999285","547.8999999761581","77","1","swim","","","","",""
"dual-task","null","null","null","","arctic","swim","539.3000000715256","","n","null","88","88","1","swim-dual-task","","n","lowercase","318000","0","3","85a0f81952ddf4239deec3e553483b882ec6c330766b4fc2a6a58baf22784309","318013.09999990463","539.3000000715256","88","1","swim","","","","",""
"dual-task","null","null","null","","arctic","swim","681.3999999761581","","N","null","77","77","1","swim-dual-task","","N","uppercase","328000","0","3","85a0f81952ddf4239deec3e553483b882ec6c330766b4fc2a6a58baf22784309","328010.1999999285","681.3999999761581","77","1","swim","","","","",""
"dual-task","null","null","null","","arctic","swim","510.89999997615814","","G","null","77","77","1","swim-dual-task","","G","uppercase","334000","0","3","85a0f81952ddf4239deec3e553483b882ec6c330766b4fc2a6a58baf22784309","334001.39999997616","510.89999997615814","77","1","swim","","","","",""
"dual-task","null","null","null","","arctic","swim","532.3999999761581","","R","null","77","77","1","swim-dual-task","","R","uppercase","344000","0","3","85a0f81952ddf4239deec3e553483b882ec6c330766b4fc2a6a58baf22784309","344008.6999999285","532.3999999761581","77","1","swim","","","","",""
"dual-task","null","null","null","","arctic","swim","593.8000000715256","","g","null","88","88","1","swim-dual-task","","g","lowercase","352000","0","3","85a0f81952ddf4239deec3e553483b882ec6c330766b4fc2a6a58baf22784309","352004","593.8000000715256","88","1","swim","","","","",""
"dual-task","null","null","null","","arctic","swim","497.60000002384186","","b","null","88","88","1","swim-dual-task","","b","lowercase","366000","0","3","85a0f81952ddf4239deec3e553483b882ec6c330766b4fc2a6a58baf22784309","366012.1999999285","497.60000002384186","88","1","swim","","","","",""
"dual-task","null","null","null","","arctic","swim","603.5","","q","null","88","88","1","swim-dual-task","","q","lowercase","374000","0","3","85a0f81952ddf4239deec3e553483b882ec6c330766b4fc2a6a58baf22784309","374004.89999997616","603.5","88","1","swim","","","","",""
"dual-task","null","null","null","","arctic","swim","464.60000002384186","","T","null","77","77","1","swim-dual-task","","T","uppercase","382000","0","3","85a0f81952ddf4239deec3e553483b882ec6c330766b4fc2a6a58baf22784309","382009.1999999285","464.60000002384186","77","1","swim","","","","",""
"dual-task","null","null","null","","arctic","swim","519.1000000238419","","F","null","77","77","1","swim-dual-task","","F","uppercase","392000","0","3","85a0f81952ddf4239deec3e553483b882ec6c330766b4fc2a6a58baf22784309","392011.2999999523","519.1000000238419","77","1","swim","","","","",""
"dual-task","null","null","null","","arctic","swim","491.5","","H","null","77","77","1","swim-dual-task","","H","uppercase","400000","0","3","85a0f81952ddf4239deec3e553483b882ec6c330766b4fc2a6a58baf22784309","400008.6999999285","491.5","77","1","swim","","","","",""
"dual-task","null","null","null","","arctic","swim","509.5","","a","null","88","88","1","swim-dual-task","","a","lowercase","414000","0","3","85a0f81952ddf4239deec3e553483b882ec6c330766b4fc2a6a58baf22784309","414000.2999999523","509.5","88","1","swim","","","","",""
"dual-task","null","null","null","","arctic","swim","579","","E","null","77","77","1","swim-dual-task","","E","uppercase","424000","0","3","85a0f81952ddf4239deec3e553483b882ec6c330766b4fc2a6a58baf22784309","424010","579","77","1","swim","","","","",""
"dual-task","null","null","null","","arctic","swim","507.90000009536743","","e","null","88","88","1","swim-dual-task","","e","lowercase","434000","0","3","85a0f81952ddf4239deec3e553483b882ec6c330766b4fc2a6a58baf22784309","434010.59999990463","507.90000009536743","88","1","swim","","","","",""
"dual-task","null","null","null","","arctic","swim","534.3999999761581","","q","null","88","88","1","swim-dual-task","","q","lowercase","446000","0","3","85a0f81952ddf4239deec3e553483b882ec6c330766b4fc2a6a58baf22784309","446010.7999999523","534.3999999761581","88","1","swim","","","","",""
"dual-task","null","null","null","","arctic","swim","447.39999997615814","","a","null","88","88","1","swim-dual-task","","a","lowercase","456000","0","3","85a0f81952ddf4239deec3e553483b882ec6c330766b4fc2a6a58baf22784309","456009.7999999523","447.39999997615814","88","1","swim","","","","",""
"dual-task","null","null","null","","arctic","swim","635.8000000715256","","A","null","77","77","1","swim-dual-task","","A","uppercase","466000","0","3","85a0f81952ddf4239deec3e553483b882ec6c330766b4fc2a6a58baf22784309","466006.39999997616","635.8000000715256","77","1","swim","","","","",""
"dual-task","null","null","null","","arctic","swim","533.5","","d","null","88","88","1","swim-dual-task","","d","lowercase","478000","0","3","85a0f81952ddf4239deec3e553483b882ec6c330766b4fc2a6a58baf22784309","478002.2999999523","533.5","88","1","swim","","","","",""
"dual-task","null","null","null","","arctic","swim","432.2000000476837","","f","null","88","88","1","swim-dual-task","","f","lowercase","488000","0","3","85a0f81952ddf4239deec3e553483b882ec6c330766b4fc2a6a58baf22784309","488017.09999990463","432.2000000476837","88","1","swim","","","","",""
"dual-task","null","null","null","","arctic","swim","442.2000000476837","","R","null","77","77","1","swim-dual-task","","R","uppercase","498000","0","3","85a0f81952ddf4239deec3e553483b882ec6c330766b4fc2a6a58baf22784309","498014","442.2000000476837","77","1","swim","","","","",""
"dual-task","null","null","null","","arctic","swim","479","","r","null","88","88","1","swim-dual-task","","r","lowercase","512000","0","3","85a0f81952ddf4239deec3e553483b882ec6c330766b4fc2a6a58baf22784309","512008.6999999285","479","88","1","swim","","","","",""
"dual-task","null","null","null","","arctic","swim","592.5","","T","null","77","77","1","swim-dual-task","","T","uppercase","518000","0","3","85a0f81952ddf4239deec3e553483b882ec6c330766b4fc2a6a58baf22784309","518008","592.5","77","1","swim","","","","",""
"dual-task","null","null","null","","arctic","swim","581.1999999284744","","Q","null","77","77","1","swim-dual-task","","Q","uppercase","524000","0","3","85a0f81952ddf4239deec3e553483b882ec6c330766b4fc2a6a58baf22784309","524006.6999999285","581.1999999284744","77","1","swim","","","","",""
"dual-task","null","null","null","","arctic","swim","555.6000000238419","","b","null","88","88","1","swim-dual-task","","b","lowercase","536000","0","3","85a0f81952ddf4239deec3e553483b882ec6c330766b4fc2a6a58baf22784309","536007.2999999523","555.6000000238419","88","1","swim","","","","",""
"dual-task","null","null","null","","arctic","swim","553.1000000238419","","N","null","77","77","1","swim-dual-task","","N","uppercase","550000","0","3","85a0f81952ddf4239deec3e553483b882ec6c330766b4fc2a6a58baf22784309","550018.8999999762","553.1000000238419","77","1","swim","","","","",""
"dual-task","null","null","null","","arctic","swim","550.0999999046326","","b","null","88","88","1","swim-dual-task","","b","lowercase","556000","0","3","85a0f81952ddf4239deec3e553483b882ec6c330766b4fc2a6a58baf22784309","556017.1999999285","550.0999999046326","88","1","swim","","","","",""
"dual-task","null","null","null","","arctic","swim","492","","R","null","77","77","1","swim-dual-task","","R","uppercase","562000","0","3","85a0f81952ddf4239deec3e553483b882ec6c330766b4fc2a6a58baf22784309","562015.5999999046","492","77","1","swim","","","","",""
"dual-task","null","null","null","","arctic","swim","499.60000002384186","","d","null","88","88","1","swim-dual-task","","d","lowercase","568000","0","3","85a0f81952ddf4239deec3e553483b882ec6c330766b4fc2a6a58baf22784309","568017.1999999285","499.60000002384186","88","1","swim","","","","",""
"dual-task","null","null","null","","arctic","swim","558.6999999284744","","N","null","77","77","1","swim-dual-task","","N","uppercase","580000","0","3","85a0f81952ddf4239deec3e553483b882ec6c330766b4fc2a6a58baf22784309","580017.8999999762","558.6999999284744","77","1","swim","","","","",""
"dual-task","null","null","null","","arctic","swim","474.1999999284744","","q","null","88","88","1","swim-dual-task","","q","lowercase","590000","0","3","85a0f81952ddf4239deec3e553483b882ec6c330766b4fc2a6a58baf22784309","590004.7999999523","474.1999999284744","88","1","swim","","","","",""
"dual-task","null","null","null","","arctic","swim","501.5","","t","null","88","88","1","swim-dual-task","","t","lowercase","604000","0","3","85a0f81952ddf4239deec3e553483b882ec6c330766b4fc2a6a58baf22784309","604021.7999999523","501.5","88","1","swim","","","","",""
"dual-task","null","null","null","","arctic","swim","545.8999999761581","","n","null","88","88","1","swim-dual-task","","n","lowercase","614000","0","3","85a0f81952ddf4239deec3e553483b882ec6c330766b4fc2a6a58baf22784309","614018.2999999523","545.8999999761581","88","1","swim","","","","",""
"dual-task","null","null","null","","arctic","swim","525.2000000476837","","e","null","88","88","1","swim-dual-task","","e","lowercase","624000","0","3","85a0f81952ddf4239deec3e553483b882ec6c330766b4fc2a6a58baf22784309","624017.0999999046","525.2000000476837","88","1","swim","","","","",""
"dual-task","null","null","null","","arctic","swim","526","","h","null","88","88","1","swim-dual-task","","h","lowercase","632000","0","3","85a0f81952ddf4239deec3e553483b882ec6c330766b4fc2a6a58baf22784309","632018.0999999046","526","88","1","swim","","","","",""
"dual-task","null","null","null","","arctic","swim","714","","f","null","88","88","1","swim-dual-task","","f","lowercase","642000","0","3","85a0f81952ddf4239deec3e553483b882ec6c330766b4fc2a6a58baf22784309","642015.6999999285","714","88","1","swim","","","","",""
"dual-task","null","null","null","","arctic","swim","807.7999999523163","","H","null","88","77","0","swim-dual-task","","H","uppercase","648000","0","3","85a0f81952ddf4239deec3e553483b882ec6c330766b4fc2a6a58baf22784309","648009.7999999523","807.7999999523163","88","0","swim","","","","",""
"dual-task","null","null","null","","arctic","swim","474.60000002384186","","h","null","88","88","1","swim-dual-task","","h","lowercase","660000","0","3","85a0f81952ddf4239deec3e553483b882ec6c330766b4fc2a6a58baf22784309","660016.6999999285","474.60000002384186","88","1","swim","","","","",""
"dual-task","null","null","null","","arctic","swim","562.8000000715256","","A","null","77","77","1","swim-dual-task","","A","uppercase","670000","0","3","85a0f81952ddf4239deec3e553483b882ec6c330766b4fc2a6a58baf22784309","670016.2999999523","562.8000000715256","77","1","swim","","","","",""
"dual-task","null","null","null","","arctic","swim","656.1999999284744","","Q","null","77","77","1","swim-dual-task","","Q","uppercase","680000","0","3","85a0f81952ddf4239deec3e553483b882ec6c330766b4fc2a6a58baf22784309","680017.0999999046","656.1999999284744","77","1","swim","","","","",""
"dual-task","null","null","null","","arctic","swim","512.5","","E","null","77","77","1","swim-dual-task","","E","uppercase","692000","0","3","85a0f81952ddf4239deec3e553483b882ec6c330766b4fc2a6a58baf22784309","692005.5999999046","512.5","77","1","swim","","","","",""
"dual-task","null","null","null","","arctic","swim","498.89999997615814","","H","null","77","77","1","swim-dual-task","","H","uppercase","702000","0","3","85a0f81952ddf4239deec3e553483b882ec6c330766b4fc2a6a58baf22784309","702016.0999999046","498.89999997615814","77","1","swim","","","","",""
"dual-task","null","null","null","","arctic","swim","594.6000000238419","","F","null","77","77","1","swim-dual-task","","F","uppercase","710000","0","3","85a0f81952ddf4239deec3e553483b882ec6c330766b4fc2a6a58baf22784309","710011.6999999285","594.6000000238419","77","1","swim","","","","",""
"dual-task","null","null","null","","arctic","swim","498.89999997615814","","g","null","77","88","0","swim-dual-task","","g","lowercase","718000","0","3","85a0f81952ddf4239deec3e553483b882ec6c330766b4fc2a6a58baf22784309","718007.5","498.89999997615814","77","0","swim","","","","",""
"dual-task","null","null","null","","arctic","swim","587","","t","null","88","88","1","swim-dual-task","","t","lowercase","730000","0","3","85a0f81952ddf4239deec3e553483b882ec6c330766b4fc2a6a58baf22784309","730015.5","587","88","1","swim","","","","",""
"dual-task","null","null","null","","arctic","swim","544","","n","null","88","88","1","swim-dual-task","","n","lowercase","742000","0","3","85a0f81952ddf4239deec3e553483b882ec6c330766b4fc2a6a58baf22784309","742015.1999999285","544","88","1","swim","","","","",""
"dual-task","null","null","null","","arctic","swim","535.2999999523163","","a","null","88","88","1","swim-dual-task","","a","lowercase","748000","0","3","85a0f81952ddf4239deec3e553483b882ec6c330766b4fc2a6a58baf22784309","748015.5999999046","535.2999999523163","88","1","swim","","","","",""
"dual-task","null","null","null","","arctic","swim","474.2000000476837","","H","null","77","77","1","swim-dual-task","","H","uppercase","762000","0","3","85a0f81952ddf4239deec3e553483b882ec6c330766b4fc2a6a58baf22784309","762008.1999999285","474.2000000476837","77","1","swim","","","","",""
"dual-task","null","null","null","","arctic","swim","912.3999999761581","","t","null","88","88","1","swim-dual-task","","t","lowercase","772000","0","3","85a0f81952ddf4239deec3e553483b882ec6c330766b4fc2a6a58baf22784309","772005.1999999285","912.3999999761581","88","1","swim","","","","",""
"dual-task","null","null","null","","arctic","swim","599.1000000238419","","D","null","77","77","1","swim-dual-task","","D","uppercase","784000","0","3","85a0f81952ddf4239deec3e553483b882ec6c330766b4fc2a6a58baf22784309","784004.2999999523","599.1000000238419","77","1","swim","","","","",""
"dual-task","null","null","null","","arctic","swim","512.7999999523163","","e","null","88","88","1","swim-dual-task","","e","lowercase","792000","0","3","85a0f81952ddf4239deec3e553483b882ec6c330766b4fc2a6a58baf22784309","792017.7999999523","512.7999999523163","88","1","swim","","","","",""
"audio-keyboard-response","62","1838497","0.0-6.0-2.0-1.0","85a0f81952ddf4239deec3e553483b882ec6c330766b4fc2a6a58baf22784309","arctic","swim","null","","audio/story_swim_scrambled.mp3","","null","","","","","","","","","","","","","","","","","","","",""
"html-button-response","63","1846090","0.0-6.0-2.0-2.0","85a0f81952ddf4239deec3e553483b882ec6c330766b4fc2a6a58baf22784309","arctic","swim","7590","","<p>This concludes the story. Thank you for listening.</p><p>You will now answer some questions about the content of the story.</p>","0","","","","","","","","","","","","","","","","","","","","",""
"survey-multi-choice","64","1852003","0.0-6.0-2.0-3.0-0.0","85a0f81952ddf4239deec3e553483b882ec6c330766b4fc2a6a58baf22784309","arctic","swim","5908","","<b>How did the narrator train for his swim test?</b>","","","","1","swim-comprehension","","","","","","","","","","","","","{""Q0"":""Took his kids to the pool every day""}","","","",""
"survey-multi-choice","65","1857826","0.0-6.0-2.0-3.0-0.1","85a0f81952ddf4239deec3e553483b882ec6c330766b4fc2a6a58baf22784309","arctic","swim","5567","","<b>How many astronaut candidates reported for duty at the Johnson Space Center?</b>","","","","1","swim-comprehension","","","","","","","","","","","","","{""Q0"":""Forty-four""}","","","",""
"survey-multi-choice","66","1863578","0.0-6.0-2.0-3.0-0.2","85a0f81952ddf4239deec3e553483b882ec6c330766b4fc2a6a58baf22784309","arctic","swim","5498","","<b>How many astronaut candidates passed the first swim test?</b>","","","","1","swim-comprehension","","","","","","","","","","","","","{""Q0"":""All of them""}","","","",""
"survey-multi-choice","67","1867114","0.0-6.0-2.0-3.0-0.3","85a0f81952ddf4239deec3e553483b882ec6c330766b4fc2a6a58baf22784309","arctic","swim","3263","","<b>Where is the home of naval aviation?</b>","","","","1","swim-comprehension","","","","","","","","","","","","","{""Q0"":""Pensacola""}","","","",""
"survey-multi-choice","68","1873426","0.0-6.0-2.0-3.0-0.4","85a0f81952ddf4239deec3e553483b882ec6c330766b4fc2a6a58baf22784309","arctic","swim","6058","","<b>How often does the narrator swim, now that he is a good swimmer?</b>","","","","0","swim-comprehension","","","","","","","","","","","","","{""Q0"":""Every weekend with his kids""}","","","",""
"survey-multi-choice","69","1876666","0.0-6.0-2.0-3.0-0.5","85a0f81952ddf4239deec3e553483b882ec6c330766b4fc2a6a58baf22784309","arctic","swim","2983","","<b>What is the narrator afraid of, aside from the water?</b>","","","","1","swim-comprehension","","","","","","","","","","","","","{""Q0"":""Heights""}","","","",""
"survey-multi-choice","70","1882650","0.0-6.0-2.0-3.0-0.6","85a0f81952ddf4239deec3e553483b882ec6c330766b4fc2a6a58baf22784309","arctic","swim","5730","","<b>What gave the narrator his greatest feeling of accomplishment?</b>","","","","1","swim-comprehension","","","","","","","","","","","","","{""Q0"":""Passing the water survival course""}","","","",""
"survey-multi-choice","71","1888947","0.0-6.0-2.0-3.0-0.7","85a0f81952ddf4239deec3e553483b882ec6c330766b4fc2a6a58baf22784309","arctic","swim","6042","","<b>What were the astronaut candidates trained to do at the naval air station?</b>","","","","1","swim-comprehension","","","","","","","","","","","","","{""Q0"":""Eject out of aircraft and survive in water long enough to be rescued""}","","","",""
"survey-multi-choice","72","1895363","0.0-6.0-2.0-3.0-0.8","85a0f81952ddf4239deec3e553483b882ec6c330766b4fc2a6a58baf22784309","arctic","swim","6156","","<b>What was the final step of the first swim test in the pool?</b>","","","","1","swim-comprehension","","","","","","","","","","","","","{""Q0"":""Tread water with hands above the water""}","","","",""
"survey-multi-choice","73","1900482","0.0-6.0-2.0-3.0-0.9","85a0f81952ddf4239deec3e553483b882ec6c330766b4fc2a6a58baf22784309","arctic","swim","4859","","<b>How many times did the astronaut candidates have to complete the final exercise to pass?</b>","","","","1","swim-comprehension","","","","","","","","","","","","","{""Q0"":""Two""}","","","",""
"html-button-response","74","1902162","0.0-6.0-2.0-4.0","85a0f81952ddf4239deec3e553483b882ec6c330766b4fc2a6a58baf22784309","arctic","swim","1428","","<p>Thank you for your responses.</p><p>You will now answer some questions about your impressions of the story.</p>","0","","","","","","","","","","","","","","","","","","","","",""
"html-button-response","75","1905249","0.0-6.0-2.0-5.0-0.0","85a0f81952ddf4239deec3e553483b882ec6c330766b4fc2a6a58baf22784309","arctic","swim","3086","","E8","1","","","","swim-engagement","","","","","","","","","","","","","","2","enjoyment","",""
"html-button-response","76","1907930","0.0-6.0-2.0-5.0-0.1","85a0f81952ddf4239deec3e553483b882ec6c330766b4fc2a6a58baf22784309","arctic","swim","2428","","E7","3","","","","swim-engagement","","","","","","","","","","","","","","4","enjoyment","",""
"html-button-response","77","1911682","0.0-6.0-2.0-5.0-0.2","85a0f81952ddf4239deec3e553483b882ec6c330766b4fc2a6a58baf22784309","arctic","swim","3498","","A5","4","","","","swim-engagement","","","","","","","","","","","","","","5","absorption","",""
"html-button-response","78","1913666","0.0-6.0-2.0-5.0-0.3","85a0f81952ddf4239deec3e553483b882ec6c330766b4fc2a6a58baf22784309","arctic","swim","1731","","E6","2","","","","swim-engagement","","","","","","","","","","","","","","3","enjoyment","",""
"html-button-response","79","1916314","0.0-6.0-2.0-5.0-0.4","85a0f81952ddf4239deec3e553483b882ec6c330766b4fc2a6a58baf22784309","arctic","swim","2395","","EE3","1","","","","swim-engagement","","","","","","","","","","","","","","2","emo-engage","",""
"html-button-response","80","1918673","0.0-6.0-2.0-5.0-0.5","85a0f81952ddf4239deec3e553483b882ec6c330766b4fc2a6a58baf22784309","arctic","swim","2107","","EE4","2","","","","swim-engagement","","","","","","","","","","","","","","3","emo-engage","",""
"html-button-response","81","1922066","0.0-6.0-2.0-5.0-0.6","85a0f81952ddf4239deec3e553483b882ec6c330766b4fc2a6a58baf22784309","arctic","swim","3138","","EE1","2","","","","swim-engagement","","","","","","","","","","","","","","3","emo-engage","",""
"html-button-response","82","1924153","0.0-6.0-2.0-5.0-0.7","85a0f81952ddf4239deec3e553483b882ec6c330766b4fc2a6a58baf22784309","arctic","swim","1834","","E1","2","","","","swim-engagement","","","","","","","","","","","","","","3","enjoyment","",""
"html-button-response","83","1925690","0.0-6.0-2.0-5.0-0.8","85a0f81952ddf4239deec3e553483b882ec6c330766b4fc2a6a58baf22784309","arctic","swim","1284","","A3","1","","","","swim-engagement","","","","","","","","","","","","","","2","absorption","",""
"html-button-response","84","1928445","0.0-6.0-2.0-5.0-0.9","85a0f81952ddf4239deec3e553483b882ec6c330766b4fc2a6a58baf22784309","arctic","swim","2502","","E10","0","","","","swim-engagement","","","","","","","","","","","","","","1","enjoyment","",""
"html-button-response","85","1932193","0.0-6.0-2.0-5.0-0.10","85a0f81952ddf4239deec3e553483b882ec6c330766b4fc2a6a58baf22784309","arctic","swim","3495","","A1","1","","","","swim-engagement","","","","","","","","","","","","","","2","absorption","",""
"html-button-response","86","1937489","0.0-6.0-2.0-5.0-0.11","85a0f81952ddf4239deec3e553483b882ec6c330766b4fc2a6a58baf22784309","arctic","swim","5043","","A4","2","","","","swim-engagement","","","","","","","","","","","","","","3","absorption","",""
"html-button-response","87","1940033","0.0-6.0-2.0-5.0-0.12","85a0f81952ddf4239deec3e553483b882ec6c330766b4fc2a6a58baf22784309","arctic","swim","2291","","EE5","2","","","","swim-engagement","","","","","","","","","","","","","","3","emo-engage","",""
"html-button-response","88","1941987","0.0-6.0-2.0-5.0-0.13","85a0f81952ddf4239deec3e553483b882ec6c330766b4fc2a6a58baf22784309","arctic","swim","1702","","EE2","1","","","","swim-engagement","","","","","","","","","","","","","","2","emo-engage","",""
"html-button-response","89","1944977","0.0-6.0-2.0-5.0-0.14","85a0f81952ddf4239deec3e553483b882ec6c330766b4fc2a6a58baf22784309","arctic","swim","2738","","MS1","2","","","","swim-engagement","","","","","","","","","","","","","","3","mental-sim","",""
"html-button-response","90","1949025","0.0-6.0-2.0-5.0-0.15","85a0f81952ddf4239deec3e553483b882ec6c330766b4fc2a6a58baf22784309","arctic","swim","3794","","MS2","3","","","","swim-engagement","","","","","","","","","","","","","","4","mental-sim","",""
"html-button-response","91","1952760","0.0-6.0-2.0-5.0-0.16","85a0f81952ddf4239deec3e553483b882ec6c330766b4fc2a6a58baf22784309","arctic","swim","3483","","MS3","2","","","","swim-engagement","","","","","","","","","","","","","","3","mental-sim","",""
"html-button-response","92","1955344","0.0-6.0-2.0-5.0-0.17","85a0f81952ddf4239deec3e553483b882ec6c330766b4fc2a6a58baf22784309","arctic","swim","2331","","A2","4","","","","swim-engagement","","","","","","","","","","","","","","5","absorption","",""
"html-button-response","93","1956776","0.0-8.0","85a0f81952ddf4239deec3e553483b882ec6c330766b4fc2a6a58baf22784309","arctic","swim","1179","","<p>Thank you for your responses.</p><p>You will now answer some demographic, hearing, and general health questions.</p>","0","","","","","","","","","","","","","","","","","","","","",""
"survey-multi-choice","94","1959472","0.0-9.0-0.0","85a0f81952ddf4239deec3e553483b882ec6c330766b4fc2a6a58baf22784309","arctic","swim","2694","","","","","","","survey","","","","","","","","","","","","","{""Q0"":""Chrome""}","","","browser",""
"survey-text","95","1962713","0.0-9.0-1.0","85a0f81952ddf4239deec3e553483b882ec6c330766b4fc2a6a58baf22784309","arctic","swim","2983.3000000715256","","","","","","","survey","","","","","","","","","","","","","{""AGE"":""37""}","","","age","37"
"survey-multi-choice","96","1965121","0.0-9.0-2.0","85a0f81952ddf4239deec3e553483b882ec6c330766b4fc2a6a58baf22784309","arctic","swim","2151","","","","","","","survey","","","","","","","","","","","","","{""Q0"":""Male""}","","","gender","Male"
"survey-multi-choice","97","1967952","0.0-9.0-4.0","85a0f81952ddf4239deec3e553483b882ec6c330766b4fc2a6a58baf22784309","arctic","swim","2576","","","","","","","survey","","","","","","","","","","","","","{""Q0"":""Right""}","","","handedness","Right"
"survey-multi-choice","98","1970248","0.0-9.0-5.0","85a0f81952ddf4239deec3e553483b882ec6c330766b4fc2a6a58baf22784309","arctic","swim","2040","","","","","","","survey","","","","","","","","","","","","","{""Q0"":""Bachelor's Degree""}","","","education","Bachelor's Degree"
"survey-text","99","1975040","0.0-10.0-0.0","85a0f81952ddf4239deec3e553483b882ec6c330766b4fc2a6a58baf22784309","arctic","swim","4538.399999976158","","","","","","","survey","","","","","","","","","","","","","{""L1"":""English""}","","","first-language","English"
"survey-text","100","1983777","0.0-10.0-1.0","85a0f81952ddf4239deec3e553483b882ec6c330766b4fc2a6a58baf22784309","arctic","swim","8473.199999928474","","","","","","","survey","","","","","","","","","","","","","{""L2name"":"""",""L2fluency"":"""",""L3name"":"""",""L3fluency"":"""",""L4name"":"""",""L4fluency"":""""}","","","additional-languages","{""L2name"":"""",""L2fluency"":"""",""L3name"":"""",""L3fluency"":"""",""L4name"":"""",""L4fluency"":""""}"
"survey-multi-choice","101","1986025","0.0-10.0-2.0","85a0f81952ddf4239deec3e553483b882ec6c330766b4fc2a6a58baf22784309","arctic","swim","1992","","","","","","","survey","","","","","","","","","","","","","{""Q0"":""No""}","","","hearing-aid","No"
"survey-multi-choice","102","1989415","0.0-10.0-3.0","85a0f81952ddf4239deec3e553483b882ec6c330766b4fc2a6a58baf22784309","arctic","swim","3136","","","","","","","survey","","","","","","","","","","","","","{""Q0"":""Never""}","","","ringing-ears","Never"
"survey-multi-choice","103","1993249","0.0-10.0-5.0","85a0f81952ddf4239deec3e553483b882ec6c330766b4fc2a6a58baf22784309","arctic","swim","3576","","","","","","","survey","","","","","","","","","","","","","{""Q0"":""No""}","","","neuro-disease","No"
"survey-multi-choice","104","1996147","0.0-10.0-7.0","85a0f81952ddf4239deec3e553483b882ec6c330766b4fc2a6a58baf22784309","arctic","swim","2641","","","","","","","survey","","","","","","","","","","","","","{""Q0"":""No""}","","","take-meds","No"
"survey-text","105","2002913","0.0-10.0-9.0","85a0f81952ddf4239deec3e553483b882ec6c330766b4fc2a6a58baf22784309","arctic","swim","6435.300000071526","","","","","","","survey","","","","","","","","","","","","","{""HC"":""None.""}","","","health-concerns","None."
"html-button-response","106","2007657","0.0-11.0-0.0","85a0f81952ddf4239deec3e553483b882ec6c330766b4fc2a6a58baf22784309","arctic","swim","4491","","<p>How would you describe your musical skills/experiences?</p>","4","","","","survey","","","","","","","","","","","","","","","","music-skill","5"
"survey-multi-choice","107","2009880","0.0-11.0-1.0","85a0f81952ddf4239deec3e553483b882ec6c330766b4fc2a6a58baf22784309","arctic","swim","1970","","","","","","","survey","","","","","","","","","","","","","{""Q0"":""Yes""}","","","music-instrument","Yes"
"survey-text","108","2014768","0.0-11.0-2.0-0.0","85a0f81952ddf4239deec3e553483b882ec6c330766b4fc2a6a58baf22784309","arctic","swim","4627.5","","","","","","","survey","","","","","","","","","","","","","{""MEXP"":""22""}","","","music-training-yrs","22"
"html-button-response","109","2017312","0.0-12.0-0.0","85a0f81952ddf4239deec3e553483b882ec6c330766b4fc2a6a58baf22784309","arctic","swim","2292","","<p>How would you describe your general hearing abilities?</p>","4","","","","survey","","","","","","","","","","","","","","","","ssq-01","5"
"html-button-response","110","2021895","0.0-12.0-1.0","85a0f81952ddf4239deec3e553483b882ec6c330766b4fc2a6a58baf22784309","arctic","swim","4330","","<p>When you talk with someone at a place that strongly reverberates/echoes (e.g., in a church or train station),</br>can you understand what the person says?</p>","8","","","","survey","","","","","","","","","","","","","","","","ssq-02","8"
"html-button-response","111","2025568","0.0-12.0-2.0","85a0f81952ddf4239deec3e553483b882ec6c330766b4fc2a6a58baf22784309","arctic","swim","3420","","<p>When you are with a group (~5 people) in a lively restaurant, can you follow the group's conversation?</p>","8","","","","survey","","","","","","","","","","","","","","","","ssq-03","8"
"html-button-response","112","2029631","0.0-12.0-3.0","85a0f81952ddf4239deec3e553483b882ec6c330766b4fc2a6a58baf22784309","arctic","swim","3810","","<p>Based on the sound of a bus or truck, can you tell whether it is moving towards or away from you?</p>","6","","","","survey","","","","","","","","","","","","","","","","ssq-04","6"
"html-button-response","113","2034968","0.0-12.0-4.0","85a0f81952ddf4239deec3e553483b882ec6c330766b4fc2a6a58baf22784309","arctic","swim","5084","","<p>When you are in an unknown environment, can you tell from which direction a brief sound originates?</p>","6","","","","survey","","","","","","","","","","","","","","","","ssq-05","6"
"html-button-response","114","2038679","0.0-12.0-5.0","85a0f81952ddf4239deec3e553483b882ec6c330766b4fc2a6a58baf22784309","arctic","swim","3457","","<p>Are you able to ignore distracting sounds when you concentrate on a specific aspect of your acoustic surrounding?</p>","7","","","","survey","","","","","","","","","","","","","","","","ssq-06","7"
"fullscreen","115","2039931","0.0-13.0","85a0f81952ddf4239deec3e553483b882ec6c330766b4fc2a6a58baf22784309","arctic","swim","","","","","","","","","true","","","","","","","","","","","","","","","",""
