"trial_type","trial_index","time_elapsed","internal_node_id","ParticipantID","firstStory","scramStory","rt","url","stimulus","button_pressed","key_press","correctRESP","correct","designation","success","letterStim","letterType","ONSET","TIMEOUT","CONDITION","Participant","ONSET_ACTUAL","RT","RESP","ACC","STORY","responses","response","type","surveyQuestion","QRESP"
"pavlovia","0","2","0.0-0.0","f1074ff70b9eb001543fd760678cb85a2488571415e10ff4284378db224974af","swim","swim","","","","","","","","","","","","","","","","","","","","","","","","",""
"external-html","1","5314","0.0-1.0","f1074ff70b9eb001543fd760678cb85a2488571415e10ff4284378db224974af","swim","swim","5160","consent/consent_updated.html","","","","","","","","","","","","","","","","","","","","","","",""
"html-button-response","2","86114","0.0-2.0-0.0","f1074ff70b9eb001543fd760678cb85a2488571415e10ff4284378db224974af","swim","swim","80799","","<p>Before we begin the main task, you will complete a short volume calibration and headphone check.</p><p>Please make sure you are in a quiet listening environment, that you are wearing headphones, and that your computer's volume is turned on.<p></p>","0","","","","","","","","","","","","","","","","","","","","",""
"html-button-response","3","89523","0.0-2.0-1.0","f1074ff70b9eb001543fd760678cb85a2488571415e10ff4284378db224974af","swim","swim","3159","","<p>The volume calibration will be first.</p><p>You will hear a thirty-second noise. Please adjust your computer's volume so that this noise is being presented at a comfortable level.<p></p>","0","","","","","","","","","","","","","","","","","","","","",""
"audio-button-response","4","114693","0.0-2.0-2.0","f1074ff70b9eb001543fd760678cb85a2488571415e10ff4284378db224974af","swim","swim","24917","","audio/volumetest.mp3","0","","","","","","","","","","","","","","","","","","","","",""
"html-keyboard-response","5","126883","0.0-3.0-0.0","f1074ff70b9eb001543fd760678cb85a2488571415e10ff4284378db224974af","swim","swim","12188","","<p>You will now complete a short headphone check.</p><p>On each trial, you will hear three tones. One of these tones will be quieter than the others. Your task is to identify whether the quiet tone occurred first, second, or third.</p><p>There are six trials in total.<p></p><p></p>(Press SPACEBAR to begin)","","32","","","","","","","","","","","","","","","","","","","",""
"html-keyboard-response","6","127654","0.0-3.0-1.0-0.0","f1074ff70b9eb001543fd760678cb85a2488571415e10ff4284378db224974af","swim","swim","null","","<div style=""font-size:60px;"">+</div>","","null","","","","","","","","","","","","","","","","","","","",""
"audio-button-response","7","132147","0.0-3.0-1.0-1.0","f1074ff70b9eb001543fd760678cb85a2488571415e10ff4284378db224974af","swim","swim","4490","","audio/t3_2.mp3","1","","2","0","headphone-test","","","","","","","","","","","","","","","","",""
"html-keyboard-response","8","132658","0.0-3.0-1.0-2.0","f1074ff70b9eb001543fd760678cb85a2488571415e10ff4284378db224974af","swim","swim","null","","<p>Incorrect</p>","","null","","","","","","","","","","","","","","","","","","","",""
"html-keyboard-response","9","133164","0.0-3.0-1.0-0.1","f1074ff70b9eb001543fd760678cb85a2488571415e10ff4284378db224974af","swim","swim","null","","<div style=""font-size:60px;"">+</div>","","null","","","","","","","","","","","","","","","","","","","",""
"audio-button-response","10","137657","0.0-3.0-1.0-1.1","f1074ff70b9eb001543fd760678cb85a2488571415e10ff4284378db224974af","swim","swim","4493","","audio/t2_2.mp3","2","","1","0","headphone-test","","","","","","","","","","","","","","","","",""
"html-keyboard-response","11","138159","0.0-3.0-1.0-2.1","f1074ff70b9eb001543fd760678cb85a2488571415e10ff4284378db224974af","swim","swim","null","","<p>Incorrect</p>","","null","","","","","","","","","","","","","","","","","","","",""
"html-keyboard-response","12","138671","0.0-3.0-1.0-0.2","f1074ff70b9eb001543fd760678cb85a2488571415e10ff4284378db224974af","swim","swim","null","","<div style=""font-size:60px;"">+</div>","","null","","","","","","","","","","","","","","","","","","","",""
"audio-button-response","13","143377","0.0-3.0-1.0-1.2","f1074ff70b9eb001543fd760678cb85a2488571415e10ff4284378db224974af","swim","swim","4705","","audio/t1_1.mp3","1","","0","0","headphone-test","","","","","","","","","","","","","","","","",""
"html-keyboard-response","14","143885","0.0-3.0-1.0-2.2","f1074ff70b9eb001543fd760678cb85a2488571415e10ff4284378db224974af","swim","swim","null","","<p>Incorrect</p>","","null","","","","","","","","","","","","","","","","","","","",""
"html-keyboard-response","15","144396","0.0-3.0-1.0-0.3","f1074ff70b9eb001543fd760678cb85a2488571415e10ff4284378db224974af","swim","swim","null","","<div style=""font-size:60px;"">+</div>","","null","","","","","","","","","","","","","","","","","","","",""
"audio-button-response","16","148719","0.0-3.0-1.0-1.3","f1074ff70b9eb001543fd760678cb85a2488571415e10ff4284378db224974af","swim","swim","4322","","audio/t3_1.mp3","0","","2","0","headphone-test","","","","","","","","","","","","","","","","",""
"html-keyboard-response","17","149221","0.0-3.0-1.0-2.3","f1074ff70b9eb001543fd760678cb85a2488571415e10ff4284378db224974af","swim","swim","null","","<p>Incorrect</p>","","null","","","","","","","","","","","","","","","","","","","",""
"html-keyboard-response","18","149736","0.0-3.0-1.0-0.4","f1074ff70b9eb001543fd760678cb85a2488571415e10ff4284378db224974af","swim","swim","null","","<div style=""font-size:60px;"">+</div>","","null","","","","","","","","","","","","","","","","","","","",""
"audio-button-response","19","154135","0.0-3.0-1.0-1.4","f1074ff70b9eb001543fd760678cb85a2488571415e10ff4284378db224974af","swim","swim","4399","","audio/t1_2.mp3","2","","0","0","headphone-test","","","","","","","","","","","","","","","","",""
"html-keyboard-response","20","154645","0.0-3.0-1.0-2.4","f1074ff70b9eb001543fd760678cb85a2488571415e10ff4284378db224974af","swim","swim","null","","<p>Incorrect</p>","","null","","","","","","","","","","","","","","","","","","","",""
"html-keyboard-response","21","155157","0.0-3.0-1.0-0.5","f1074ff70b9eb001543fd760678cb85a2488571415e10ff4284378db224974af","swim","swim","null","","<div style=""font-size:60px;"">+</div>","","null","","","","","","","","","","","","","","","","","","","",""
"audio-button-response","22","159501","0.0-3.0-1.0-1.5","f1074ff70b9eb001543fd760678cb85a2488571415e10ff4284378db224974af","swim","swim","4342","","audio/t2_1.mp3","0","","1","0","headphone-test","","","","","","","","","","","","","","","","",""
"html-keyboard-response","23","160008","0.0-3.0-1.0-2.5","f1074ff70b9eb001543fd760678cb85a2488571415e10ff4284378db224974af","swim","swim","null","","<p>Incorrect</p>","","null","","","","","","","","","","","","","","","","","","","",""
"fullscreen","24","165827","0.0-4.0","f1074ff70b9eb001543fd760678cb85a2488571415e10ff4284378db224974af","swim","swim","","","","","","","","","true","","","","","","","","","","","","","","","",""
"html-button-response","25","174653","0.0-5.0-0.0","f1074ff70b9eb001543fd760678cb85a2488571415e10ff4284378db224974af","swim","swim","8826","","<p>There are two blocks to this experiment.</p><p>In each block, you will hear a ~13.5 minute story. One of the stories will be scrambled. Please listen carefully to both stories and understand them as best you can.</p><p>After each story, you will be asked some questions to assess your comprehension.</p>","0","","","","","","","","","","","","","","","","","","","","",""
"html-button-response","26","204951","0.0-5.0-1.0","f1074ff70b9eb001543fd760678cb85a2488571415e10ff4284378db224974af","swim","swim","30297","","<p>During each story, there will be an additional task.</p><p>A letter will occasionally appear on the screen.</br>Your job is to - as quickly as you can - decide whether the letter is lowercase or uppercase and press one of two keys on the keyboard:</p><p>If the letter is <b>lowercase</b>, press key &lt;<b>x</b>&gt;.</p><p>If the letter is <b>uppercase</b>, press key &lt;<b>m</b>&gt;.</p>","0","","","","","","","","","","","","","","","","","","","","",""
"html-keyboard-response","27","209469","0.0-5.0-2.0","f1074ff70b9eb001543fd760678cb85a2488571415e10ff4284378db224974af","swim","swim","4518","","<p>Because we want your responses to be as quick as possible, please keep your index fingers over the keys while listening.</p><p>Each block lasts about 20 minutes.</p><p><b>Press &lt;x&gt; or &lt;m&gt; to start the first block!</b></p>","","88","","","","","","","","","","","","","","","","","","","",""
"html-keyboard-response","28","209971","0.0-7.0-0.0-0.0","f1074ff70b9eb001543fd760678cb85a2488571415e10ff4284378db224974af","swim","swim","null","","<div style=""font-size:60px;"" tabindex=""0"">+</div>","","null","","","","","","","","","","","","","","","","","","","",""
"dual-task","null","null","null","","swim","swim","NA","","r","null","NA","88","0","swim-dual-task","","r","lowercase","14000","1","3","f1074ff70b9eb001543fd760678cb85a2488571415e10ff4284378db224974af","14010.5","NA","NA","0","swim","","","","",""
"dual-task","null","null","null","","swim","swim","926","","f","null","88","88","1","swim-dual-task","","f","lowercase","20000","0","3","f1074ff70b9eb001543fd760678cb85a2488571415e10ff4284378db224974af","20007.69999998808","926","88","1","swim","","","","",""
"dual-task","null","null","null","","swim","swim","539.2999999523163","","g","null","88","88","1","swim-dual-task","","g","lowercase","32000","0","3","f1074ff70b9eb001543fd760678cb85a2488571415e10ff4284378db224974af","32011.5","539.2999999523163","88","1","swim","","","","",""
"dual-task","null","null","null","","swim","swim","577.3999999761581","","f","null","88","88","1","swim-dual-task","","f","lowercase","44000","0","3","f1074ff70b9eb001543fd760678cb85a2488571415e10ff4284378db224974af","44011.89999997616","577.3999999761581","88","1","swim","","","","",""
"dual-task","null","null","null","","swim","swim","523.5","","b","null","88","88","1","swim-dual-task","","b","lowercase","56000","0","3","f1074ff70b9eb001543fd760678cb85a2488571415e10ff4284378db224974af","56010.39999997616","523.5","88","1","swim","","","","",""
"dual-task","null","null","null","","swim","swim","529.1999999880791","","n","null","88","88","1","swim-dual-task","","n","lowercase","66000","0","3","f1074ff70b9eb001543fd760678cb85a2488571415e10ff4284378db224974af","66004.30000001192","529.1999999880791","88","1","swim","","","","",""
"dual-task","null","null","null","","swim","swim","478.80000001192093","","F","null","77","77","1","swim-dual-task","","F","uppercase","80000","0","3","f1074ff70b9eb001543fd760678cb85a2488571415e10ff4284378db224974af","80007.30000001192","478.80000001192093","77","1","swim","","","","",""
"dual-task","null","null","null","","swim","swim","1166.4000000357628","","Q","null","77","77","1","swim-dual-task","","Q","uppercase","88000","0","3","f1074ff70b9eb001543fd760678cb85a2488571415e10ff4284378db224974af","88006.69999998808","1166.4000000357628","77","1","swim","","","","",""
"dual-task","null","null","null","","swim","swim","731","","D","null","77","77","1","swim-dual-task","","D","uppercase","96000","0","3","f1074ff70b9eb001543fd760678cb85a2488571415e10ff4284378db224974af","96002.59999996424","731","77","1","swim","","","","",""
"dual-task","null","null","null","","swim","swim","472.39999997615814","","B","null","77","77","1","swim-dual-task","","B","uppercase","106000","0","3","f1074ff70b9eb001543fd760678cb85a2488571415e10ff4284378db224974af","106004.69999998808","472.39999997615814","77","1","swim","","","","",""
"dual-task","null","null","null","","swim","swim","474.4000000357628","","B","null","77","77","1","swim-dual-task","","B","uppercase","112000","0","3","f1074ff70b9eb001543fd760678cb85a2488571415e10ff4284378db224974af","112003.19999998808","474.4000000357628","77","1","swim","","","","",""
"dual-task","null","null","null","","swim","swim","538.1999999880791","","F","null","77","77","1","swim-dual-task","","F","uppercase","120000","0","3","f1074ff70b9eb001543fd760678cb85a2488571415e10ff4284378db224974af","120002.59999996424","538.1999999880791","77","1","swim","","","","",""
"dual-task","null","null","null","","swim","swim","484.5","","e","null","88","88","1","swim-dual-task","","e","lowercase","134000","0","3","f1074ff70b9eb001543fd760678cb85a2488571415e10ff4284378db224974af","134000.30000001192","484.5","88","1","swim","","","","",""
"dual-task","null","null","null","","swim","swim","474","","E","null","88","77","0","swim-dual-task","","E","uppercase","144000","0","3","f1074ff70b9eb001543fd760678cb85a2488571415e10ff4284378db224974af","144002.80000001192","474","88","0","swim","","","","",""
"dual-task","null","null","null","","swim","swim","570.1000000238419","","t","null","88","88","1","swim-dual-task","","t","lowercase","152000","0","3","f1074ff70b9eb001543fd760678cb85a2488571415e10ff4284378db224974af","152011.19999998808","570.1000000238419","88","1","swim","","","","",""
"dual-task","null","null","null","","swim","swim","493","","q","null","88","88","1","swim-dual-task","","q","lowercase","164000","0","3","f1074ff70b9eb001543fd760678cb85a2488571415e10ff4284378db224974af","163999.59999996424","493","88","1","swim","","","","",""
"dual-task","null","null","null","","swim","swim","469","","t","null","88","88","1","swim-dual-task","","t","lowercase","176000","0","3","f1074ff70b9eb001543fd760678cb85a2488571415e10ff4284378db224974af","176002.30000001192","469","88","1","swim","","","","",""
"dual-task","null","null","null","","swim","swim","452.9000000357628","","A","null","77","77","1","swim-dual-task","","A","uppercase","188000","0","3","f1074ff70b9eb001543fd760678cb85a2488571415e10ff4284378db224974af","187999.80000001192","452.9000000357628","77","1","swim","","","","",""
"dual-task","null","null","null","","swim","swim","478.2999999523163","","n","null","88","88","1","swim-dual-task","","n","lowercase","198000","0","3","f1074ff70b9eb001543fd760678cb85a2488571415e10ff4284378db224974af","198008","478.2999999523163","88","1","swim","","","","",""
"dual-task","null","null","null","","swim","swim","567.6999999880791","","E","null","77","77","1","swim-dual-task","","E","uppercase","208000","0","3","f1074ff70b9eb001543fd760678cb85a2488571415e10ff4284378db224974af","208006.59999996424","567.6999999880791","77","1","swim","","","","",""
"dual-task","null","null","null","","swim","swim","505.10000002384186","","Q","null","77","77","1","swim-dual-task","","Q","uppercase","218000","0","3","f1074ff70b9eb001543fd760678cb85a2488571415e10ff4284378db224974af","218003.30000001192","505.10000002384186","77","1","swim","","","","",""
"dual-task","null","null","null","","swim","swim","508.30000001192093","","a","null","88","88","1","swim-dual-task","","a","lowercase","228000","0","3","f1074ff70b9eb001543fd760678cb85a2488571415e10ff4284378db224974af","227999.39999997616","508.30000001192093","88","1","swim","","","","",""
"dual-task","null","null","null","","swim","swim","496.5","","d","null","88","88","1","swim-dual-task","","d","lowercase","240000","0","3","f1074ff70b9eb001543fd760678cb85a2488571415e10ff4284378db224974af","240014.39999997616","496.5","88","1","swim","","","","",""
"dual-task","null","null","null","","swim","swim","565.6999999880791","","H","null","77","77","1","swim-dual-task","","H","uppercase","252000","0","3","f1074ff70b9eb001543fd760678cb85a2488571415e10ff4284378db224974af","252016.39999997616","565.6999999880791","77","1","swim","","","","",""
"dual-task","null","null","null","","swim","swim","491.10000002384186","","g","null","88","88","1","swim-dual-task","","g","lowercase","260000","0","3","f1074ff70b9eb001543fd760678cb85a2488571415e10ff4284378db224974af","260009.5","491.10000002384186","88","1","swim","","","","",""
"dual-task","null","null","null","","swim","swim","490.9000000357628","","h","null","88","88","1","swim-dual-task","","h","lowercase","274000","0","3","f1074ff70b9eb001543fd760678cb85a2488571415e10ff4284378db224974af","274009.6999999881","490.9000000357628","88","1","swim","","","","",""
"dual-task","null","null","null","","swim","swim","507.0999999642372","","r","null","88","88","1","swim-dual-task","","r","lowercase","284000","0","3","f1074ff70b9eb001543fd760678cb85a2488571415e10ff4284378db224974af","284009.3000000119","507.0999999642372","88","1","swim","","","","",""
"dual-task","null","null","null","","swim","swim","491.69999998807907","","f","null","88","88","1","swim-dual-task","","f","lowercase","296000","0","3","f1074ff70b9eb001543fd760678cb85a2488571415e10ff4284378db224974af","296009.5","491.69999998807907","88","1","swim","","","","",""
"dual-task","null","null","null","","swim","swim","538.1000000238419","","t","null","88","88","1","swim-dual-task","","t","lowercase","310000","0","3","f1074ff70b9eb001543fd760678cb85a2488571415e10ff4284378db224974af","310019.1999999881","538.1000000238419","88","1","swim","","","","",""
"dual-task","null","null","null","","swim","swim","474.9000000357628","","Q","null","77","77","1","swim-dual-task","","Q","uppercase","318000","0","3","f1074ff70b9eb001543fd760678cb85a2488571415e10ff4284378db224974af","318009.39999997616","474.9000000357628","77","1","swim","","","","",""
"dual-task","null","null","null","","swim","swim","1763.1000000238419","","N","null","77","77","1","swim-dual-task","","N","uppercase","328000","0","3","f1074ff70b9eb001543fd760678cb85a2488571415e10ff4284378db224974af","328009.3000000119","1763.1000000238419","77","1","swim","","","","",""
"dual-task","null","null","null","","swim","swim","1025.1000000238419","","b","null","88","88","1","swim-dual-task","","b","lowercase","334000","0","3","f1074ff70b9eb001543fd760678cb85a2488571415e10ff4284378db224974af","334019.3000000119","1025.1000000238419","88","1","swim","","","","",""
"dual-task","null","null","null","","swim","swim","513.3000000119209","","R","null","77","77","1","swim-dual-task","","R","uppercase","344000","0","3","f1074ff70b9eb001543fd760678cb85a2488571415e10ff4284378db224974af","344019.1999999881","513.3000000119209","77","1","swim","","","","",""
"dual-task","null","null","null","","swim","swim","555.1999999880791","","e","null","88","88","1","swim-dual-task","","e","lowercase","352000","0","3","f1074ff70b9eb001543fd760678cb85a2488571415e10ff4284378db224974af","352009.1999999881","555.1999999880791","88","1","swim","","","","",""
"dual-task","null","null","null","","swim","swim","475.80000001192093","","h","null","88","88","1","swim-dual-task","","h","lowercase","366000","0","3","f1074ff70b9eb001543fd760678cb85a2488571415e10ff4284378db224974af","366009.39999997616","475.80000001192093","88","1","swim","","","","",""
"dual-task","null","null","null","","swim","swim","577.1999999880791","","B","null","77","77","1","swim-dual-task","","B","uppercase","374000","0","3","f1074ff70b9eb001543fd760678cb85a2488571415e10ff4284378db224974af","374019.3000000119","577.1999999880791","77","1","swim","","","","",""
"dual-task","null","null","null","","swim","swim","625.8999999761581","","e","null","88","88","1","swim-dual-task","","e","lowercase","382000","0","3","f1074ff70b9eb001543fd760678cb85a2488571415e10ff4284378db224974af","382019.5","625.8999999761581","88","1","swim","","","","",""
"dual-task","null","null","null","","swim","swim","652","","g","null","88","88","1","swim-dual-task","","g","lowercase","392000","0","3","f1074ff70b9eb001543fd760678cb85a2488571415e10ff4284378db224974af","392009.1999999881","652","88","1","swim","","","","",""
"dual-task","null","null","null","","swim","swim","480.19999998807907","","a","null","88","88","1","swim-dual-task","","a","lowercase","400000","0","3","f1074ff70b9eb001543fd760678cb85a2488571415e10ff4284378db224974af","400019.8000000119","480.19999998807907","88","1","swim","","","","",""
"dual-task","null","null","null","","swim","swim","490.10000002384186","","G","null","77","77","1","swim-dual-task","","G","uppercase","414000","0","3","f1074ff70b9eb001543fd760678cb85a2488571415e10ff4284378db224974af","414019.1999999881","490.10000002384186","77","1","swim","","","","",""
"dual-task","null","null","null","","swim","swim","869","","T","null","77","77","1","swim-dual-task","","T","uppercase","424000","0","3","f1074ff70b9eb001543fd760678cb85a2488571415e10ff4284378db224974af","424007.59999996424","869","77","1","swim","","","","",""
"dual-task","null","null","null","","swim","swim","561.4000000357628","","r","null","88","88","1","swim-dual-task","","r","lowercase","434000","0","3","f1074ff70b9eb001543fd760678cb85a2488571415e10ff4284378db224974af","434019","561.4000000357628","88","1","swim","","","","",""
"dual-task","null","null","null","","swim","swim","1385.8999999761581","","R","null","77","77","1","swim-dual-task","","R","uppercase","446000","0","3","f1074ff70b9eb001543fd760678cb85a2488571415e10ff4284378db224974af","446019.39999997616","1385.8999999761581","77","1","swim","","","","",""
"dual-task","null","null","null","","swim","swim","529.4000000357628","","E","null","77","77","1","swim-dual-task","","E","uppercase","456000","0","3","f1074ff70b9eb001543fd760678cb85a2488571415e10ff4284378db224974af","456019.1999999881","529.4000000357628","77","1","swim","","","","",""
"dual-task","null","null","null","","swim","swim","585.6999999880791","","d","null","88","88","1","swim-dual-task","","d","lowercase","466000","0","3","f1074ff70b9eb001543fd760678cb85a2488571415e10ff4284378db224974af","466019.5","585.6999999880791","88","1","swim","","","","",""
"dual-task","null","null","null","","swim","swim","483.30000001192093","","D","null","77","77","1","swim-dual-task","","D","uppercase","478000","0","3","f1074ff70b9eb001543fd760678cb85a2488571415e10ff4284378db224974af","478019","483.30000001192093","77","1","swim","","","","",""
"dual-task","null","null","null","","swim","swim","531.5","","d","null","88","88","1","swim-dual-task","","d","lowercase","488000","0","3","f1074ff70b9eb001543fd760678cb85a2488571415e10ff4284378db224974af","488009.5","531.5","88","1","swim","","","","",""
"dual-task","null","null","null","","swim","swim","474.10000002384186","","T","null","77","77","1","swim-dual-task","","T","uppercase","498000","0","3","f1074ff70b9eb001543fd760678cb85a2488571415e10ff4284378db224974af","498019.1999999881","474.10000002384186","77","1","swim","","","","",""
"dual-task","null","null","null","","swim","swim","857.3000000119209","","q","null","88","88","1","swim-dual-task","","q","lowercase","512000","0","3","f1074ff70b9eb001543fd760678cb85a2488571415e10ff4284378db224974af","512019.5","857.3000000119209","88","1","swim","","","","",""
"dual-task","null","null","null","","swim","swim","844.0999999642372","","n","null","88","88","1","swim-dual-task","","n","lowercase","518000","0","3","f1074ff70b9eb001543fd760678cb85a2488571415e10ff4284378db224974af","518009","844.0999999642372","88","1","swim","","","","",""
"dual-task","null","null","null","","swim","swim","515.8000000119209","","d","null","88","88","1","swim-dual-task","","d","lowercase","524000","0","3","f1074ff70b9eb001543fd760678cb85a2488571415e10ff4284378db224974af","524009.39999997616","515.8000000119209","88","1","swim","","","","",""
"dual-task","null","null","null","","swim","swim","457.10000002384186","","E","null","77","77","1","swim-dual-task","","E","uppercase","536000","0","3","f1074ff70b9eb001543fd760678cb85a2488571415e10ff4284378db224974af","536019.0999999642","457.10000002384186","77","1","swim","","","","",""
"dual-task","null","null","null","","swim","swim","627.1999999880791","","N","null","77","77","1","swim-dual-task","","N","uppercase","550000","0","3","f1074ff70b9eb001543fd760678cb85a2488571415e10ff4284378db224974af","550019.1999999881","627.1999999880791","77","1","swim","","","","",""
"dual-task","null","null","null","","swim","swim","490.60000002384186","","A","null","88","77","0","swim-dual-task","","A","uppercase","556000","0","3","f1074ff70b9eb001543fd760678cb85a2488571415e10ff4284378db224974af","556009.5","490.60000002384186","88","0","swim","","","","",""
"dual-task","null","null","null","","swim","swim","483.69999998807907","","a","null","88","88","1","swim-dual-task","","a","lowercase","562000","0","3","f1074ff70b9eb001543fd760678cb85a2488571415e10ff4284378db224974af","562009.3999999762","483.69999998807907","88","1","swim","","","","",""
"dual-task","null","null","null","","swim","swim","464.9000000357628","","R","null","77","77","1","swim-dual-task","","R","uppercase","568000","0","3","f1074ff70b9eb001543fd760678cb85a2488571415e10ff4284378db224974af","568019.0999999642","464.9000000357628","77","1","swim","","","","",""
"dual-task","null","null","null","","swim","swim","563.6999999880791","","T","null","77","77","1","swim-dual-task","","T","uppercase","580000","0","3","f1074ff70b9eb001543fd760678cb85a2488571415e10ff4284378db224974af","580009.3999999762","563.6999999880791","77","1","swim","","","","",""
"dual-task","null","null","null","","swim","swim","400.69999998807907","","A","null","77","77","1","swim-dual-task","","A","uppercase","590000","0","3","f1074ff70b9eb001543fd760678cb85a2488571415e10ff4284378db224974af","590019.3999999762","400.69999998807907","77","1","swim","","","","",""
"dual-task","null","null","null","","swim","swim","413.60000002384186","","A","null","77","77","1","swim-dual-task","","A","uppercase","604000","0","3","f1074ff70b9eb001543fd760678cb85a2488571415e10ff4284378db224974af","604008.8000000119","413.60000002384186","77","1","swim","","","","",""
"dual-task","null","null","null","","swim","swim","547.8999999761581","","F","null","77","77","1","swim-dual-task","","F","uppercase","614000","0","3","f1074ff70b9eb001543fd760678cb85a2488571415e10ff4284378db224974af","614009.3999999762","547.8999999761581","77","1","swim","","","","",""
"dual-task","null","null","null","","swim","swim","555.1000000238419","","e","null","88","88","1","swim-dual-task","","e","lowercase","624000","0","3","f1074ff70b9eb001543fd760678cb85a2488571415e10ff4284378db224974af","624009.0999999642","555.1000000238419","88","1","swim","","","","",""
"dual-task","null","null","null","","swim","swim","514","","h","null","88","88","1","swim-dual-task","","h","lowercase","632000","0","3","f1074ff70b9eb001543fd760678cb85a2488571415e10ff4284378db224974af","632019.0999999642","514","88","1","swim","","","","",""
"dual-task","null","null","null","","swim","swim","515","","a","null","88","88","1","swim-dual-task","","a","lowercase","642000","0","3","f1074ff70b9eb001543fd760678cb85a2488571415e10ff4284378db224974af","642009.0999999642","515","88","1","swim","","","","",""
"dual-task","null","null","null","","swim","swim","547.8999999761581","","r","null","88","88","1","swim-dual-task","","r","lowercase","648000","0","3","f1074ff70b9eb001543fd760678cb85a2488571415e10ff4284378db224974af","648008.8999999762","547.8999999761581","88","1","swim","","","","",""
"dual-task","null","null","null","","swim","swim","563.3000000119209","","N","null","77","77","1","swim-dual-task","","N","uppercase","660000","0","3","f1074ff70b9eb001543fd760678cb85a2488571415e10ff4284378db224974af","660019","563.3000000119209","77","1","swim","","","","",""
"dual-task","null","null","null","","swim","swim","579","","T","null","77","77","1","swim-dual-task","","T","uppercase","670000","0","3","f1074ff70b9eb001543fd760678cb85a2488571415e10ff4284378db224974af","670008.8999999762","579","77","1","swim","","","","",""
"dual-task","null","null","null","","swim","swim","589.1999999880791","","R","null","77","77","1","swim-dual-task","","R","uppercase","680000","0","3","f1074ff70b9eb001543fd760678cb85a2488571415e10ff4284378db224974af","680017.1999999881","589.1999999880791","77","1","swim","","","","",""
"dual-task","null","null","null","","swim","swim","564.8000000119209","","f","null","77","88","0","swim-dual-task","","f","lowercase","692000","0","3","f1074ff70b9eb001543fd760678cb85a2488571415e10ff4284378db224974af","692008.8999999762","564.8000000119209","77","0","swim","","","","",""
"dual-task","null","null","null","","swim","swim","660.3999999761581","","D","null","77","77","1","swim-dual-task","","D","uppercase","702000","0","3","f1074ff70b9eb001543fd760678cb85a2488571415e10ff4284378db224974af","702009.0999999642","660.3999999761581","77","1","swim","","","","",""
"dual-task","null","null","null","","swim","swim","465.19999998807907","","b","null","88","88","1","swim-dual-task","","b","lowercase","710000","0","3","f1074ff70b9eb001543fd760678cb85a2488571415e10ff4284378db224974af","710018.8000000119","465.19999998807907","88","1","swim","","","","",""
"dual-task","null","null","null","","swim","swim","491.69999998807907","","F","null","77","77","1","swim-dual-task","","F","uppercase","718000","0","3","f1074ff70b9eb001543fd760678cb85a2488571415e10ff4284378db224974af","718009.3000000119","491.69999998807907","77","1","swim","","","","",""
"dual-task","null","null","null","","swim","swim","507.9000000357628","","B","null","77","77","1","swim-dual-task","","B","uppercase","730000","0","3","f1074ff70b9eb001543fd760678cb85a2488571415e10ff4284378db224974af","730009","507.9000000357628","77","1","swim","","","","",""
"dual-task","null","null","null","","swim","swim","692.1000000238419","","t","null","88","88","1","swim-dual-task","","t","lowercase","742000","0","3","f1074ff70b9eb001543fd760678cb85a2488571415e10ff4284378db224974af","742008.8999999762","692.1000000238419","88","1","swim","","","","",""
"dual-task","null","null","null","","swim","swim","503.60000002384186","","g","null","88","88","1","swim-dual-task","","g","lowercase","748000","0","3","f1074ff70b9eb001543fd760678cb85a2488571415e10ff4284378db224974af","748019.1999999881","503.60000002384186","88","1","swim","","","","",""
"dual-task","null","null","null","","swim","swim","580","","G","null","77","77","1","swim-dual-task","","G","uppercase","762000","0","3","f1074ff70b9eb001543fd760678cb85a2488571415e10ff4284378db224974af","762009","580","77","1","swim","","","","",""
"dual-task","null","null","null","","swim","swim","NA","","n","null","NA","88","0","swim-dual-task","","n","lowercase","772000","1","3","f1074ff70b9eb001543fd760678cb85a2488571415e10ff4284378db224974af","772008.8999999762","NA","NA","0","swim","","","","",""
"dual-task","null","null","null","","swim","swim","NA","","h","null","NA","88","0","swim-dual-task","","h","lowercase","784000","1","3","f1074ff70b9eb001543fd760678cb85a2488571415e10ff4284378db224974af","784008.8000000119","NA","NA","0","swim","","","","",""
"dual-task","null","null","null","","swim","swim","576.5","","H","null","77","77","1","swim-dual-task","","H","uppercase","792000","0","3","f1074ff70b9eb001543fd760678cb85a2488571415e10ff4284378db224974af","792019","576.5","77","1","swim","","","","",""
"audio-keyboard-response","29","1019966","0.0-7.0-0.0-1.0","f1074ff70b9eb001543fd760678cb85a2488571415e10ff4284378db224974af","swim","swim","null","","audio/story_swim_scrambled.mp3","","null","","","","","","","","","","","","","","","","","","","",""
"html-button-response","30","1023734","0.0-7.0-0.0-2.0","f1074ff70b9eb001543fd760678cb85a2488571415e10ff4284378db224974af","swim","swim","3767","","<p>This concludes the story. Thank you for listening.</p><p>You will now answer some questions about the content of the story.</p>","0","","","","","","","","","","","","","","","","","","","","",""
"survey-multi-choice","31","1026480","0.0-7.0-0.0-3.0-0.0","f1074ff70b9eb001543fd760678cb85a2488571415e10ff4284378db224974af","swim","swim","2742","","<b>Where is the home of naval aviation?</b>","","","","1","swim-comprehension","","","","","","","","","","","","","{""Q0"":""Pensacola""}","","","",""
"survey-multi-choice","32","1033174","0.0-7.0-0.0-3.0-0.1","f1074ff70b9eb001543fd760678cb85a2488571415e10ff4284378db224974af","swim","swim","6428","","<b>How many times did the astronaut candidates have to complete the final exercise to pass?</b>","","","","1","swim-comprehension","","","","","","","","","","","","","{""Q0"":""Two""}","","","",""
"survey-multi-choice","33","1040640","0.0-7.0-0.0-3.0-0.2","f1074ff70b9eb001543fd760678cb85a2488571415e10ff4284378db224974af","swim","swim","7202","","<b>What gave the narrator his greatest feeling of accomplishment?</b>","","","","0","swim-comprehension","","","","","","","","","","","","","{""Q0"":""Completing his PhD at MIT""}","","","",""
"survey-multi-choice","34","1044458","0.0-7.0-0.0-3.0-0.3","f1074ff70b9eb001543fd760678cb85a2488571415e10ff4284378db224974af","swim","swim","3559","","<b>How many astronaut candidates reported for duty at the Johnson Space Center?</b>","","","","1","swim-comprehension","","","","","","","","","","","","","{""Q0"":""Forty-four""}","","","",""
"survey-multi-choice","35","1053844","0.0-7.0-0.0-3.0-0.4","f1074ff70b9eb001543fd760678cb85a2488571415e10ff4284378db224974af","swim","swim","9128","","<b>What were the astronaut candidates trained to do at the naval air station?</b>","","","","1","swim-comprehension","","","","","","","","","","","","","{""Q0"":""Eject out of aircraft and survive in water long enough to be rescued""}","","","",""
"survey-multi-choice","36","1058580","0.0-7.0-0.0-3.0-0.5","f1074ff70b9eb001543fd760678cb85a2488571415e10ff4284378db224974af","swim","swim","4481","","<b>What is the narrator afraid of, aside from the water?</b>","","","","1","swim-comprehension","","","","","","","","","","","","","{""Q0"":""Heights""}","","","",""
"survey-multi-choice","37","1067336","0.0-7.0-0.0-3.0-0.6","f1074ff70b9eb001543fd760678cb85a2488571415e10ff4284378db224974af","swim","swim","8501","","<b>What was the final step of the first swim test in the pool?</b>","","","","1","swim-comprehension","","","","","","","","","","","","","{""Q0"":""Tread water with hands above the water""}","","","",""
"survey-multi-choice","38","1073686","0.0-7.0-0.0-3.0-0.7","f1074ff70b9eb001543fd760678cb85a2488571415e10ff4284378db224974af","swim","swim","6094","","<b>How did the narrator train for his swim test?</b>","","","","1","swim-comprehension","","","","","","","","","","","","","{""Q0"":""Took his kids to the pool every day""}","","","",""
"survey-multi-choice","39","1084944","0.0-7.0-0.0-3.0-0.8","f1074ff70b9eb001543fd760678cb85a2488571415e10ff4284378db224974af","swim","swim","11002","","<b>How many astronaut candidates passed the first swim test?</b>","","","","0","swim-comprehension","","","","","","","","","","","","","{""Q0"":""All but one""}","","","",""
"survey-multi-choice","40","1097886","0.0-7.0-0.0-3.0-0.9","f1074ff70b9eb001543fd760678cb85a2488571415e10ff4284378db224974af","swim","swim","12686","","<b>How often does the narrator swim, now that he is a good swimmer?</b>","","","","0","swim-comprehension","","","","","","","","","","","","","{""Q0"":""Every day at the local pool""}","","","",""
"html-button-response","41","1099868","0.0-7.0-0.0-4.0","f1074ff70b9eb001543fd760678cb85a2488571415e10ff4284378db224974af","swim","swim","1730","","<p>Thank you for your responses.</p><p>You will now answer some questions about your impressions of the story.</p>","0","","","","","","","","","","","","","","","","","","","","",""
"html-button-response","42","1105608","0.0-7.0-0.0-5.0-0.0","f1074ff70b9eb001543fd760678cb85a2488571415e10ff4284378db224974af","swim","swim","5740","","EE1","4","","","","swim-engagement","","","","","","","","","","","","","","5","emo-engage","",""
"html-button-response","43","1107700","0.0-7.0-0.0-5.0-0.1","f1074ff70b9eb001543fd760678cb85a2488571415e10ff4284378db224974af","swim","swim","1838","","EE5","5","","","","swim-engagement","","","","","","","","","","","","","","6","emo-engage","",""
"html-button-response","44","1111140","0.0-7.0-0.0-5.0-0.2","f1074ff70b9eb001543fd760678cb85a2488571415e10ff4284378db224974af","swim","swim","3189","","MS2","6","","","","swim-engagement","","","","","","","","","","","","","","7","mental-sim","",""
"html-button-response","45","1112466","0.0-7.0-0.0-5.0-0.3","f1074ff70b9eb001543fd760678cb85a2488571415e10ff4284378db224974af","swim","swim","1073","","E6","6","","","","swim-engagement","","","","","","","","","","","","","","7","enjoyment","",""
"html-button-response","46","1113964","0.0-7.0-0.0-5.0-0.4","f1074ff70b9eb001543fd760678cb85a2488571415e10ff4284378db224974af","swim","swim","1247","","E1","6","","","","swim-engagement","","","","","","","","","","","","","","7","enjoyment","",""
"html-button-response","47","1117234","0.0-7.0-0.0-5.0-0.5","f1074ff70b9eb001543fd760678cb85a2488571415e10ff4284378db224974af","swim","swim","3018","","A1","5","","","","swim-engagement","","","","","","","","","","","","","","6","absorption","",""
"html-button-response","48","1119130","0.0-7.0-0.0-5.0-0.6","f1074ff70b9eb001543fd760678cb85a2488571415e10ff4284378db224974af","swim","swim","1645","","A2","6","","","","swim-engagement","","","","","","","","","","","","","","7","absorption","",""
"html-button-response","49","1122226","0.0-7.0-0.0-5.0-0.7","f1074ff70b9eb001543fd760678cb85a2488571415e10ff4284378db224974af","swim","swim","2844","","E10","1","","","","swim-engagement","","","","","","","","","","","","","","2","enjoyment","",""
"html-button-response","50","1124108","0.0-7.0-0.0-5.0-0.8","f1074ff70b9eb001543fd760678cb85a2488571415e10ff4284378db224974af","swim","swim","1630","","A3","5","","","","swim-engagement","","","","","","","","","","","","","","6","absorption","",""
"html-button-response","51","1125620","0.0-7.0-0.0-5.0-0.9","f1074ff70b9eb001543fd760678cb85a2488571415e10ff4284378db224974af","swim","swim","1260","","E8","5","","","","swim-engagement","","","","","","","","","","","","","","6","enjoyment","",""
"html-button-response","52","1130302","0.0-7.0-0.0-5.0-0.10","f1074ff70b9eb001543fd760678cb85a2488571415e10ff4284378db224974af","swim","swim","4431","","A4","6","","","","swim-engagement","","","","","","","","","","","","","","7","absorption","",""
"html-button-response","53","1132702","0.0-7.0-0.0-5.0-0.11","f1074ff70b9eb001543fd760678cb85a2488571415e10ff4284378db224974af","swim","swim","2148","","EE4","4","","","","swim-engagement","","","","","","","","","","","","","","5","emo-engage","",""
"html-button-response","54","1134870","0.0-7.0-0.0-5.0-0.12","f1074ff70b9eb001543fd760678cb85a2488571415e10ff4284378db224974af","swim","swim","1916","","MS1","5","","","","swim-engagement","","","","","","","","","","","","","","6","mental-sim","",""
"html-button-response","55","1137760","0.0-7.0-0.0-5.0-0.13","f1074ff70b9eb001543fd760678cb85a2488571415e10ff4284378db224974af","swim","swim","2639","","EE3","4","","","","swim-engagement","","","","","","","","","","","","","","5","emo-engage","",""
"html-button-response","56","1140398","0.0-7.0-0.0-5.0-0.14","f1074ff70b9eb001543fd760678cb85a2488571415e10ff4284378db224974af","swim","swim","2386","","A5","5","","","","swim-engagement","","","","","","","","","","","","","","6","absorption","",""
"html-button-response","57","1142552","0.0-7.0-0.0-5.0-0.15","f1074ff70b9eb001543fd760678cb85a2488571415e10ff4284378db224974af","swim","swim","1903","","MS3","5","","","","swim-engagement","","","","","","","","","","","","","","6","mental-sim","",""
"html-button-response","58","1145316","0.0-7.0-0.0-5.0-0.16","f1074ff70b9eb001543fd760678cb85a2488571415e10ff4284378db224974af","swim","swim","2513","","EE2","6","","","","swim-engagement","","","","","","","","","","","","","","7","emo-engage","",""
"html-button-response","59","1147032","0.0-7.0-0.0-5.0-0.17","f1074ff70b9eb001543fd760678cb85a2488571415e10ff4284378db224974af","swim","swim","1464","","E7","6","","","","swim-engagement","","","","","","","","","","","","","","7","enjoyment","",""
"html-keyboard-response","60","1155920","0.0-7.0-1.0","f1074ff70b9eb001543fd760678cb85a2488571415e10ff4284378db224974af","swim","swim","8634","","<p>Thank you for your responses. You will now listen to the second story.</p><p>Remember, as you listen to the story you will see letters appear on the screen.</br>As quickly as possible, press <b>&lt;x&gt;</b> if the letter is lowercase and <b>&lt;m&gt;</b> if the letter is uppercase.</p><p>Press <b>&lt;x&gt;</b> or <b>&lt;m&gt;</b> to begin listening!</p>","","88","","","","","","","","","","","","","","","","","","","",""
"html-keyboard-response","61","1156421","0.0-7.0-2.0-0.0","f1074ff70b9eb001543fd760678cb85a2488571415e10ff4284378db224974af","swim","swim","null","","<div style=""font-size:60px;"" tabindex=""0"">+</div>","","null","","","","","","","","","","","","","","","","","","","",""
"dual-task","null","null","null","","swim","swim","549.8999999761581","","q","null","88","88","1","arctic-dual-task","","q","lowercase","14000","0","3","f1074ff70b9eb001543fd760678cb85a2488571415e10ff4284378db224974af","14006.5","549.8999999761581","88","1","arctic","","","","",""
"dual-task","null","null","null","","swim","swim","664.6999999880791","","n","null","88","88","1","arctic-dual-task","","n","lowercase","28000","0","3","f1074ff70b9eb001543fd760678cb85a2488571415e10ff4284378db224974af","28005.599999964237","664.6999999880791","88","1","arctic","","","","",""
"dual-task","null","null","null","","swim","swim","483.9000000357628","","D","null","88","77","0","arctic-dual-task","","D","uppercase","38000","0","3","f1074ff70b9eb001543fd760678cb85a2488571415e10ff4284378db224974af","38016.09999996424","483.9000000357628","88","0","arctic","","","","",""
"dual-task","null","null","null","","swim","swim","470.19999998807907","","b","null","88","88","1","arctic-dual-task","","b","lowercase","50000","0","3","f1074ff70b9eb001543fd760678cb85a2488571415e10ff4284378db224974af","50005.69999998808","470.19999998807907","88","1","arctic","","","","",""
"dual-task","null","null","null","","swim","swim","507.69999998807907","","t","null","88","88","1","arctic-dual-task","","t","lowercase","58000","0","3","f1074ff70b9eb001543fd760678cb85a2488571415e10ff4284378db224974af","58015.89999997616","507.69999998807907","88","1","arctic","","","","",""
"dual-task","null","null","null","","swim","swim","590.6999999880791","","H","null","77","77","1","arctic-dual-task","","H","uppercase","70000","0","3","f1074ff70b9eb001543fd760678cb85a2488571415e10ff4284378db224974af","70006","590.6999999880791","77","1","arctic","","","","",""
"dual-task","null","null","null","","swim","swim","510.69999998807907","","R","null","88","77","0","arctic-dual-task","","R","uppercase","84000","0","3","f1074ff70b9eb001543fd760678cb85a2488571415e10ff4284378db224974af","84005.80000001192","510.69999998807907","88","0","arctic","","","","",""
"dual-task","null","null","null","","swim","swim","550.7000000476837","","Q","null","77","77","1","arctic-dual-task","","Q","uppercase","98000","0","3","f1074ff70b9eb001543fd760678cb85a2488571415e10ff4284378db224974af","98006.09999996424","550.7000000476837","77","1","arctic","","","","",""
"dual-task","null","null","null","","swim","swim","763.3000000119209","","f","null","88","88","1","arctic-dual-task","","f","lowercase","112000","0","3","f1074ff70b9eb001543fd760678cb85a2488571415e10ff4284378db224974af","112016","763.3000000119209","88","1","arctic","","","","",""
"dual-task","null","null","null","","swim","swim","613.8000000119209","","r","null","88","88","1","arctic-dual-task","","r","lowercase","120000","0","3","f1074ff70b9eb001543fd760678cb85a2488571415e10ff4284378db224974af","120005.80000001192","613.8000000119209","88","1","arctic","","","","",""
"dual-task","null","null","null","","swim","swim","728.1000000238419","","N","null","77","77","1","arctic-dual-task","","N","uppercase","132000","0","3","f1074ff70b9eb001543fd760678cb85a2488571415e10ff4284378db224974af","132005.69999998808","728.1000000238419","77","1","arctic","","","","",""
"dual-task","null","null","null","","swim","swim","677.8000000119209","","T","null","77","77","1","arctic-dual-task","","T","uppercase","146000","0","3","f1074ff70b9eb001543fd760678cb85a2488571415e10ff4284378db224974af","146016.09999996424","677.8000000119209","77","1","arctic","","","","",""
"dual-task","null","null","null","","swim","swim","531.5","","t","null","88","88","1","arctic-dual-task","","t","lowercase","154000","0","3","f1074ff70b9eb001543fd760678cb85a2488571415e10ff4284378db224974af","154016","531.5","88","1","arctic","","","","",""
"dual-task","null","null","null","","swim","swim","534.8999999761581","","t","null","88","88","1","arctic-dual-task","","t","lowercase","164000","0","3","f1074ff70b9eb001543fd760678cb85a2488571415e10ff4284378db224974af","164005.69999998808","534.8999999761581","88","1","arctic","","","","",""
"dual-task","null","null","null","","swim","swim","526.7999999523163","","g","null","88","88","1","arctic-dual-task","","g","lowercase","178000","0","3","f1074ff70b9eb001543fd760678cb85a2488571415e10ff4284378db224974af","178005.69999998808","526.7999999523163","88","1","arctic","","","","",""
"dual-task","null","null","null","","swim","swim","549","","f","null","88","88","1","arctic-dual-task","","f","lowercase","186000","0","3","f1074ff70b9eb001543fd760678cb85a2488571415e10ff4284378db224974af","186015.80000001192","549","88","1","arctic","","","","",""
"dual-task","null","null","null","","swim","swim","534.1999999880791","","G","null","77","77","1","arctic-dual-task","","G","uppercase","200000","0","3","f1074ff70b9eb001543fd760678cb85a2488571415e10ff4284378db224974af","200015.5","534.1999999880791","77","1","arctic","","","","",""
"dual-task","null","null","null","","swim","swim","477.0999999642372","","g","null","88","88","1","arctic-dual-task","","g","lowercase","212000","0","3","f1074ff70b9eb001543fd760678cb85a2488571415e10ff4284378db224974af","212015.5","477.0999999642372","88","1","arctic","","","","",""
"dual-task","null","null","null","","swim","swim","526.1000000238419","","a","null","88","88","1","arctic-dual-task","","a","lowercase","220000","0","3","f1074ff70b9eb001543fd760678cb85a2488571415e10ff4284378db224974af","220005.59999996424","526.1000000238419","88","1","arctic","","","","",""
"dual-task","null","null","null","","swim","swim","502.7999999523163","","d","null","88","88","1","arctic-dual-task","","d","lowercase","234000","0","3","f1074ff70b9eb001543fd760678cb85a2488571415e10ff4284378db224974af","234005.69999998808","502.7999999523163","88","1","arctic","","","","",""
"dual-task","null","null","null","","swim","swim","556.5","","D","null","77","77","1","arctic-dual-task","","D","uppercase","246000","0","3","f1074ff70b9eb001543fd760678cb85a2488571415e10ff4284378db224974af","246015.89999997616","556.5","77","1","arctic","","","","",""
"dual-task","null","null","null","","swim","swim","588.6999999880791","","d","null","88","88","1","arctic-dual-task","","d","lowercase","256000","0","3","f1074ff70b9eb001543fd760678cb85a2488571415e10ff4284378db224974af","256015.69999998808","588.6999999880791","88","1","arctic","","","","",""
"dual-task","null","null","null","","swim","swim","510.10000002384186","","d","null","88","88","1","arctic-dual-task","","d","lowercase","264000","0","3","f1074ff70b9eb001543fd760678cb85a2488571415e10ff4284378db224974af","264005.59999996424","510.10000002384186","88","1","arctic","","","","",""
"dual-task","null","null","null","","swim","swim","494.5","","b","null","88","88","1","arctic-dual-task","","b","lowercase","274000","0","3","f1074ff70b9eb001543fd760678cb85a2488571415e10ff4284378db224974af","274006","494.5","88","1","arctic","","","","",""
"dual-task","null","null","null","","swim","swim","447.30000001192093","","g","null","88","88","1","arctic-dual-task","","g","lowercase","286000","0","3","f1074ff70b9eb001543fd760678cb85a2488571415e10ff4284378db224974af","286005.5","447.30000001192093","88","1","arctic","","","","",""
"dual-task","null","null","null","","swim","swim","700.8000000119209","","F","null","77","77","1","arctic-dual-task","","F","uppercase","296000","0","3","f1074ff70b9eb001543fd760678cb85a2488571415e10ff4284378db224974af","296015.59999996424","700.8000000119209","77","1","arctic","","","","",""
"dual-task","null","null","null","","swim","swim","557.9000000357628","","f","null","88","88","1","arctic-dual-task","","f","lowercase","306000","0","3","f1074ff70b9eb001543fd760678cb85a2488571415e10ff4284378db224974af","306005.5","557.9000000357628","88","1","arctic","","","","",""
"dual-task","null","null","null","","swim","swim","501.9000000357628","","e","null","88","88","1","arctic-dual-task","","e","lowercase","314000","0","3","f1074ff70b9eb001543fd760678cb85a2488571415e10ff4284378db224974af","314015.59999996424","501.9000000357628","88","1","arctic","","","","",""
"dual-task","null","null","null","","swim","swim","654.5999999642372","","A","null","77","77","1","arctic-dual-task","","A","uppercase","326000","0","3","f1074ff70b9eb001543fd760678cb85a2488571415e10ff4284378db224974af","326005.89999997616","654.5999999642372","77","1","arctic","","","","",""
"dual-task","null","null","null","","swim","swim","651.3999999761581","","A","null","77","77","1","arctic-dual-task","","A","uppercase","334000","0","3","f1074ff70b9eb001543fd760678cb85a2488571415e10ff4284378db224974af","334015.8000000119","651.3999999761581","77","1","arctic","","","","",""
"dual-task","null","null","null","","swim","swim","582.4000000357628","","Q","null","77","77","1","arctic-dual-task","","Q","uppercase","346000","0","3","f1074ff70b9eb001543fd760678cb85a2488571415e10ff4284378db224974af","346005.8000000119","582.4000000357628","77","1","arctic","","","","",""
"dual-task","null","null","null","","swim","swim","475.7999999523163","","N","null","88","77","0","arctic-dual-task","","N","uppercase","356000","0","3","f1074ff70b9eb001543fd760678cb85a2488571415e10ff4284378db224974af","356015.8000000119","475.7999999523163","88","0","arctic","","","","",""
"dual-task","null","null","null","","swim","swim","510.80000001192093","","H","null","77","77","1","arctic-dual-task","","H","uppercase","366000","0","3","f1074ff70b9eb001543fd760678cb85a2488571415e10ff4284378db224974af","366005.39999997616","510.80000001192093","77","1","arctic","","","","",""
"dual-task","null","null","null","","swim","swim","477.80000001192093","","Q","null","77","77","1","arctic-dual-task","","Q","uppercase","376000","0","3","f1074ff70b9eb001543fd760678cb85a2488571415e10ff4284378db224974af","376005.39999997616","477.80000001192093","77","1","arctic","","","","",""
"dual-task","null","null","null","","swim","swim","583","","H","null","77","77","1","arctic-dual-task","","H","uppercase","386000","0","3","f1074ff70b9eb001543fd760678cb85a2488571415e10ff4284378db224974af","386005.39999997616","583","77","1","arctic","","","","",""
"dual-task","null","null","null","","swim","swim","679","","B","null","77","77","1","arctic-dual-task","","B","uppercase","398000","0","3","f1074ff70b9eb001543fd760678cb85a2488571415e10ff4284378db224974af","398005.39999997616","679","77","1","arctic","","","","",""
"dual-task","null","null","null","","swim","swim","604.2999999523163","","E","null","77","77","1","arctic-dual-task","","E","uppercase","404000","0","3","f1074ff70b9eb001543fd760678cb85a2488571415e10ff4284378db224974af","404015.3000000119","604.2999999523163","77","1","arctic","","","","",""
"dual-task","null","null","null","","swim","swim","532.6999999880791","","r","null","88","88","1","arctic-dual-task","","r","lowercase","418000","0","3","f1074ff70b9eb001543fd760678cb85a2488571415e10ff4284378db224974af","418015.6999999881","532.6999999880791","88","1","arctic","","","","",""
"dual-task","null","null","null","","swim","swim","573.5","","h","null","88","88","1","arctic-dual-task","","h","lowercase","424000","0","3","f1074ff70b9eb001543fd760678cb85a2488571415e10ff4284378db224974af","424006","573.5","88","1","arctic","","","","",""
"dual-task","null","null","null","","swim","swim","512.0999999642372","","n","null","88","88","1","arctic-dual-task","","n","lowercase","436000","0","3","f1074ff70b9eb001543fd760678cb85a2488571415e10ff4284378db224974af","436005.59999996424","512.0999999642372","88","1","arctic","","","","",""
"dual-task","null","null","null","","swim","swim","524.8000000119209","","N","null","77","77","1","arctic-dual-task","","N","uppercase","446000","0","3","f1074ff70b9eb001543fd760678cb85a2488571415e10ff4284378db224974af","446015.39999997616","524.8000000119209","77","1","arctic","","","","",""
"dual-task","null","null","null","","swim","swim","630.9000000357628","","b","null","88","88","1","arctic-dual-task","","b","lowercase","452000","0","3","f1074ff70b9eb001543fd760678cb85a2488571415e10ff4284378db224974af","452005.59999996424","630.9000000357628","88","1","arctic","","","","",""
"dual-task","null","null","null","","swim","swim","526.9000000357628","","D","null","77","77","1","arctic-dual-task","","D","uppercase","460000","0","3","f1074ff70b9eb001543fd760678cb85a2488571415e10ff4284378db224974af","460005.59999996424","526.9000000357628","77","1","arctic","","","","",""
"dual-task","null","null","null","","swim","swim","491.69999998807907","","G","null","77","77","1","arctic-dual-task","","G","uppercase","468000","0","3","f1074ff70b9eb001543fd760678cb85a2488571415e10ff4284378db224974af","468015.6999999881","491.69999998807907","77","1","arctic","","","","",""
"dual-task","null","null","null","","swim","swim","486.80000001192093","","F","null","77","77","1","arctic-dual-task","","F","uppercase","474000","0","3","f1074ff70b9eb001543fd760678cb85a2488571415e10ff4284378db224974af","474005.39999997616","486.80000001192093","77","1","arctic","","","","",""
"dual-task","null","null","null","","swim","swim","494.80000001192093","","t","null","88","88","1","arctic-dual-task","","t","lowercase","484000","0","3","f1074ff70b9eb001543fd760678cb85a2488571415e10ff4284378db224974af","484005.3000000119","494.80000001192093","88","1","arctic","","","","",""
"dual-task","null","null","null","","swim","swim","584","","r","null","88","88","1","arctic-dual-task","","r","lowercase","498000","0","3","f1074ff70b9eb001543fd760678cb85a2488571415e10ff4284378db224974af","498005.39999997616","584","88","1","arctic","","","","",""
"dual-task","null","null","null","","swim","swim","595.9000000357628","","f","null","88","88","1","arctic-dual-task","","f","lowercase","504000","0","3","f1074ff70b9eb001543fd760678cb85a2488571415e10ff4284378db224974af","504015.39999997616","595.9000000357628","88","1","arctic","","","","",""
"dual-task","null","null","null","","swim","swim","518.6999999880791","","G","null","77","77","1","arctic-dual-task","","G","uppercase","512000","0","3","f1074ff70b9eb001543fd760678cb85a2488571415e10ff4284378db224974af","512005.59999996424","518.6999999880791","77","1","arctic","","","","",""
"dual-task","null","null","null","","swim","swim","533.1999999880791","","e","null","88","88","1","arctic-dual-task","","e","lowercase","518000","0","3","f1074ff70b9eb001543fd760678cb85a2488571415e10ff4284378db224974af","518015.1999999881","533.1999999880791","88","1","arctic","","","","",""
"dual-task","null","null","null","","swim","swim","524.8999999761581","","r","null","88","88","1","arctic-dual-task","","r","lowercase","528000","0","3","f1074ff70b9eb001543fd760678cb85a2488571415e10ff4284378db224974af","528015.1999999881","524.8999999761581","88","1","arctic","","","","",""
"dual-task","null","null","null","","swim","swim","534.0999999642372","","R","null","77","77","1","arctic-dual-task","","R","uppercase","536000","0","3","f1074ff70b9eb001543fd760678cb85a2488571415e10ff4284378db224974af","536005.1999999881","534.0999999642372","77","1","arctic","","","","",""
"dual-task","null","null","null","","swim","swim","510.69999998807907","","B","null","77","77","1","arctic-dual-task","","B","uppercase","548000","0","3","f1074ff70b9eb001543fd760678cb85a2488571415e10ff4284378db224974af","548005.5999999642","510.69999998807907","77","1","arctic","","","","",""
"dual-task","null","null","null","","swim","swim","525.9000000357628","","A","null","77","77","1","arctic-dual-task","","A","uppercase","556000","0","3","f1074ff70b9eb001543fd760678cb85a2488571415e10ff4284378db224974af","556005.1999999881","525.9000000357628","77","1","arctic","","","","",""
"dual-task","null","null","null","","swim","swim","439.7000000476837","","T","null","77","77","1","arctic-dual-task","","T","uppercase","568000","0","3","f1074ff70b9eb001543fd760678cb85a2488571415e10ff4284378db224974af","568005.3000000119","439.7000000476837","77","1","arctic","","","","",""
"dual-task","null","null","null","","swim","swim","548","","N","null","77","77","1","arctic-dual-task","","N","uppercase","576000","0","3","f1074ff70b9eb001543fd760678cb85a2488571415e10ff4284378db224974af","576015.3000000119","548","77","1","arctic","","","","",""
"dual-task","null","null","null","","swim","swim","567","","q","null","88","88","1","arctic-dual-task","","q","lowercase","584000","0","3","f1074ff70b9eb001543fd760678cb85a2488571415e10ff4284378db224974af","584005.1999999881","567","88","1","arctic","","","","",""
"dual-task","null","null","null","","swim","swim","451.80000001192093","","A","null","77","77","1","arctic-dual-task","","A","uppercase","592000","0","3","f1074ff70b9eb001543fd760678cb85a2488571415e10ff4284378db224974af","592015.5","451.80000001192093","77","1","arctic","","","","",""
"dual-task","null","null","null","","swim","swim","516.5999999642372","","F","null","77","77","1","arctic-dual-task","","F","uppercase","600000","0","3","f1074ff70b9eb001543fd760678cb85a2488571415e10ff4284378db224974af","600015.5","516.5999999642372","77","1","arctic","","","","",""
"dual-task","null","null","null","","swim","swim","517.8000000119209","","E","null","77","77","1","arctic-dual-task","","E","uppercase","614000","0","3","f1074ff70b9eb001543fd760678cb85a2488571415e10ff4284378db224974af","614015.5","517.8000000119209","77","1","arctic","","","","",""
"dual-task","null","null","null","","swim","swim","573.8000000119209","","a","null","88","88","1","arctic-dual-task","","a","lowercase","622000","0","3","f1074ff70b9eb001543fd760678cb85a2488571415e10ff4284378db224974af","622005.3999999762","573.8000000119209","88","1","arctic","","","","",""
"dual-task","null","null","null","","swim","swim","644.2999999523163","","e","null","88","88","1","arctic-dual-task","","e","lowercase","628000","0","3","f1074ff70b9eb001543fd760678cb85a2488571415e10ff4284378db224974af","628015.3000000119","644.2999999523163","88","1","arctic","","","","",""
"dual-task","null","null","null","","swim","swim","534.1000000238419","","h","null","88","88","1","arctic-dual-task","","h","lowercase","636000","0","3","f1074ff70b9eb001543fd760678cb85a2488571415e10ff4284378db224974af","636005","534.1000000238419","88","1","arctic","","","","",""
"dual-task","null","null","null","","swim","swim","621","","n","null","88","88","1","arctic-dual-task","","n","lowercase","642000","0","3","f1074ff70b9eb001543fd760678cb85a2488571415e10ff4284378db224974af","642015.1999999881","621","88","1","arctic","","","","",""
"dual-task","null","null","null","","swim","swim","509.80000001192093","","B","null","77","77","1","arctic-dual-task","","B","uppercase","650000","0","3","f1074ff70b9eb001543fd760678cb85a2488571415e10ff4284378db224974af","650005.5","509.80000001192093","77","1","arctic","","","","",""
"dual-task","null","null","null","","swim","swim","536.5","","B","null","77","77","1","arctic-dual-task","","B","uppercase","662000","0","3","f1074ff70b9eb001543fd760678cb85a2488571415e10ff4284378db224974af","662004.8999999762","536.5","77","1","arctic","","","","",""
"dual-task","null","null","null","","swim","swim","846","","Q","null","77","77","1","arctic-dual-task","","Q","uppercase","668000","0","3","f1074ff70b9eb001543fd760678cb85a2488571415e10ff4284378db224974af","668005.0999999642","846","77","1","arctic","","","","",""
"dual-task","null","null","null","","swim","swim","1118.6000000238419","","g","null","88","88","1","arctic-dual-task","","g","lowercase","674000","0","3","f1074ff70b9eb001543fd760678cb85a2488571415e10ff4284378db224974af","674005.3999999762","1118.6000000238419","88","1","arctic","","","","",""
"dual-task","null","null","null","","swim","swim","485.0999999642372","","h","null","77","88","0","arctic-dual-task","","h","lowercase","682000","0","3","f1074ff70b9eb001543fd760678cb85a2488571415e10ff4284378db224974af","682015.5","485.0999999642372","77","0","arctic","","","","",""
"dual-task","null","null","null","","swim","swim","446.2999999523163","","n","null","88","88","1","arctic-dual-task","","n","lowercase","696000","0","3","f1074ff70b9eb001543fd760678cb85a2488571415e10ff4284378db224974af","696005.6999999881","446.2999999523163","88","1","arctic","","","","",""
"dual-task","null","null","null","","swim","swim","651.5","","a","null","88","88","1","arctic-dual-task","","a","lowercase","704000","0","3","f1074ff70b9eb001543fd760678cb85a2488571415e10ff4284378db224974af","704015.0999999642","651.5","88","1","arctic","","","","",""
"dual-task","null","null","null","","swim","swim","717.7999999523163","","F","null","77","77","1","arctic-dual-task","","F","uppercase","710000","0","3","f1074ff70b9eb001543fd760678cb85a2488571415e10ff4284378db224974af","710015.3999999762","717.7999999523163","77","1","arctic","","","","",""
"dual-task","null","null","null","","swim","swim","519","","G","null","77","77","1","arctic-dual-task","","G","uppercase","722000","0","3","f1074ff70b9eb001543fd760678cb85a2488571415e10ff4284378db224974af","722005","519","77","1","arctic","","","","",""
"dual-task","null","null","null","","swim","swim","998","","T","null","77","77","1","arctic-dual-task","","T","uppercase","730000","0","3","f1074ff70b9eb001543fd760678cb85a2488571415e10ff4284378db224974af","730005.3000000119","998","77","1","arctic","","","","",""
"dual-task","null","null","null","","swim","swim","495.0999999642372","","R","null","77","77","1","arctic-dual-task","","R","uppercase","740000","0","3","f1074ff70b9eb001543fd760678cb85a2488571415e10ff4284378db224974af","740005","495.0999999642372","77","1","arctic","","","","",""
"dual-task","null","null","null","","swim","swim","460.19999998807907","","D","null","77","77","1","arctic-dual-task","","D","uppercase","750000","0","3","f1074ff70b9eb001543fd760678cb85a2488571415e10ff4284378db224974af","750015","460.19999998807907","77","1","arctic","","","","",""
"dual-task","null","null","null","","swim","swim","582.9000000357628","","e","null","88","88","1","arctic-dual-task","","e","lowercase","758000","0","3","f1074ff70b9eb001543fd760678cb85a2488571415e10ff4284378db224974af","758005.1999999881","582.9000000357628","88","1","arctic","","","","",""
"dual-task","null","null","null","","swim","swim","1043.5999999642372","","b","null","88","88","1","arctic-dual-task","","b","lowercase","772000","0","3","f1074ff70b9eb001543fd760678cb85a2488571415e10ff4284378db224974af","772015.3000000119","1043.5999999642372","88","1","arctic","","","","",""
"dual-task","null","null","null","","swim","swim","451.80000001192093","","R","null","77","77","1","arctic-dual-task","","R","uppercase","782000","0","3","f1074ff70b9eb001543fd760678cb85a2488571415e10ff4284378db224974af","782015.3000000119","451.80000001192093","77","1","arctic","","","","",""
"audio-keyboard-response","62","1954478","0.0-7.0-2.0-1.0","f1074ff70b9eb001543fd760678cb85a2488571415e10ff4284378db224974af","swim","swim","null","","audio/story_arctic.mp3","","null","","","","","","","","","","","","","","","","","","","",""
"html-button-response","63","1956983","0.0-7.0-2.0-2.0","f1074ff70b9eb001543fd760678cb85a2488571415e10ff4284378db224974af","swim","swim","2504","","<p>This concludes the story. Thank you for listening.</p><p>You will now answer some questions about the content of the story.</p>","0","","","","","","","","","","","","","","","","","","","","",""
"survey-multi-choice","64","1961869","0.0-7.0-2.0-3.0-0.0","f1074ff70b9eb001543fd760678cb85a2488571415e10ff4284378db224974af","swim","swim","4884","","<b>How did the narrator&#39;s encounter with the polar bears end?</b>","","","","1","arctic-comprehension","","","","","","","","","","","","","{""Q0"":""The bears walked back to their den.""}","","","",""
"survey-multi-choice","65","1969395","0.0-7.0-2.0-3.0-0.1","f1074ff70b9eb001543fd760678cb85a2488571415e10ff4284378db224974af","swim","swim","7264","","<b>What did the narrator do for leisure while in her tent?</b>","","","","1","arctic-comprehension","","","","","","","","","","","","","{""Q0"":""Read""}","","","",""
"survey-multi-choice","66","1976992","0.0-7.0-2.0-3.0-0.2","f1074ff70b9eb001543fd760678cb85a2488571415e10ff4284378db224974af","swim","swim","7341","","<b>What were the weather conditions in the Arctic like the winter of the narrator&#39;s expedition?</b>","","","","0","arctic-comprehension","","","","","","","","","","","","","{""Q0"":""It was the coldest winter in recorded history.""}","","","",""
"survey-multi-choice","67","1980992","0.0-7.0-2.0-3.0-0.3","f1074ff70b9eb001543fd760678cb85a2488571415e10ff4284378db224974af","swim","swim","3739","","<b>Which dog on the narrator&#39;s dog team never followed instructions?</b>","","","","1","arctic-comprehension","","","","","","","","","","","","","{""Q0"":""Robert""}","","","",""
"survey-multi-choice","68","1983984","0.0-7.0-2.0-3.0-0.4","f1074ff70b9eb001543fd760678cb85a2488571415e10ff4284378db224974af","swim","swim","2730","","<b>What is the name of the narrator&#39;s neighbour?</b>","","","","1","arctic-comprehension","","","","","","","","","","","","","{""Q0"":""Dave""}","","","",""
"survey-multi-choice","69","1988888","0.0-7.0-2.0-3.0-0.5","f1074ff70b9eb001543fd760678cb85a2488571415e10ff4284378db224974af","swim","swim","4643","","<b>How did the dogs respond when they saw the bears?</b>","","","","1","arctic-comprehension","","","","","","","","","","","","","{""Q0"":""Approached them""}","","","",""
"survey-multi-choice","70","1995834","0.0-7.0-2.0-3.0-0.6","f1074ff70b9eb001543fd760678cb85a2488571415e10ff4284378db224974af","swim","swim","6689","","<b>How did the narrator&#39;s neighbour respond when she told him about her expedition?</b>","","","","1","arctic-comprehension","","","","","","","","","","","","","{""Q0"":""He said she was going to fail.""}","","","",""
"survey-multi-choice","71","2003580","0.0-7.0-2.0-3.0-0.7","f1074ff70b9eb001543fd760678cb85a2488571415e10ff4284378db224974af","swim","swim","7489","","<b>How did the narrator prepare for her expedition?</b>","","","","1","arctic-comprehension","","","","","","","","","","","","","{""Q0"":""Trained in Alaska learning how to dogsled""}","","","",""
"survey-multi-choice","72","2007010","0.0-7.0-2.0-3.0-0.8","f1074ff70b9eb001543fd760678cb85a2488571415e10ff4284378db224974af","swim","swim","3175","","<b>How many sponsorships did the narrator receive to support her expedition?</b>","","","","1","arctic-comprehension","","","","","","","","","","","","","{""Q0"":""None""}","","","",""
"survey-multi-choice","73","2012986","0.0-7.0-2.0-3.0-0.9","f1074ff70b9eb001543fd760678cb85a2488571415e10ff4284378db224974af","swim","swim","5725","","<b>What was the objective of the narrator&#39;s expedition?</b>","","","","1","arctic-comprehension","","","","","","","","","","","","","{""Q0"":""Dogsled across Arctic America""}","","","",""
"html-button-response","74","2014440","0.0-7.0-2.0-4.0","f1074ff70b9eb001543fd760678cb85a2488571415e10ff4284378db224974af","swim","swim","1202","","<p>Thank you for your responses.</p><p>You will now answer some questions about your impressions of the story.</p>","0","","","","","","","","","","","","","","","","","","","","",""
"html-button-response","75","2015988","0.0-7.0-2.0-5.0-0.0","f1074ff70b9eb001543fd760678cb85a2488571415e10ff4284378db224974af","swim","swim","1547","","EE3","6","","","","arctic-engagement","","","","","","","","","","","","","","7","emo-engage","",""
"html-button-response","76","2017026","0.0-7.0-2.0-5.0-0.1","f1074ff70b9eb001543fd760678cb85a2488571415e10ff4284378db224974af","swim","swim","786","","E8","6","","","","arctic-engagement","","","","","","","","","","","","","","7","enjoyment","",""
"html-button-response","77","2018726","0.0-7.0-2.0-5.0-0.2","f1074ff70b9eb001543fd760678cb85a2488571415e10ff4284378db224974af","swim","swim","1448","","MS3","6","","","","arctic-engagement","","","","","","","","","","","","","","7","mental-sim","",""
"html-button-response","78","2019680","0.0-7.0-2.0-5.0-0.3","f1074ff70b9eb001543fd760678cb85a2488571415e10ff4284378db224974af","swim","swim","703","","A3","6","","","","arctic-engagement","","","","","","","","","","","","","","7","absorption","",""
"html-button-response","79","2020834","0.0-7.0-2.0-5.0-0.4","f1074ff70b9eb001543fd760678cb85a2488571415e10ff4284378db224974af","swim","swim","902","","EE2","6","","","","arctic-engagement","","","","","","","","","","","","","","7","emo-engage","",""
"html-button-response","80","2022338","0.0-7.0-2.0-5.0-0.5","f1074ff70b9eb001543fd760678cb85a2488571415e10ff4284378db224974af","swim","swim","1251","","A5","6","","","","arctic-engagement","","","","","","","","","","","","","","7","absorption","",""
"html-button-response","81","2023356","0.0-7.0-2.0-5.0-0.6","f1074ff70b9eb001543fd760678cb85a2488571415e10ff4284378db224974af","swim","swim","766","","E1","6","","","","arctic-engagement","","","","","","","","","","","","","","7","enjoyment","",""
"html-button-response","82","2024390","0.0-7.0-2.0-5.0-0.7","f1074ff70b9eb001543fd760678cb85a2488571415e10ff4284378db224974af","swim","swim","781","","E6","6","","","","arctic-engagement","","","","","","","","","","","","","","7","enjoyment","",""
"html-button-response","83","2026982","0.0-7.0-2.0-5.0-0.8","f1074ff70b9eb001543fd760678cb85a2488571415e10ff4284378db224974af","swim","swim","2332","","EE4","6","","","","arctic-engagement","","","","","","","","","","","","","","7","emo-engage","",""
"html-button-response","84","2028576","0.0-7.0-2.0-5.0-0.9","f1074ff70b9eb001543fd760678cb85a2488571415e10ff4284378db224974af","swim","swim","1342","","E10","6","","","","arctic-engagement","","","","","","","","","","","","","","7","enjoyment","",""
"html-button-response","85","2030342","0.0-7.0-2.0-5.0-0.10","f1074ff70b9eb001543fd760678cb85a2488571415e10ff4284378db224974af","swim","swim","1514","","A1","6","","","","arctic-engagement","","","","","","","","","","","","","","7","absorption","",""
"html-button-response","86","2032984","0.0-7.0-2.0-5.0-0.11","f1074ff70b9eb001543fd760678cb85a2488571415e10ff4284378db224974af","swim","swim","2390","","A4","6","","","","arctic-engagement","","","","","","","","","","","","","","7","absorption","",""
"html-button-response","87","2035062","0.0-7.0-2.0-5.0-0.12","f1074ff70b9eb001543fd760678cb85a2488571415e10ff4284378db224974af","swim","swim","1825","","EE1","6","","","","arctic-engagement","","","","","","","","","","","","","","7","emo-engage","",""
"html-button-response","88","2037010","0.0-7.0-2.0-5.0-0.13","f1074ff70b9eb001543fd760678cb85a2488571415e10ff4284378db224974af","swim","swim","1696","","MS1","6","","","","arctic-engagement","","","","","","","","","","","","","","7","mental-sim","",""
"html-button-response","89","2039400","0.0-7.0-2.0-5.0-0.14","f1074ff70b9eb001543fd760678cb85a2488571415e10ff4284378db224974af","swim","swim","2137","","A2","6","","","","arctic-engagement","","","","","","","","","","","","","","7","absorption","",""
"html-button-response","90","2041630","0.0-7.0-2.0-5.0-0.15","f1074ff70b9eb001543fd760678cb85a2488571415e10ff4284378db224974af","swim","swim","1979","","MS2","6","","","","arctic-engagement","","","","","","","","","","","","","","7","mental-sim","",""
"html-button-response","91","2043244","0.0-7.0-2.0-5.0-0.16","f1074ff70b9eb001543fd760678cb85a2488571415e10ff4284378db224974af","swim","swim","1361","","E7","6","","","","arctic-engagement","","","","","","","","","","","","","","7","enjoyment","",""
"html-button-response","92","2044516","0.0-7.0-2.0-5.0-0.17","f1074ff70b9eb001543fd760678cb85a2488571415e10ff4284378db224974af","swim","swim","1020","","EE5","6","","","","arctic-engagement","","","","","","","","","","","","","","7","emo-engage","",""
"html-button-response","93","2046350","0.0-8.0","f1074ff70b9eb001543fd760678cb85a2488571415e10ff4284378db224974af","swim","swim","1582","","<p>Thank you for your responses.</p><p>You will now answer some demographic, hearing, and general health questions.</p>","0","","","","","","","","","","","","","","","","","","","","",""
"survey-multi-choice","94","2048902","0.0-9.0-0.0","f1074ff70b9eb001543fd760678cb85a2488571415e10ff4284378db224974af","swim","swim","2550","","","","","","","survey","","","","","","","","","","","","","{""Q0"":""Chrome""}","","","browser",""
"survey-text","95","2051610","0.0-9.0-1.0","f1074ff70b9eb001543fd760678cb85a2488571415e10ff4284378db224974af","swim","swim","2447.600000023842","","","","","","","survey","","","","","","","","","","","","","{""AGE"":""40""}","","","age","40"
"survey-multi-choice","96","2053826","0.0-9.0-2.0","f1074ff70b9eb001543fd760678cb85a2488571415e10ff4284378db224974af","swim","swim","1962","","","","","","","survey","","","","","","","","","","","","","{""Q0"":""Female""}","","","gender","Female"
"survey-multi-choice","97","2055958","0.0-9.0-4.0","f1074ff70b9eb001543fd760678cb85a2488571415e10ff4284378db224974af","swim","swim","1878","","","","","","","survey","","","","","","","","","","","","","{""Q0"":""Right""}","","","handedness","Right"
"survey-multi-choice","98","2058864","0.0-9.0-5.0","f1074ff70b9eb001543fd760678cb85a2488571415e10ff4284378db224974af","swim","swim","2648","","","","","","","survey","","","","","","","","","","","","","{""Q0"":""Bachelor's Degree""}","","","education","Bachelor's Degree"
"survey-text","99","2063050","0.0-10.0-0.0","f1074ff70b9eb001543fd760678cb85a2488571415e10ff4284378db224974af","swim","swim","3929.699999988079","","","","","","","survey","","","","","","","","","","","","","{""L1"":""English""}","","","first-language","English"
"survey-text","100","2069384","0.0-10.0-1.0","f1074ff70b9eb001543fd760678cb85a2488571415e10ff4284378db224974af","swim","swim","6071.199999988079","","","","","","","survey","","","","","","","","","","","","","{""L2name"":"""",""L2fluency"":"""",""L3name"":"""",""L3fluency"":"""",""L4name"":"""",""L4fluency"":""""}","","","additional-languages","{""L2name"":"""",""L2fluency"":"""",""L3name"":"""",""L3fluency"":"""",""L4name"":"""",""L4fluency"":""""}"
"survey-multi-choice","101","2072856","0.0-10.0-2.0","f1074ff70b9eb001543fd760678cb85a2488571415e10ff4284378db224974af","swim","swim","3218","","","","","","","survey","","","","","","","","","","","","","{""Q0"":""No""}","","","hearing-aid","No"
"survey-multi-choice","102","2075346","0.0-10.0-3.0","f1074ff70b9eb001543fd760678cb85a2488571415e10ff4284378db224974af","swim","swim","2235","","","","","","","survey","","","","","","","","","","","","","{""Q0"":""Never""}","","","ringing-ears","Never"
"survey-multi-choice","103","2077990","0.0-10.0-5.0","f1074ff70b9eb001543fd760678cb85a2488571415e10ff4284378db224974af","swim","swim","2390","","","","","","","survey","","","","","","","","","","","","","{""Q0"":""No""}","","","neuro-disease","No"
"survey-multi-choice","104","2080446","0.0-10.0-7.0","f1074ff70b9eb001543fd760678cb85a2488571415e10ff4284378db224974af","swim","swim","2202","","","","","","","survey","","","","","","","","","","","","","{""Q0"":""No""}","","","take-meds","No"
"survey-text","105","2087234","0.0-10.0-9.0","f1074ff70b9eb001543fd760678cb85a2488571415e10ff4284378db224974af","swim","swim","6518.199999988079","","","","","","","survey","","","","","","","","","","","","","{""HC"":""None""}","","","health-concerns","None"
"html-button-response","106","2089722","0.0-11.0-0.0","f1074ff70b9eb001543fd760678cb85a2488571415e10ff4284378db224974af","swim","swim","2235","","<p>How would you describe your musical skills/experiences?</p>","0","","","","survey","","","","","","","","","","","","","","","","music-skill","1"
"survey-multi-choice","107","2091804","0.0-11.0-1.0","f1074ff70b9eb001543fd760678cb85a2488571415e10ff4284378db224974af","swim","swim","1829","","","","","","","survey","","","","","","","","","","","","","{""Q0"":""No""}","","","music-instrument","No"
"html-button-response","108","2097135","0.0-12.0-0.0","f1074ff70b9eb001543fd760678cb85a2488571415e10ff4284378db224974af","swim","swim","5080","","<p>How would you describe your general hearing abilities?</p>","5","","","","survey","","","","","","","","","","","","","","","","ssq-01","6"
"html-button-response","109","2105527","0.0-12.0-1.0","f1074ff70b9eb001543fd760678cb85a2488571415e10ff4284378db224974af","swim","swim","8140","","<p>When you talk with someone at a place that strongly reverberates/echoes (e.g., in a church or train station),</br>can you understand what the person says?</p>","8","","","","survey","","","","","","","","","","","","","","","","ssq-02","8"
"html-button-response","110","2112115","0.0-12.0-2.0","f1074ff70b9eb001543fd760678cb85a2488571415e10ff4284378db224974af","swim","swim","6336","","<p>When you are with a group (~5 people) in a lively restaurant, can you follow the group's conversation?</p>","9","","","","survey","","","","","","","","","","","","","","","","ssq-03","9"
"html-button-response","111","2122221","0.0-12.0-3.0","f1074ff70b9eb001543fd760678cb85a2488571415e10ff4284378db224974af","swim","swim","9854","","<p>Based on the sound of a bus or truck, can you tell whether it is moving towards or away from you?</p>","8","","","","survey","","","","","","","","","","","","","","","","ssq-04","8"
"html-button-response","112","2126291","0.0-12.0-4.0","f1074ff70b9eb001543fd760678cb85a2488571415e10ff4284378db224974af","swim","swim","3817","","<p>When you are in an unknown environment, can you tell from which direction a brief sound originates?</p>","7","","","","survey","","","","","","","","","","","","","","","","ssq-05","7"
"html-button-response","113","2130453","0.0-12.0-5.0","f1074ff70b9eb001543fd760678cb85a2488571415e10ff4284378db224974af","swim","swim","3910","","<p>Are you able to ignore distracting sounds when you concentrate on a specific aspect of your acoustic surrounding?</p>","8","","","","survey","","","","","","","","","","","","","","","","ssq-06","8"
"fullscreen","114","2131706","0.0-13.0","f1074ff70b9eb001543fd760678cb85a2488571415e10ff4284378db224974af","swim","swim","","","","","","","","","true","","","","","","","","","","","","","","","",""
