"trial_type","trial_index","time_elapsed","internal_node_id","ParticipantID","firstStory","scramStory","rt","url","stimulus","button_pressed","key_press","correctRESP","correct","designation","success","letterStim","letterType","ONSET","TIMEOUT","CONDITION","Participant","ONSET_ACTUAL","RT","RESP","ACC","STORY","responses","response","type","surveyQuestion","QRESP"
"pavlovia","0","1814","0.0-0.0","a7146960b7573c6883b99ca757898095255fff6d193996258467b37f4acd6e60","swim","arctic","","","","","","","","","","","","","","","","","","","","","","","","",""
"external-html","1","38077","0.0-1.0","a7146960b7573c6883b99ca757898095255fff6d193996258467b37f4acd6e60","swim","arctic","24135","consent/consent_updated.html","","","","","","","","","","","","","","","","","","","","","","",""
"html-button-response","2","44105","0.0-2.0-0.0","a7146960b7573c6883b99ca757898095255fff6d193996258467b37f4acd6e60","swim","arctic","5913","","<p>Before we begin the main task, you will complete a short volume calibration and headphone check.</p><p>Please make sure you are in a quiet listening environment, that you are wearing headphones, and that your computer's volume is turned on.<p></p>","0","","","","","","","","","","","","","","","","","","","","",""
"html-button-response","3","48922","0.0-2.0-1.0","a7146960b7573c6883b99ca757898095255fff6d193996258467b37f4acd6e60","swim","arctic","4554","","<p>The volume calibration will be first.</p><p>You will hear a thirty-second noise. Please adjust your computer's volume so that this noise is being presented at a comfortable level.<p></p>","0","","","","","","","","","","","","","","","","","","","","",""
"audio-button-response","4","65356","0.0-2.0-2.0","a7146960b7573c6883b99ca757898095255fff6d193996258467b37f4acd6e60","swim","arctic","15264","","audio/volumetest.mp3","0","","","","","","","","","","","","","","","","","","","","",""
"html-keyboard-response","5","110713","0.0-3.0-0.0","a7146960b7573c6883b99ca757898095255fff6d193996258467b37f4acd6e60","swim","arctic","45308","","<p>You will now complete a short headphone check.</p><p>On each trial, you will hear three tones. One of these tones will be quieter than the others. Your task is to identify whether the quiet tone occurred first, second, or third.</p><p>There are six trials in total.<p></p><p></p>(Press SPACEBAR to begin)","","32","","","","","","","","","","","","","","","","","","","",""
"html-keyboard-response","6","112236","0.0-3.0-1.0-0.0","a7146960b7573c6883b99ca757898095255fff6d193996258467b37f4acd6e60","swim","arctic","null","","<div style=""font-size:60px;"">+</div>","","null","","","","","","","","","","","","","","","","","","","",""
"audio-button-response","7","118716","0.0-3.0-1.0-1.0","a7146960b7573c6883b99ca757898095255fff6d193996258467b37f4acd6e60","swim","arctic","6472","","audio/t2_2.mp3","1","","1","1","headphone-test","","","","","","","","","","","","","","","","",""
"html-keyboard-response","8","119238","0.0-3.0-1.0-2.0","a7146960b7573c6883b99ca757898095255fff6d193996258467b37f4acd6e60","swim","arctic","null","","<p>Correct</p>","","null","","","","","","","","","","","","","","","","","","","",""
"html-keyboard-response","9","119751","0.0-3.0-1.0-0.1","a7146960b7573c6883b99ca757898095255fff6d193996258467b37f4acd6e60","swim","arctic","null","","<div style=""font-size:60px;"">+</div>","","null","","","","","","","","","","","","","","","","","","","",""
"audio-button-response","10","126551","0.0-3.0-1.0-1.1","a7146960b7573c6883b99ca757898095255fff6d193996258467b37f4acd6e60","swim","arctic","6777","","audio/t2_1.mp3","1","","1","1","headphone-test","","","","","","","","","","","","","","","","",""
"html-keyboard-response","11","127066","0.0-3.0-1.0-2.1","a7146960b7573c6883b99ca757898095255fff6d193996258467b37f4acd6e60","swim","arctic","null","","<p>Correct</p>","","null","","","","","","","","","","","","","","","","","","","",""
"html-keyboard-response","12","127586","0.0-3.0-1.0-0.2","a7146960b7573c6883b99ca757898095255fff6d193996258467b37f4acd6e60","swim","arctic","null","","<div style=""font-size:60px;"">+</div>","","null","","","","","","","","","","","","","","","","","","","",""
"audio-button-response","13","132572","0.0-3.0-1.0-1.2","a7146960b7573c6883b99ca757898095255fff6d193996258467b37f4acd6e60","swim","arctic","4974","","audio/t3_2.mp3","2","","2","1","headphone-test","","","","","","","","","","","","","","","","",""
"html-keyboard-response","14","133091","0.0-3.0-1.0-2.2","a7146960b7573c6883b99ca757898095255fff6d193996258467b37f4acd6e60","swim","arctic","null","","<p>Correct</p>","","null","","","","","","","","","","","","","","","","","","","",""
"html-keyboard-response","15","133610","0.0-3.0-1.0-0.3","a7146960b7573c6883b99ca757898095255fff6d193996258467b37f4acd6e60","swim","arctic","null","","<div style=""font-size:60px;"">+</div>","","null","","","","","","","","","","","","","","","","","","","",""
"audio-button-response","16","138272","0.0-3.0-1.0-1.3","a7146960b7573c6883b99ca757898095255fff6d193996258467b37f4acd6e60","swim","arctic","4653","","audio/t1_1.mp3","0","","0","1","headphone-test","","","","","","","","","","","","","","","","",""
"html-keyboard-response","17","138782","0.0-3.0-1.0-2.3","a7146960b7573c6883b99ca757898095255fff6d193996258467b37f4acd6e60","swim","arctic","null","","<p>Correct</p>","","null","","","","","","","","","","","","","","","","","","","",""
"html-keyboard-response","18","139289","0.0-3.0-1.0-0.4","a7146960b7573c6883b99ca757898095255fff6d193996258467b37f4acd6e60","swim","arctic","null","","<div style=""font-size:60px;"">+</div>","","null","","","","","","","","","","","","","","","","","","","",""
"audio-button-response","19","144299","0.0-3.0-1.0-1.4","a7146960b7573c6883b99ca757898095255fff6d193996258467b37f4acd6e60","swim","arctic","5004","","audio/t1_2.mp3","0","","0","1","headphone-test","","","","","","","","","","","","","","","","",""
"html-keyboard-response","20","144892","0.0-3.0-1.0-2.4","a7146960b7573c6883b99ca757898095255fff6d193996258467b37f4acd6e60","swim","arctic","null","","<p>Correct</p>","","null","","","","","","","","","","","","","","","","","","","",""
"html-keyboard-response","21","145399","0.0-3.0-1.0-0.5","a7146960b7573c6883b99ca757898095255fff6d193996258467b37f4acd6e60","swim","arctic","null","","<div style=""font-size:60px;"">+</div>","","null","","","","","","","","","","","","","","","","","","","",""
"audio-button-response","22","150269","0.0-3.0-1.0-1.5","a7146960b7573c6883b99ca757898095255fff6d193996258467b37f4acd6e60","swim","arctic","4864","","audio/t3_1.mp3","2","","2","1","headphone-test","","","","","","","","","","","","","","","","",""
"html-keyboard-response","23","150873","0.0-3.0-1.0-2.5","a7146960b7573c6883b99ca757898095255fff6d193996258467b37f4acd6e60","swim","arctic","null","","<p>Correct</p>","","null","","","","","","","","","","","","","","","","","","","",""
"fullscreen","24","154438","0.0-4.0","a7146960b7573c6883b99ca757898095255fff6d193996258467b37f4acd6e60","swim","arctic","","","","","","","","","true","","","","","","","","","","","","","","","",""
"html-button-response","25","168070","0.0-5.0-0.0","a7146960b7573c6883b99ca757898095255fff6d193996258467b37f4acd6e60","swim","arctic","13626","","<p>There are two blocks to this experiment.</p><p>In each block, you will hear a ~13.5 minute story. One of the stories will be scrambled. Please listen carefully to both stories and understand them as best you can.</p><p>After each story, you will be asked some questions to assess your comprehension.</p>","0","","","","","","","","","","","","","","","","","","","","",""
"html-button-response","26","186693","0.0-5.0-1.0","a7146960b7573c6883b99ca757898095255fff6d193996258467b37f4acd6e60","swim","arctic","18603","","<p>During each story, there will be an additional task.</p><p>A letter will occasionally appear on the screen.</br>Your job is to - as quickly as you can - decide whether the letter is lowercase or uppercase and press one of two keys on the keyboard:</p><p>If the letter is <b>lowercase</b>, press key &lt;<b>x</b>&gt;.</p><p>If the letter is <b>uppercase</b>, press key &lt;<b>m</b>&gt;.</p>","0","","","","","","","","","","","","","","","","","","","","",""
"html-keyboard-response","27","193489","0.0-5.0-2.0","a7146960b7573c6883b99ca757898095255fff6d193996258467b37f4acd6e60","swim","arctic","6795","","<p>Because we want your responses to be as quick as possible, please keep your index fingers over the keys while listening.</p><p>Each block lasts about 20 minutes.</p><p><b>Press &lt;x&gt; or &lt;m&gt; to start the first block!</b></p>","","77","","","","","","","","","","","","","","","","","","","",""
"html-keyboard-response","28","193994","0.0-7.0-0.0-0.0","a7146960b7573c6883b99ca757898095255fff6d193996258467b37f4acd6e60","swim","arctic","null","","<div style=""font-size:60px;"" tabindex=""0"">+</div>","","null","","","","","","","","","","","","","","","","","","","",""
"dual-task","null","null","null","","swim","arctic","1322.6000000238419","","Q","null","77","77","1","swim-dual-task","","Q","uppercase","18000","0","6","a7146960b7573c6883b99ca757898095255fff6d193996258467b37f4acd6e60","18008.69999998808","1322.6000000238419","77","1","swim","","","","",""
"dual-task","null","null","null","","swim","arctic","786.3999999761581","","G","null","77","77","1","swim-dual-task","","G","uppercase","30000","0","6","a7146960b7573c6883b99ca757898095255fff6d193996258467b37f4acd6e60","29993.69999998808","786.3999999761581","77","1","swim","","","","",""
"dual-task","null","null","null","","swim","arctic","694","","R","null","77","77","1","swim-dual-task","","R","uppercase","40000","0","6","a7146960b7573c6883b99ca757898095255fff6d193996258467b37f4acd6e60","39989.60000002384","694","77","1","swim","","","","",""
"dual-task","null","null","null","","swim","arctic","822.4000000357628","","H","null","77","77","1","swim-dual-task","","H","uppercase","54000","0","6","a7146960b7573c6883b99ca757898095255fff6d193996258467b37f4acd6e60","53995.40000003576","822.4000000357628","77","1","swim","","","","",""
"dual-task","null","null","null","","swim","arctic","617.8000000119209","","n","null","88","88","1","swim-dual-task","","n","lowercase","62000","0","6","a7146960b7573c6883b99ca757898095255fff6d193996258467b37f4acd6e60","62004.80000001192","617.8000000119209","88","1","swim","","","","",""
"dual-task","null","null","null","","swim","arctic","612.6000000238419","","D","null","77","77","1","swim-dual-task","","D","uppercase","76000","0","6","a7146960b7573c6883b99ca757898095255fff6d193996258467b37f4acd6e60","75997.10000002384","612.6000000238419","77","1","swim","","","","",""
"dual-task","null","null","null","","swim","arctic","595.5","","t","null","88","88","1","swim-dual-task","","t","lowercase","86000","0","6","a7146960b7573c6883b99ca757898095255fff6d193996258467b37f4acd6e60","85999.10000002384","595.5","88","1","swim","","","","",""
"dual-task","null","null","null","","swim","arctic","828.8000000119209","","n","null","88","88","1","swim-dual-task","","n","lowercase","100000","0","6","a7146960b7573c6883b99ca757898095255fff6d193996258467b37f4acd6e60","100005.69999998808","828.8000000119209","88","1","swim","","","","",""
"dual-task","null","null","null","","swim","arctic","663","","A","null","77","77","1","swim-dual-task","","A","uppercase","106000","0","6","a7146960b7573c6883b99ca757898095255fff6d193996258467b37f4acd6e60","106007.19999998808","663","77","1","swim","","","","",""
"dual-task","null","null","null","","swim","arctic","588.3999999761581","","N","null","77","77","1","swim-dual-task","","N","uppercase","114000","0","6","a7146960b7573c6883b99ca757898095255fff6d193996258467b37f4acd6e60","113993.19999998808","588.3999999761581","77","1","swim","","","","",""
"dual-task","null","null","null","","swim","arctic","572.8999999761581","","b","null","88","88","1","swim-dual-task","","b","lowercase","128000","0","6","a7146960b7573c6883b99ca757898095255fff6d193996258467b37f4acd6e60","128000.5","572.8999999761581","88","1","swim","","","","",""
"dual-task","null","null","null","","swim","arctic","677.3000000119209","","a","null","88","88","1","swim-dual-task","","a","lowercase","140000","0","6","a7146960b7573c6883b99ca757898095255fff6d193996258467b37f4acd6e60","139998","677.3000000119209","88","1","swim","","","","",""
"dual-task","null","null","null","","swim","arctic","614.6999999880791","","d","null","88","88","1","swim-dual-task","","d","lowercase","152000","0","6","a7146960b7573c6883b99ca757898095255fff6d193996258467b37f4acd6e60","151997.30000001192","614.6999999880791","88","1","swim","","","","",""
"dual-task","null","null","null","","swim","arctic","659.3000000119209","","h","null","88","88","1","swim-dual-task","","h","lowercase","164000","0","6","a7146960b7573c6883b99ca757898095255fff6d193996258467b37f4acd6e60","164004.80000001192","659.3000000119209","88","1","swim","","","","",""
"dual-task","null","null","null","","swim","arctic","712.7999999523163","","G","null","77","77","1","swim-dual-task","","G","uppercase","172000","0","6","a7146960b7573c6883b99ca757898095255fff6d193996258467b37f4acd6e60","172029.5","712.7999999523163","77","1","swim","","","","",""
"dual-task","null","null","null","","swim","arctic","762.3000000119209","","N","null","77","77","1","swim-dual-task","","N","uppercase","184000","0","6","a7146960b7573c6883b99ca757898095255fff6d193996258467b37f4acd6e60","183998.40000003576","762.3000000119209","77","1","swim","","","","",""
"dual-task","null","null","null","","swim","arctic","812.3999999761581","","F","null","88","77","0","swim-dual-task","","F","uppercase","194000","0","6","a7146960b7573c6883b99ca757898095255fff6d193996258467b37f4acd6e60","193995.10000002384","812.3999999761581","88","0","swim","","","","",""
"dual-task","null","null","null","","swim","arctic","923.6999999880791","","b","null","88","88","1","swim-dual-task","","b","lowercase","206000","0","6","a7146960b7573c6883b99ca757898095255fff6d193996258467b37f4acd6e60","206008.30000001192","923.6999999880791","88","1","swim","","","","",""
"dual-task","null","null","null","","swim","arctic","684.6999999880791","","Q","null","77","77","1","swim-dual-task","","Q","uppercase","220000","0","6","a7146960b7573c6883b99ca757898095255fff6d193996258467b37f4acd6e60","219999.60000002384","684.6999999880791","77","1","swim","","","","",""
"dual-task","null","null","null","","swim","arctic","669.5","","A","null","77","77","1","swim-dual-task","","A","uppercase","232000","0","6","a7146960b7573c6883b99ca757898095255fff6d193996258467b37f4acd6e60","231996.80000001192","669.5","77","1","swim","","","","",""
"dual-task","null","null","null","","swim","arctic","586.1999999880791","","H","null","77","77","1","swim-dual-task","","H","uppercase","242000","0","6","a7146960b7573c6883b99ca757898095255fff6d193996258467b37f4acd6e60","241998.10000002384","586.1999999880791","77","1","swim","","","","",""
"dual-task","null","null","null","","swim","arctic","816.3999999761581","","h","null","88","88","1","swim-dual-task","","h","lowercase","256000","0","6","a7146960b7573c6883b99ca757898095255fff6d193996258467b37f4acd6e60","255996.60000002384","816.3999999761581","88","1","swim","","","","",""
"dual-task","null","null","null","","swim","arctic","529.5","","d","null","88","88","1","swim-dual-task","","d","lowercase","262000","0","6","a7146960b7573c6883b99ca757898095255fff6d193996258467b37f4acd6e60","262001.40000003576","529.5","88","1","swim","","","","",""
"dual-task","null","null","null","","swim","arctic","557.1999999880791","","R","null","77","77","1","swim-dual-task","","R","uppercase","272000","0","6","a7146960b7573c6883b99ca757898095255fff6d193996258467b37f4acd6e60","272002.5","557.1999999880791","77","1","swim","","","","",""
"dual-task","null","null","null","","swim","arctic","558.3000000119209","","g","null","88","88","1","swim-dual-task","","g","lowercase","280000","0","6","a7146960b7573c6883b99ca757898095255fff6d193996258467b37f4acd6e60","279999.60000002384","558.3000000119209","88","1","swim","","","","",""
"dual-task","null","null","null","","swim","arctic","573.5","","a","null","88","88","1","swim-dual-task","","a","lowercase","288000","0","6","a7146960b7573c6883b99ca757898095255fff6d193996258467b37f4acd6e60","288008.1999999881","573.5","88","1","swim","","","","",""
"dual-task","null","null","null","","swim","arctic","669.1000000238419","","q","null","88","88","1","swim-dual-task","","q","lowercase","300000","0","6","a7146960b7573c6883b99ca757898095255fff6d193996258467b37f4acd6e60","300009.3000000119","669.1000000238419","88","1","swim","","","","",""
"dual-task","null","null","null","","swim","arctic","779.6000000238419","","Q","null","77","77","1","swim-dual-task","","Q","uppercase","308000","0","6","a7146960b7573c6883b99ca757898095255fff6d193996258467b37f4acd6e60","308004.6999999881","779.6000000238419","77","1","swim","","","","",""
"dual-task","null","null","null","","swim","arctic","516.8999999761581","","b","null","88","88","1","swim-dual-task","","b","lowercase","314000","0","6","a7146960b7573c6883b99ca757898095255fff6d193996258467b37f4acd6e60","314006.3000000119","516.8999999761581","88","1","swim","","","","",""
"dual-task","null","null","null","","swim","arctic","540.8999999761581","","a","null","88","88","1","swim-dual-task","","a","lowercase","324000","0","6","a7146960b7573c6883b99ca757898095255fff6d193996258467b37f4acd6e60","323995.10000002384","540.8999999761581","88","1","swim","","","","",""
"dual-task","null","null","null","","swim","arctic","719.5","","r","null","88","88","1","swim-dual-task","","r","lowercase","334000","0","6","a7146960b7573c6883b99ca757898095255fff6d193996258467b37f4acd6e60","334003.40000003576","719.5","88","1","swim","","","","",""
"dual-task","null","null","null","","swim","arctic","486.0999999642372","","D","null","77","77","1","swim-dual-task","","D","uppercase","342000","0","6","a7146960b7573c6883b99ca757898095255fff6d193996258467b37f4acd6e60","342016.10000002384","486.0999999642372","77","1","swim","","","","",""
"dual-task","null","null","null","","swim","arctic","710.5999999642372","","a","null","88","88","1","swim-dual-task","","a","lowercase","350000","0","6","a7146960b7573c6883b99ca757898095255fff6d193996258467b37f4acd6e60","350005.3000000119","710.5999999642372","88","1","swim","","","","",""
"dual-task","null","null","null","","swim","arctic","775.3999999761581","","g","null","88","88","1","swim-dual-task","","g","lowercase","358000","0","6","a7146960b7573c6883b99ca757898095255fff6d193996258467b37f4acd6e60","358015.1999999881","775.3999999761581","88","1","swim","","","","",""
"dual-task","null","null","null","","swim","arctic","645.5","","A","null","77","77","1","swim-dual-task","","A","uppercase","368000","0","6","a7146960b7573c6883b99ca757898095255fff6d193996258467b37f4acd6e60","368017.8000000119","645.5","77","1","swim","","","","",""
"dual-task","null","null","null","","swim","arctic","646.8999999761581","","E","null","77","77","1","swim-dual-task","","E","uppercase","376000","0","6","a7146960b7573c6883b99ca757898095255fff6d193996258467b37f4acd6e60","376002.3000000119","646.8999999761581","77","1","swim","","","","",""
"dual-task","null","null","null","","swim","arctic","509.69999998807907","","F","null","77","77","1","swim-dual-task","","F","uppercase","386000","0","6","a7146960b7573c6883b99ca757898095255fff6d193996258467b37f4acd6e60","386010.8000000119","509.69999998807907","77","1","swim","","","","",""
"dual-task","null","null","null","","swim","arctic","548.0999999642372","","H","null","77","77","1","swim-dual-task","","H","uppercase","396000","0","6","a7146960b7573c6883b99ca757898095255fff6d193996258467b37f4acd6e60","395998.1999999881","548.0999999642372","77","1","swim","","","","",""
"dual-task","null","null","null","","swim","arctic","448.5","","F","null","77","77","1","swim-dual-task","","F","uppercase","402000","0","6","a7146960b7573c6883b99ca757898095255fff6d193996258467b37f4acd6e60","401997.10000002384","448.5","77","1","swim","","","","",""
"dual-task","null","null","null","","swim","arctic","662.6000000238419","","e","null","88","88","1","swim-dual-task","","e","lowercase","414000","0","6","a7146960b7573c6883b99ca757898095255fff6d193996258467b37f4acd6e60","414018.8000000119","662.6000000238419","88","1","swim","","","","",""
"dual-task","null","null","null","","swim","arctic","566.6999999880791","","N","null","77","77","1","swim-dual-task","","N","uppercase","426000","0","6","a7146960b7573c6883b99ca757898095255fff6d193996258467b37f4acd6e60","426021.40000003576","566.6999999880791","77","1","swim","","","","",""
"dual-task","null","null","null","","swim","arctic","983","","N","null","77","77","1","swim-dual-task","","N","uppercase","434000","0","6","a7146960b7573c6883b99ca757898095255fff6d193996258467b37f4acd6e60","434001.6999999881","983","77","1","swim","","","","",""
"dual-task","null","null","null","","swim","arctic","726.8999999761581","","R","null","77","77","1","swim-dual-task","","R","uppercase","446000","0","6","a7146960b7573c6883b99ca757898095255fff6d193996258467b37f4acd6e60","446005.40000003576","726.8999999761581","77","1","swim","","","","",""
"dual-task","null","null","null","","swim","arctic","500.80000001192093","","T","null","77","77","1","swim-dual-task","","T","uppercase","452000","0","6","a7146960b7573c6883b99ca757898095255fff6d193996258467b37f4acd6e60","452018.8000000119","500.80000001192093","77","1","swim","","","","",""
"dual-task","null","null","null","","swim","arctic","538.8999999761581","","e","null","88","88","1","swim-dual-task","","e","lowercase","462000","0","6","a7146960b7573c6883b99ca757898095255fff6d193996258467b37f4acd6e60","462007.90000003576","538.8999999761581","88","1","swim","","","","",""
"dual-task","null","null","null","","swim","arctic","650.8000000119209","","n","null","88","88","1","swim-dual-task","","n","lowercase","468000","0","6","a7146960b7573c6883b99ca757898095255fff6d193996258467b37f4acd6e60","467998.3000000119","650.8000000119209","88","1","swim","","","","",""
"dual-task","null","null","null","","swim","arctic","487.69999998807907","","E","null","88","77","0","swim-dual-task","","E","uppercase","480000","0","6","a7146960b7573c6883b99ca757898095255fff6d193996258467b37f4acd6e60","480011.3000000119","487.69999998807907","88","0","swim","","","","",""
"dual-task","null","null","null","","swim","arctic","539.1999999880791","","Q","null","77","77","1","swim-dual-task","","Q","uppercase","488000","0","6","a7146960b7573c6883b99ca757898095255fff6d193996258467b37f4acd6e60","488030.6999999881","539.1999999880791","77","1","swim","","","","",""
"dual-task","null","null","null","","swim","arctic","547.1999999880791","","f","null","88","88","1","swim-dual-task","","f","lowercase","496000","0","6","a7146960b7573c6883b99ca757898095255fff6d193996258467b37f4acd6e60","495997.6999999881","547.1999999880791","88","1","swim","","","","",""
"dual-task","null","null","null","","swim","arctic","933.3000000119209","","B","null","77","77","1","swim-dual-task","","B","uppercase","504000","0","6","a7146960b7573c6883b99ca757898095255fff6d193996258467b37f4acd6e60","504008.6999999881","933.3000000119209","77","1","swim","","","","",""
"dual-task","null","null","null","","swim","arctic","484.80000001192093","","D","null","77","77","1","swim-dual-task","","D","uppercase","514000","0","6","a7146960b7573c6883b99ca757898095255fff6d193996258467b37f4acd6e60","514004.5","484.80000001192093","77","1","swim","","","","",""
"dual-task","null","null","null","","swim","arctic","540.3000000119209","","R","null","77","77","1","swim-dual-task","","R","uppercase","526000","0","6","a7146960b7573c6883b99ca757898095255fff6d193996258467b37f4acd6e60","526001.8000000119","540.3000000119209","77","1","swim","","","","",""
"dual-task","null","null","null","","swim","arctic","890.5","","h","null","88","88","1","swim-dual-task","","h","lowercase","534000","0","6","a7146960b7573c6883b99ca757898095255fff6d193996258467b37f4acd6e60","534001.3000000119","890.5","88","1","swim","","","","",""
"dual-task","null","null","null","","swim","arctic","751.6000000238419","","t","null","88","88","1","swim-dual-task","","t","lowercase","546000","0","6","a7146960b7573c6883b99ca757898095255fff6d193996258467b37f4acd6e60","546001","751.6000000238419","88","1","swim","","","","",""
"dual-task","null","null","null","","swim","arctic","488.89999997615814","","q","null","88","88","1","swim-dual-task","","q","lowercase","558000","0","6","a7146960b7573c6883b99ca757898095255fff6d193996258467b37f4acd6e60","558000.6000000238","488.89999997615814","88","1","swim","","","","",""
"dual-task","null","null","null","","swim","arctic","506.7000000476837","","t","null","88","88","1","swim-dual-task","","t","lowercase","570000","0","6","a7146960b7573c6883b99ca757898095255fff6d193996258467b37f4acd6e60","570004.4000000358","506.7000000476837","88","1","swim","","","","",""
"dual-task","null","null","null","","swim","arctic","785.3999999761581","","q","null","88","88","1","swim-dual-task","","q","lowercase","582000","0","6","a7146960b7573c6883b99ca757898095255fff6d193996258467b37f4acd6e60","582013.6999999881","785.3999999761581","88","1","swim","","","","",""
"dual-task","null","null","null","","swim","arctic","584.5","","T","null","77","77","1","swim-dual-task","","T","uppercase","594000","0","6","a7146960b7573c6883b99ca757898095255fff6d193996258467b37f4acd6e60","594003","584.5","77","1","swim","","","","",""
"dual-task","null","null","null","","swim","arctic","560.8000000119209","","g","null","88","88","1","swim-dual-task","","g","lowercase","602000","0","6","a7146960b7573c6883b99ca757898095255fff6d193996258467b37f4acd6e60","602012.5","560.8000000119209","88","1","swim","","","","",""
"dual-task","null","null","null","","swim","arctic","510.5","","G","null","77","77","1","swim-dual-task","","G","uppercase","616000","0","6","a7146960b7573c6883b99ca757898095255fff6d193996258467b37f4acd6e60","616008.3000000119","510.5","77","1","swim","","","","",""
"dual-task","null","null","null","","swim","arctic","509.19999998807907","","h","null","88","88","1","swim-dual-task","","h","lowercase","622000","0","6","a7146960b7573c6883b99ca757898095255fff6d193996258467b37f4acd6e60","622000.6000000238","509.19999998807907","88","1","swim","","","","",""
"dual-task","null","null","null","","swim","arctic","1081.699999988079","","H","null","77","77","1","swim-dual-task","","H","uppercase","636000","0","6","a7146960b7573c6883b99ca757898095255fff6d193996258467b37f4acd6e60","636010.5","1081.699999988079","77","1","swim","","","","",""
"dual-task","null","null","null","","swim","arctic","488.4000000357628","","A","null","77","77","1","swim-dual-task","","A","uppercase","644000","0","6","a7146960b7573c6883b99ca757898095255fff6d193996258467b37f4acd6e60","644007.6000000238","488.4000000357628","77","1","swim","","","","",""
"dual-task","null","null","null","","swim","arctic","631.5","","b","null","88","88","1","swim-dual-task","","b","lowercase","654000","0","6","a7146960b7573c6883b99ca757898095255fff6d193996258467b37f4acd6e60","654013.8000000119","631.5","88","1","swim","","","","",""
"dual-task","null","null","null","","swim","arctic","827.5","","F","null","77","77","1","swim-dual-task","","F","uppercase","668000","0","6","a7146960b7573c6883b99ca757898095255fff6d193996258467b37f4acd6e60","668005.1000000238","827.5","77","1","swim","","","","",""
"dual-task","null","null","null","","swim","arctic","1179.199999988079","","f","null","88","88","1","swim-dual-task","","f","lowercase","676000","0","6","a7146960b7573c6883b99ca757898095255fff6d193996258467b37f4acd6e60","676006.5","1179.199999988079","88","1","swim","","","","",""
"dual-task","null","null","null","","swim","arctic","890.5","","r","null","88","88","1","swim-dual-task","","r","lowercase","686000","0","6","a7146960b7573c6883b99ca757898095255fff6d193996258467b37f4acd6e60","686007.1999999881","890.5","88","1","swim","","","","",""
"dual-task","null","null","null","","swim","arctic","715.1000000238419","","d","null","88","88","1","swim-dual-task","","d","lowercase","698000","0","6","a7146960b7573c6883b99ca757898095255fff6d193996258467b37f4acd6e60","698001.8000000119","715.1000000238419","88","1","swim","","","","",""
"dual-task","null","null","null","","swim","arctic","436.69999998807907","","r","null","88","88","1","swim-dual-task","","r","lowercase","708000","0","6","a7146960b7573c6883b99ca757898095255fff6d193996258467b37f4acd6e60","708016","436.69999998807907","88","1","swim","","","","",""
"dual-task","null","null","null","","swim","arctic","700.8999999761581","","T","null","77","77","1","swim-dual-task","","T","uppercase","720000","0","6","a7146960b7573c6883b99ca757898095255fff6d193996258467b37f4acd6e60","720011.4000000358","700.8999999761581","77","1","swim","","","","",""
"dual-task","null","null","null","","swim","arctic","456.69999998807907","","B","null","77","77","1","swim-dual-task","","B","uppercase","728000","0","6","a7146960b7573c6883b99ca757898095255fff6d193996258467b37f4acd6e60","728019","456.69999998807907","77","1","swim","","","","",""
"dual-task","null","null","null","","swim","arctic","691.5","","f","null","88","88","1","swim-dual-task","","f","lowercase","740000","0","6","a7146960b7573c6883b99ca757898095255fff6d193996258467b37f4acd6e60","740015.3000000119","691.5","88","1","swim","","","","",""
"dual-task","null","null","null","","swim","arctic","577.5","","t","null","88","88","1","swim-dual-task","","t","lowercase","754000","0","6","a7146960b7573c6883b99ca757898095255fff6d193996258467b37f4acd6e60","754012.1999999881","577.5","88","1","swim","","","","",""
"dual-task","null","null","null","","swim","arctic","515.5","","D","null","77","77","1","swim-dual-task","","D","uppercase","762000","0","6","a7146960b7573c6883b99ca757898095255fff6d193996258467b37f4acd6e60","762008.5","515.5","77","1","swim","","","","",""
"dual-task","null","null","null","","swim","arctic","467.89999997615814","","B","null","77","77","1","swim-dual-task","","B","uppercase","770000","0","6","a7146960b7573c6883b99ca757898095255fff6d193996258467b37f4acd6e60","770009.1999999881","467.89999997615814","77","1","swim","","","","",""
"dual-task","null","null","null","","swim","arctic","429.5","","B","null","77","77","1","swim-dual-task","","B","uppercase","778000","0","6","a7146960b7573c6883b99ca757898095255fff6d193996258467b37f4acd6e60","778010.6999999881","429.5","77","1","swim","","","","",""
"dual-task","null","null","null","","swim","arctic","552.8000000119209","","g","null","88","88","1","swim-dual-task","","g","lowercase","786000","0","6","a7146960b7573c6883b99ca757898095255fff6d193996258467b37f4acd6e60","786013.5","552.8000000119209","88","1","swim","","","","",""
"dual-task","null","null","null","","swim","arctic","554.0999999642372","","E","null","77","77","1","swim-dual-task","","E","uppercase","800000","0","6","a7146960b7573c6883b99ca757898095255fff6d193996258467b37f4acd6e60","800011.6000000238","554.0999999642372","77","1","swim","","","","",""
"audio-keyboard-response","29","1004603","0.0-7.0-0.0-1.0","a7146960b7573c6883b99ca757898095255fff6d193996258467b37f4acd6e60","swim","arctic","null","","audio/story_swim.mp3","","null","","","","","","","","","","","","","","","","","","","",""
"html-button-response","30","1007116","0.0-7.0-0.0-2.0","a7146960b7573c6883b99ca757898095255fff6d193996258467b37f4acd6e60","swim","arctic","2508","","<p>This concludes the story. Thank you for listening.</p><p>You will now answer some questions about the content of the story.</p>","0","","","","","","","","","","","","","","","","","","","","",""
"survey-multi-choice","31","1013055","0.0-7.0-0.0-3.0-0.0","a7146960b7573c6883b99ca757898095255fff6d193996258467b37f4acd6e60","swim","arctic","5766","","<b>What is the narrator afraid of, aside from the water?</b>","","","","1","swim-comprehension","","","","","","","","","","","","","{""Q0"":""Heights""}","","","",""
"survey-multi-choice","32","1018539","0.0-7.0-0.0-3.0-0.1","a7146960b7573c6883b99ca757898095255fff6d193996258467b37f4acd6e60","swim","arctic","5163","","<b>Where is the home of naval aviation?</b>","","","","1","swim-comprehension","","","","","","","","","","","","","{""Q0"":""Pensacola""}","","","",""
"survey-multi-choice","33","1026703","0.0-7.0-0.0-3.0-0.2","a7146960b7573c6883b99ca757898095255fff6d193996258467b37f4acd6e60","swim","arctic","7873","","<b>How many times did the astronaut candidates have to complete the final exercise to pass?</b>","","","","1","swim-comprehension","","","","","","","","","","","","","{""Q0"":""Two""}","","","",""
"survey-multi-choice","34","1038578","0.0-7.0-0.0-3.0-0.3","a7146960b7573c6883b99ca757898095255fff6d193996258467b37f4acd6e60","swim","arctic","11592","","<b>What gave the narrator his greatest feeling of accomplishment?</b>","","","","1","swim-comprehension","","","","","","","","","","","","","{""Q0"":""Passing the water survival course""}","","","",""
"survey-multi-choice","35","1054206","0.0-7.0-0.0-3.0-0.4","a7146960b7573c6883b99ca757898095255fff6d193996258467b37f4acd6e60","swim","arctic","15345","","<b>What were the astronaut candidates trained to do at the naval air station?</b>","","","","1","swim-comprehension","","","","","","","","","","","","","{""Q0"":""Eject out of aircraft and survive in water long enough to be rescued""}","","","",""
"survey-multi-choice","36","1061307","0.0-7.0-0.0-3.0-0.5","a7146960b7573c6883b99ca757898095255fff6d193996258467b37f4acd6e60","swim","arctic","6817","","<b>What was the final step of the first swim test in the pool?</b>","","","","1","swim-comprehension","","","","","","","","","","","","","{""Q0"":""Tread water with hands above the water""}","","","",""
"survey-multi-choice","37","1067197","0.0-7.0-0.0-3.0-0.6","a7146960b7573c6883b99ca757898095255fff6d193996258467b37f4acd6e60","swim","arctic","5599","","<b>How often does the narrator swim, now that he is a good swimmer?</b>","","","","1","swim-comprehension","","","","","","","","","","","","","{""Q0"":""Never swam again in his life""}","","","",""
"survey-multi-choice","38","1071652","0.0-7.0-0.0-3.0-0.7","a7146960b7573c6883b99ca757898095255fff6d193996258467b37f4acd6e60","swim","arctic","4187","","<b>How many astronaut candidates reported for duty at the Johnson Space Center?</b>","","","","1","swim-comprehension","","","","","","","","","","","","","{""Q0"":""Forty-four""}","","","",""
"survey-multi-choice","39","1076485","0.0-7.0-0.0-3.0-0.8","a7146960b7573c6883b99ca757898095255fff6d193996258467b37f4acd6e60","swim","arctic","4549","","<b>How many astronaut candidates passed the first swim test?</b>","","","","1","swim-comprehension","","","","","","","","","","","","","{""Q0"":""All of them""}","","","",""
"survey-multi-choice","40","1087556","0.0-7.0-0.0-3.0-0.9","a7146960b7573c6883b99ca757898095255fff6d193996258467b37f4acd6e60","swim","arctic","10793","","<b>How did the narrator train for his swim test?</b>","","","","0","swim-comprehension","","","","","","","","","","","","","{""Q0"":""Signed up for a swim class""}","","","",""
"html-button-response","41","1090135","0.0-7.0-0.0-4.0","a7146960b7573c6883b99ca757898095255fff6d193996258467b37f4acd6e60","swim","arctic","2317","","<p>Thank you for your responses.</p><p>You will now answer some questions about your impressions of the story.</p>","0","","","","","","","","","","","","","","","","","","","","",""
"html-button-response","42","1094535","0.0-7.0-0.0-5.0-0.0","a7146960b7573c6883b99ca757898095255fff6d193996258467b37f4acd6e60","swim","arctic","4390","","A1","5","","","","swim-engagement","","","","","","","","","","","","","","6","absorption","",""
"html-button-response","43","1097230","0.0-7.0-0.0-5.0-0.1","a7146960b7573c6883b99ca757898095255fff6d193996258467b37f4acd6e60","swim","arctic","2431","","MS1","6","","","","swim-engagement","","","","","","","","","","","","","","7","mental-sim","",""
"html-button-response","44","1099524","0.0-7.0-0.0-5.0-0.2","a7146960b7573c6883b99ca757898095255fff6d193996258467b37f4acd6e60","swim","arctic","2031","","A2","6","","","","swim-engagement","","","","","","","","","","","","","","7","absorption","",""
"html-button-response","45","1101606","0.0-7.0-0.0-5.0-0.3","a7146960b7573c6883b99ca757898095255fff6d193996258467b37f4acd6e60","swim","arctic","1811","","E8","4","","","","swim-engagement","","","","","","","","","","","","","","5","enjoyment","",""
"html-button-response","46","1103557","0.0-7.0-0.0-5.0-0.4","a7146960b7573c6883b99ca757898095255fff6d193996258467b37f4acd6e60","swim","arctic","1685","","E1","4","","","","swim-engagement","","","","","","","","","","","","","","5","enjoyment","",""
"html-button-response","47","1105814","0.0-7.0-0.0-5.0-0.5","a7146960b7573c6883b99ca757898095255fff6d193996258467b37f4acd6e60","swim","arctic","1995","","EE4","3","","","","swim-engagement","","","","","","","","","","","","","","4","emo-engage","",""
"html-button-response","48","1107511","0.0-7.0-0.0-5.0-0.6","a7146960b7573c6883b99ca757898095255fff6d193996258467b37f4acd6e60","swim","arctic","1434","","EE2","4","","","","swim-engagement","","","","","","","","","","","","","","5","emo-engage","",""
"html-button-response","49","1109816","0.0-7.0-0.0-5.0-0.7","a7146960b7573c6883b99ca757898095255fff6d193996258467b37f4acd6e60","swim","arctic","2040","","A3","6","","","","swim-engagement","","","","","","","","","","","","","","7","absorption","",""
"html-button-response","50","1112882","0.0-7.0-0.0-5.0-0.8","a7146960b7573c6883b99ca757898095255fff6d193996258467b37f4acd6e60","swim","arctic","2802","","MS2","6","","","","swim-engagement","","","","","","","","","","","","","","7","mental-sim","",""
"html-button-response","51","1116718","0.0-7.0-0.0-5.0-0.9","a7146960b7573c6883b99ca757898095255fff6d193996258467b37f4acd6e60","swim","arctic","3574","","MS3","5","","","","swim-engagement","","","","","","","","","","","","","","6","mental-sim","",""
"html-button-response","52","1119347","0.0-7.0-0.0-5.0-0.10","a7146960b7573c6883b99ca757898095255fff6d193996258467b37f4acd6e60","swim","arctic","2364","","EE5","3","","","","swim-engagement","","","","","","","","","","","","","","4","emo-engage","",""
"html-button-response","53","1123018","0.0-7.0-0.0-5.0-0.11","a7146960b7573c6883b99ca757898095255fff6d193996258467b37f4acd6e60","swim","arctic","3409","","A5","4","","","","swim-engagement","","","","","","","","","","","","","","5","absorption","",""
"html-button-response","54","1125328","0.0-7.0-0.0-5.0-0.12","a7146960b7573c6883b99ca757898095255fff6d193996258467b37f4acd6e60","swim","arctic","2038","","E6","6","","","","swim-engagement","","","","","","","","","","","","","","7","enjoyment","",""
"html-button-response","55","1127169","0.0-7.0-0.0-5.0-0.13","a7146960b7573c6883b99ca757898095255fff6d193996258467b37f4acd6e60","swim","arctic","1581","","E7","6","","","","swim-engagement","","","","","","","","","","","","","","7","enjoyment","",""
"html-button-response","56","1128593","0.0-7.0-0.0-5.0-0.14","a7146960b7573c6883b99ca757898095255fff6d193996258467b37f4acd6e60","swim","arctic","1162","","E10","6","","","","swim-engagement","","","","","","","","","","","","","","7","enjoyment","",""
"html-button-response","57","1131778","0.0-7.0-0.0-5.0-0.15","a7146960b7573c6883b99ca757898095255fff6d193996258467b37f4acd6e60","swim","arctic","2927","","A4","6","","","","swim-engagement","","","","","","","","","","","","","","7","absorption","",""
"html-button-response","58","1134491","0.0-7.0-0.0-5.0-0.16","a7146960b7573c6883b99ca757898095255fff6d193996258467b37f4acd6e60","swim","arctic","2452","","EE1","5","","","","swim-engagement","","","","","","","","","","","","","","6","emo-engage","",""
"html-button-response","59","1136512","0.0-7.0-0.0-5.0-0.17","a7146960b7573c6883b99ca757898095255fff6d193996258467b37f4acd6e60","swim","arctic","1761","","EE3","5","","","","swim-engagement","","","","","","","","","","","","","","6","emo-engage","",""
"html-keyboard-response","60","1175244","0.0-7.0-1.0","a7146960b7573c6883b99ca757898095255fff6d193996258467b37f4acd6e60","swim","arctic","38478","","<p>Thank you for your responses. You will now listen to the second story.</p><p>Remember, as you listen to the story you will see letters appear on the screen.</br>As quickly as possible, press <b>&lt;x&gt;</b> if the letter is lowercase and <b>&lt;m&gt;</b> if the letter is uppercase.</p><p>Press <b>&lt;x&gt;</b> or <b>&lt;m&gt;</b> to begin listening!</p>","","77","","","","","","","","","","","","","","","","","","","",""
"html-keyboard-response","61","1175747","0.0-7.0-2.0-0.0","a7146960b7573c6883b99ca757898095255fff6d193996258467b37f4acd6e60","swim","arctic","null","","<div style=""font-size:60px;"" tabindex=""0"">+</div>","","null","","","","","","","","","","","","","","","","","","","",""
"dual-task","null","null","null","","swim","arctic","1157.5","","t","null","88","88","1","arctic-dual-task","","t","lowercase","12000","0","6","a7146960b7573c6883b99ca757898095255fff6d193996258467b37f4acd6e60","11998.299999952316","1157.5","88","1","arctic","","","","",""
"dual-task","null","null","null","","swim","arctic","742.7999999523163","","G","null","77","77","1","arctic-dual-task","","G","uppercase","24000","0","6","a7146960b7573c6883b99ca757898095255fff6d193996258467b37f4acd6e60","24008.399999976158","742.7999999523163","77","1","arctic","","","","",""
"dual-task","null","null","null","","swim","arctic","552.6000000238419","","H","null","77","77","1","arctic-dual-task","","H","uppercase","36000","0","6","a7146960b7573c6883b99ca757898095255fff6d193996258467b37f4acd6e60","36007.69999998808","552.6000000238419","77","1","arctic","","","","",""
"dual-task","null","null","null","","swim","arctic","643","","Q","null","77","77","1","arctic-dual-task","","Q","uppercase","46000","0","6","a7146960b7573c6883b99ca757898095255fff6d193996258467b37f4acd6e60","46008","643","77","1","arctic","","","","",""
"dual-task","null","null","null","","swim","arctic","555.8000000119209","","e","null","88","88","1","arctic-dual-task","","e","lowercase","60000","0","6","a7146960b7573c6883b99ca757898095255fff6d193996258467b37f4acd6e60","59998.299999952316","555.8000000119209","88","1","arctic","","","","",""
"dual-task","null","null","null","","swim","arctic","790.5","","h","null","88","88","1","arctic-dual-task","","h","lowercase","70000","0","6","a7146960b7573c6883b99ca757898095255fff6d193996258467b37f4acd6e60","70010.19999998808","790.5","88","1","arctic","","","","",""
"dual-task","null","null","null","","swim","arctic","661.5","","a","null","88","88","1","arctic-dual-task","","a","lowercase","82000","0","6","a7146960b7573c6883b99ca757898095255fff6d193996258467b37f4acd6e60","82006.29999995232","661.5","88","1","arctic","","","","",""
"dual-task","null","null","null","","swim","arctic","556.7999999523163","","b","null","88","88","1","arctic-dual-task","","b","lowercase","92000","0","6","a7146960b7573c6883b99ca757898095255fff6d193996258467b37f4acd6e60","92002.79999995232","556.7999999523163","88","1","arctic","","","","",""
"dual-task","null","null","null","","swim","arctic","807.6000000238419","","Q","null","77","77","1","arctic-dual-task","","Q","uppercase","104000","0","6","a7146960b7573c6883b99ca757898095255fff6d193996258467b37f4acd6e60","104003","807.6000000238419","77","1","arctic","","","","",""
"dual-task","null","null","null","","swim","arctic","528.5","","B","null","77","77","1","arctic-dual-task","","B","uppercase","112000","0","6","a7146960b7573c6883b99ca757898095255fff6d193996258467b37f4acd6e60","112003.69999998808","528.5","77","1","arctic","","","","",""
"dual-task","null","null","null","","swim","arctic","499.10000002384186","","G","null","77","77","1","arctic-dual-task","","G","uppercase","120000","0","6","a7146960b7573c6883b99ca757898095255fff6d193996258467b37f4acd6e60","120002","499.10000002384186","77","1","arctic","","","","",""
"dual-task","null","null","null","","swim","arctic","622.2000000476837","","R","null","77","77","1","arctic-dual-task","","R","uppercase","130000","0","6","a7146960b7573c6883b99ca757898095255fff6d193996258467b37f4acd6e60","129996.79999995232","622.2000000476837","77","1","arctic","","","","",""
"dual-task","null","null","null","","swim","arctic","472.9000000357628","","D","null","77","77","1","arctic-dual-task","","D","uppercase","136000","0","6","a7146960b7573c6883b99ca757898095255fff6d193996258467b37f4acd6e60","136005.09999996424","472.9000000357628","77","1","arctic","","","","",""
"dual-task","null","null","null","","swim","arctic","727.3000000119209","","a","null","88","88","1","arctic-dual-task","","a","lowercase","144000","0","6","a7146960b7573c6883b99ca757898095255fff6d193996258467b37f4acd6e60","144006.5","727.3000000119209","88","1","arctic","","","","",""
"dual-task","null","null","null","","swim","arctic","610.1000000238419","","t","null","88","88","1","arctic-dual-task","","t","lowercase","158000","0","6","a7146960b7573c6883b99ca757898095255fff6d193996258467b37f4acd6e60","158005.39999997616","610.1000000238419","88","1","arctic","","","","",""
"dual-task","null","null","null","","swim","arctic","485.7000000476837","","r","null","88","88","1","arctic-dual-task","","r","lowercase","168000","0","6","a7146960b7573c6883b99ca757898095255fff6d193996258467b37f4acd6e60","168003.59999996424","485.7000000476837","88","1","arctic","","","","",""
"dual-task","null","null","null","","swim","arctic","673.6000000238419","","R","null","77","77","1","arctic-dual-task","","R","uppercase","178000","0","6","a7146960b7573c6883b99ca757898095255fff6d193996258467b37f4acd6e60","178014","673.6000000238419","77","1","arctic","","","","",""
"dual-task","null","null","null","","swim","arctic","639.1000000238419","","E","null","77","77","1","arctic-dual-task","","E","uppercase","188000","0","6","a7146960b7573c6883b99ca757898095255fff6d193996258467b37f4acd6e60","188011","639.1000000238419","77","1","arctic","","","","",""
"dual-task","null","null","null","","swim","arctic","554.3999999761581","","q","null","88","88","1","arctic-dual-task","","q","lowercase","202000","0","6","a7146960b7573c6883b99ca757898095255fff6d193996258467b37f4acd6e60","202002.59999996424","554.3999999761581","88","1","arctic","","","","",""
"dual-task","null","null","null","","swim","arctic","831.9000000357628","","N","null","77","77","1","arctic-dual-task","","N","uppercase","214000","0","6","a7146960b7573c6883b99ca757898095255fff6d193996258467b37f4acd6e60","214008.09999996424","831.9000000357628","77","1","arctic","","","","",""
"dual-task","null","null","null","","swim","arctic","584.1000000238419","","r","null","88","88","1","arctic-dual-task","","r","lowercase","220000","0","6","a7146960b7573c6883b99ca757898095255fff6d193996258467b37f4acd6e60","220003.69999998808","584.1000000238419","88","1","arctic","","","","",""
"dual-task","null","null","null","","swim","arctic","898.0999999642372","","B","null","77","77","1","arctic-dual-task","","B","uppercase","232000","0","6","a7146960b7573c6883b99ca757898095255fff6d193996258467b37f4acd6e60","231998.89999997616","898.0999999642372","77","1","arctic","","","","",""
"dual-task","null","null","null","","swim","arctic","748.5999999642372","","g","null","88","88","1","arctic-dual-task","","g","lowercase","240000","0","6","a7146960b7573c6883b99ca757898095255fff6d193996258467b37f4acd6e60","240014.89999997616","748.5999999642372","88","1","arctic","","","","",""
"dual-task","null","null","null","","swim","arctic","462.30000001192093","","T","null","77","77","1","arctic-dual-task","","T","uppercase","248000","0","6","a7146960b7573c6883b99ca757898095255fff6d193996258467b37f4acd6e60","248014.29999995232","462.30000001192093","77","1","arctic","","","","",""
"dual-task","null","null","null","","swim","arctic","575.6000000238419","","q","null","88","88","1","arctic-dual-task","","q","lowercase","258000","0","6","a7146960b7573c6883b99ca757898095255fff6d193996258467b37f4acd6e60","258000.69999998808","575.6000000238419","88","1","arctic","","","","",""
"dual-task","null","null","null","","swim","arctic","502.9000000357628","","A","null","77","77","1","arctic-dual-task","","A","uppercase","270000","0","6","a7146960b7573c6883b99ca757898095255fff6d193996258467b37f4acd6e60","270011.5","502.9000000357628","77","1","arctic","","","","",""
"dual-task","null","null","null","","swim","arctic","539.0999999642372","","e","null","88","88","1","arctic-dual-task","","e","lowercase","282000","0","6","a7146960b7573c6883b99ca757898095255fff6d193996258467b37f4acd6e60","281999.6999999881","539.0999999642372","88","1","arctic","","","","",""
"dual-task","null","null","null","","swim","arctic","670","","H","null","77","77","1","arctic-dual-task","","H","uppercase","292000","0","6","a7146960b7573c6883b99ca757898095255fff6d193996258467b37f4acd6e60","292000","670","77","1","arctic","","","","",""
"dual-task","null","null","null","","swim","arctic","579.3000000119209","","D","null","77","77","1","arctic-dual-task","","D","uppercase","300000","0","6","a7146960b7573c6883b99ca757898095255fff6d193996258467b37f4acd6e60","300007.6999999881","579.3000000119209","77","1","arctic","","","","",""
"dual-task","null","null","null","","swim","arctic","638.1000000238419","","B","null","77","77","1","arctic-dual-task","","B","uppercase","306000","0","6","a7146960b7573c6883b99ca757898095255fff6d193996258467b37f4acd6e60","306007.2999999523","638.1000000238419","77","1","arctic","","","","",""
"dual-task","null","null","null","","swim","arctic","574.5999999642372","","f","null","88","88","1","arctic-dual-task","","f","lowercase","312000","0","6","a7146960b7573c6883b99ca757898095255fff6d193996258467b37f4acd6e60","312016.5","574.5999999642372","88","1","arctic","","","","",""
"dual-task","null","null","null","","swim","arctic","486.5","","n","null","88","88","1","arctic-dual-task","","n","lowercase","318000","0","6","a7146960b7573c6883b99ca757898095255fff6d193996258467b37f4acd6e60","318006.39999997616","486.5","88","1","arctic","","","","",""
"dual-task","null","null","null","","swim","arctic","1198.5","","T","null","77","77","1","arctic-dual-task","","T","uppercase","332000","0","6","a7146960b7573c6883b99ca757898095255fff6d193996258467b37f4acd6e60","332011.5","1198.5","77","1","arctic","","","","",""
"dual-task","null","null","null","","swim","arctic","586.9000000357628","","T","null","77","77","1","arctic-dual-task","","T","uppercase","344000","0","6","a7146960b7573c6883b99ca757898095255fff6d193996258467b37f4acd6e60","344001.7999999523","586.9000000357628","77","1","arctic","","","","",""
"dual-task","null","null","null","","swim","arctic","471.5","","Q","null","77","77","1","arctic-dual-task","","Q","uppercase","350000","0","6","a7146960b7573c6883b99ca757898095255fff6d193996258467b37f4acd6e60","350008.5","471.5","77","1","arctic","","","","",""
"dual-task","null","null","null","","swim","arctic","644.3000000119209","","n","null","88","88","1","arctic-dual-task","","n","lowercase","356000","0","6","a7146960b7573c6883b99ca757898095255fff6d193996258467b37f4acd6e60","356008.7999999523","644.3000000119209","88","1","arctic","","","","",""
"dual-task","null","null","null","","swim","arctic","520","","F","null","77","77","1","arctic-dual-task","","F","uppercase","368000","0","6","a7146960b7573c6883b99ca757898095255fff6d193996258467b37f4acd6e60","368019.5","520","77","1","arctic","","","","",""
"dual-task","null","null","null","","swim","arctic","512.8999999761581","","a","null","88","88","1","arctic-dual-task","","a","lowercase","378000","0","6","a7146960b7573c6883b99ca757898095255fff6d193996258467b37f4acd6e60","378000.5","512.8999999761581","88","1","arctic","","","","",""
"dual-task","null","null","null","","swim","arctic","740.2000000476837","","r","null","88","88","1","arctic-dual-task","","r","lowercase","390000","0","6","a7146960b7573c6883b99ca757898095255fff6d193996258467b37f4acd6e60","390006","740.2000000476837","88","1","arctic","","","","",""
"dual-task","null","null","null","","swim","arctic","567.6999999880791","","D","null","77","77","1","arctic-dual-task","","D","uppercase","402000","0","6","a7146960b7573c6883b99ca757898095255fff6d193996258467b37f4acd6e60","402001.1999999881","567.6999999880791","77","1","arctic","","","","",""
"dual-task","null","null","null","","swim","arctic","668.5","","g","null","88","88","1","arctic-dual-task","","g","lowercase","408000","0","6","a7146960b7573c6883b99ca757898095255fff6d193996258467b37f4acd6e60","408004.1999999881","668.5","88","1","arctic","","","","",""
"dual-task","null","null","null","","swim","arctic","728.5","","R","null","77","77","1","arctic-dual-task","","R","uppercase","414000","0","6","a7146960b7573c6883b99ca757898095255fff6d193996258467b37f4acd6e60","414013.39999997616","728.5","77","1","arctic","","","","",""
"dual-task","null","null","null","","swim","arctic","799.1999999880791","","A","null","77","77","1","arctic-dual-task","","A","uppercase","428000","0","6","a7146960b7573c6883b99ca757898095255fff6d193996258467b37f4acd6e60","428004.6999999881","799.1999999880791","77","1","arctic","","","","",""
"dual-task","null","null","null","","swim","arctic","NA","","e","null","NA","88","0","arctic-dual-task","","e","lowercase","442000","1","6","a7146960b7573c6883b99ca757898095255fff6d193996258467b37f4acd6e60","442010","NA","NA","0","arctic","","","","",""
"dual-task","null","null","null","","swim","arctic","681.1999999880791","","q","null","88","88","1","arctic-dual-task","","q","lowercase","448000","0","6","a7146960b7573c6883b99ca757898095255fff6d193996258467b37f4acd6e60","448011","681.1999999880791","88","1","arctic","","","","",""
"dual-task","null","null","null","","swim","arctic","978.2000000476837","","R","null","77","77","1","arctic-dual-task","","R","uppercase","458000","0","6","a7146960b7573c6883b99ca757898095255fff6d193996258467b37f4acd6e60","458011.6999999881","978.2000000476837","77","1","arctic","","","","",""
"dual-task","null","null","null","","swim","arctic","828.5","","d","null","88","88","1","arctic-dual-task","","d","lowercase","468000","0","6","a7146960b7573c6883b99ca757898095255fff6d193996258467b37f4acd6e60","468013.59999996424","828.5","88","1","arctic","","","","",""
"dual-task","null","null","null","","swim","arctic","534.5","","f","null","88","88","1","arctic-dual-task","","f","lowercase","476000","0","6","a7146960b7573c6883b99ca757898095255fff6d193996258467b37f4acd6e60","476011.39999997616","534.5","88","1","arctic","","","","",""
"dual-task","null","null","null","","swim","arctic","866.5","","F","null","77","77","1","arctic-dual-task","","F","uppercase","486000","0","6","a7146960b7573c6883b99ca757898095255fff6d193996258467b37f4acd6e60","486013.59999996424","866.5","77","1","arctic","","","","",""
"dual-task","null","null","null","","swim","arctic","1932.800000011921","","n","null","88","88","1","arctic-dual-task","","n","lowercase","496000","0","6","a7146960b7573c6883b99ca757898095255fff6d193996258467b37f4acd6e60","496007.6999999881","1932.800000011921","88","1","arctic","","","","",""
"dual-task","null","null","null","","swim","arctic","501","","A","null","77","77","1","arctic-dual-task","","A","uppercase","506000","0","6","a7146960b7573c6883b99ca757898095255fff6d193996258467b37f4acd6e60","506004.09999996424","501","77","1","arctic","","","","",""
"dual-task","null","null","null","","swim","arctic","837","","E","null","77","77","1","arctic-dual-task","","E","uppercase","516000","0","6","a7146960b7573c6883b99ca757898095255fff6d193996258467b37f4acd6e60","516014.5","837","77","1","arctic","","","","",""
"dual-task","null","null","null","","swim","arctic","547.7999999523163","","t","null","88","88","1","arctic-dual-task","","t","lowercase","524000","0","6","a7146960b7573c6883b99ca757898095255fff6d193996258467b37f4acd6e60","524001.39999997616","547.7999999523163","88","1","arctic","","","","",""
"dual-task","null","null","null","","swim","arctic","411.30000001192093","","D","null","77","77","1","arctic-dual-task","","D","uppercase","532000","0","6","a7146960b7573c6883b99ca757898095255fff6d193996258467b37f4acd6e60","532015","411.30000001192093","77","1","arctic","","","","",""
"dual-task","null","null","null","","swim","arctic","543.6000000238419","","g","null","88","88","1","arctic-dual-task","","g","lowercase","540000","0","6","a7146960b7573c6883b99ca757898095255fff6d193996258467b37f4acd6e60","540013.3999999762","543.6000000238419","88","1","arctic","","","","",""
"dual-task","null","null","null","","swim","arctic","583.2999999523163","","b","null","88","88","1","arctic-dual-task","","b","lowercase","548000","0","6","a7146960b7573c6883b99ca757898095255fff6d193996258467b37f4acd6e60","548016.0999999642","583.2999999523163","88","1","arctic","","","","",""
"dual-task","null","null","null","","swim","arctic","584.3999999761581","","d","null","88","88","1","arctic-dual-task","","d","lowercase","558000","0","6","a7146960b7573c6883b99ca757898095255fff6d193996258467b37f4acd6e60","558005.7999999523","584.3999999761581","88","1","arctic","","","","",""
"dual-task","null","null","null","","swim","arctic","505.69999998807907","","E","null","77","77","1","arctic-dual-task","","E","uppercase","566000","0","6","a7146960b7573c6883b99ca757898095255fff6d193996258467b37f4acd6e60","566014.5","505.69999998807907","77","1","arctic","","","","",""
"dual-task","null","null","null","","swim","arctic","784","","H","null","77","77","1","arctic-dual-task","","H","uppercase","574000","0","6","a7146960b7573c6883b99ca757898095255fff6d193996258467b37f4acd6e60","574004.5","784","77","1","arctic","","","","",""
"dual-task","null","null","null","","swim","arctic","494","","F","null","77","77","1","arctic-dual-task","","F","uppercase","582000","0","6","a7146960b7573c6883b99ca757898095255fff6d193996258467b37f4acd6e60","582014.7999999523","494","77","1","arctic","","","","",""
"dual-task","null","null","null","","swim","arctic","640.3000000119209","","d","null","88","88","1","arctic-dual-task","","d","lowercase","588000","0","6","a7146960b7573c6883b99ca757898095255fff6d193996258467b37f4acd6e60","588009.8999999762","640.3000000119209","88","1","arctic","","","","",""
"dual-task","null","null","null","","swim","arctic","660.5","","b","null","77","88","0","arctic-dual-task","","b","lowercase","596000","0","6","a7146960b7573c6883b99ca757898095255fff6d193996258467b37f4acd6e60","596015.8999999762","660.5","77","0","arctic","","","","",""
"dual-task","null","null","null","","swim","arctic","515.3000000119209","","h","null","88","88","1","arctic-dual-task","","h","lowercase","606000","0","6","a7146960b7573c6883b99ca757898095255fff6d193996258467b37f4acd6e60","606016.7999999523","515.3000000119209","88","1","arctic","","","","",""
"dual-task","null","null","null","","swim","arctic","579.6000000238419","","G","null","77","77","1","arctic-dual-task","","G","uppercase","616000","0","6","a7146960b7573c6883b99ca757898095255fff6d193996258467b37f4acd6e60","616011.5","579.6000000238419","77","1","arctic","","","","",""
"dual-task","null","null","null","","swim","arctic","1111.300000011921","","r","null","88","88","1","arctic-dual-task","","r","lowercase","626000","0","6","a7146960b7573c6883b99ca757898095255fff6d193996258467b37f4acd6e60","626005.5","1111.300000011921","88","1","arctic","","","","",""
"dual-task","null","null","null","","swim","arctic","824.8999999761581","","f","null","88","88","1","arctic-dual-task","","f","lowercase","634000","0","6","a7146960b7573c6883b99ca757898095255fff6d193996258467b37f4acd6e60","634006.8999999762","824.8999999761581","88","1","arctic","","","","",""
"dual-task","null","null","null","","swim","arctic","485.9000000357628","","H","null","77","77","1","arctic-dual-task","","H","uppercase","640000","0","6","a7146960b7573c6883b99ca757898095255fff6d193996258467b37f4acd6e60","640027.0999999642","485.9000000357628","77","1","arctic","","","","",""
"dual-task","null","null","null","","swim","arctic","616.8000000119209","","g","null","88","88","1","arctic-dual-task","","g","lowercase","648000","0","6","a7146960b7573c6883b99ca757898095255fff6d193996258467b37f4acd6e60","648017.2999999523","616.8000000119209","88","1","arctic","","","","",""
"dual-task","null","null","null","","swim","arctic","537.5","","T","null","77","77","1","arctic-dual-task","","T","uppercase","660000","0","6","a7146960b7573c6883b99ca757898095255fff6d193996258467b37f4acd6e60","660007.8999999762","537.5","77","1","arctic","","","","",""
"dual-task","null","null","null","","swim","arctic","644","","a","null","88","88","1","arctic-dual-task","","a","lowercase","668000","0","6","a7146960b7573c6883b99ca757898095255fff6d193996258467b37f4acd6e60","668018.1999999881","644","88","1","arctic","","","","",""
"dual-task","null","null","null","","swim","arctic","561.6000000238419","","q","null","88","88","1","arctic-dual-task","","q","lowercase","676000","0","6","a7146960b7573c6883b99ca757898095255fff6d193996258467b37f4acd6e60","676011","561.6000000238419","88","1","arctic","","","","",""
"dual-task","null","null","null","","swim","arctic","670.1000000238419","","h","null","88","88","1","arctic-dual-task","","h","lowercase","686000","0","6","a7146960b7573c6883b99ca757898095255fff6d193996258467b37f4acd6e60","686020.5","670.1000000238419","88","1","arctic","","","","",""
"dual-task","null","null","null","","swim","arctic","541.8000000119209","","d","null","88","88","1","arctic-dual-task","","d","lowercase","692000","0","6","a7146960b7573c6883b99ca757898095255fff6d193996258467b37f4acd6e60","692009.0999999642","541.8000000119209","88","1","arctic","","","","",""
"dual-task","null","null","null","","swim","arctic","816.3000000119209","","Q","null","77","77","1","arctic-dual-task","","Q","uppercase","702000","0","6","a7146960b7573c6883b99ca757898095255fff6d193996258467b37f4acd6e60","702019","816.3000000119209","77","1","arctic","","","","",""
"dual-task","null","null","null","","swim","arctic","540.7000000476837","","n","null","88","88","1","arctic-dual-task","","n","lowercase","710000","0","6","a7146960b7573c6883b99ca757898095255fff6d193996258467b37f4acd6e60","710019.6999999881","540.7000000476837","88","1","arctic","","","","",""
"dual-task","null","null","null","","swim","arctic","782.5","","B","null","77","77","1","arctic-dual-task","","B","uppercase","716000","0","6","a7146960b7573c6883b99ca757898095255fff6d193996258467b37f4acd6e60","716019.0999999642","782.5","77","1","arctic","","","","",""
"dual-task","null","null","null","","swim","arctic","1228.699999988079","","t","null","88","88","1","arctic-dual-task","","t","lowercase","724000","0","6","a7146960b7573c6883b99ca757898095255fff6d193996258467b37f4acd6e60","724009.7999999523","1228.699999988079","88","1","arctic","","","","",""
"dual-task","null","null","null","","swim","arctic","731.7000000476837","","N","null","77","77","1","arctic-dual-task","","N","uppercase","732000","0","6","a7146960b7573c6883b99ca757898095255fff6d193996258467b37f4acd6e60","732013.1999999881","731.7000000476837","77","1","arctic","","","","",""
"dual-task","null","null","null","","swim","arctic","799.5","","f","null","88","88","1","arctic-dual-task","","f","lowercase","740000","0","6","a7146960b7573c6883b99ca757898095255fff6d193996258467b37f4acd6e60","740010.1999999881","799.5","88","1","arctic","","","","",""
"dual-task","null","null","null","","swim","arctic","516.8000000119209","","e","null","88","88","1","arctic-dual-task","","e","lowercase","748000","0","6","a7146960b7573c6883b99ca757898095255fff6d193996258467b37f4acd6e60","748007.1999999881","516.8000000119209","88","1","arctic","","","","",""
"dual-task","null","null","null","","swim","arctic","535.9000000357628","","G","null","77","77","1","arctic-dual-task","","G","uppercase","760000","0","6","a7146960b7573c6883b99ca757898095255fff6d193996258467b37f4acd6e60","760004.8999999762","535.9000000357628","77","1","arctic","","","","",""
"dual-task","null","null","null","","swim","arctic","556.6000000238419","","A","null","77","77","1","arctic-dual-task","","A","uppercase","770000","0","6","a7146960b7573c6883b99ca757898095255fff6d193996258467b37f4acd6e60","770001.7999999523","556.6000000238419","77","1","arctic","","","","",""
"dual-task","null","null","null","","swim","arctic","713.6000000238419","","h","null","88","88","1","arctic-dual-task","","h","lowercase","776000","0","6","a7146960b7573c6883b99ca757898095255fff6d193996258467b37f4acd6e60","776003.5999999642","713.6000000238419","88","1","arctic","","","","",""
"dual-task","null","null","null","","swim","arctic","473.30000001192093","","E","null","88","77","0","arctic-dual-task","","E","uppercase","790000","0","6","a7146960b7573c6883b99ca757898095255fff6d193996258467b37f4acd6e60","790012.8999999762","473.30000001192093","88","0","arctic","","","","",""
"audio-keyboard-response","62","1974292","0.0-7.0-2.0-1.0","a7146960b7573c6883b99ca757898095255fff6d193996258467b37f4acd6e60","swim","arctic","null","","audio/story_arctic_scrambled.mp3","","null","","","","","","","","","","","","","","","","","","","",""
"html-button-response","63","1977298","0.0-7.0-2.0-2.0","a7146960b7573c6883b99ca757898095255fff6d193996258467b37f4acd6e60","swim","arctic","2994","","<p>This concludes the story. Thank you for listening.</p><p>You will now answer some questions about the content of the story.</p>","0","","","","","","","","","","","","","","","","","","","","",""
"survey-multi-choice","64","1988071","0.0-7.0-2.0-3.0-0.0","a7146960b7573c6883b99ca757898095255fff6d193996258467b37f4acd6e60","swim","arctic","10761","","<b>What was the objective of the narrator&#39;s expedition?</b>","","","","1","arctic-comprehension","","","","","","","","","","","","","{""Q0"":""Dogsled across Arctic America""}","","","",""
"survey-multi-choice","65","1997144","0.0-7.0-2.0-3.0-0.1","a7146960b7573c6883b99ca757898095255fff6d193996258467b37f4acd6e60","swim","arctic","8781","","<b>How did the narrator&#39;s neighbour respond when she told him about her expedition?</b>","","","","1","arctic-comprehension","","","","","","","","","","","","","{""Q0"":""He said she was going to fail.""}","","","",""
"survey-multi-choice","66","2004142","0.0-7.0-2.0-3.0-0.2","a7146960b7573c6883b99ca757898095255fff6d193996258467b37f4acd6e60","swim","arctic","6685","","<b>What did the narrator do for leisure while in her tent?</b>","","","","0","arctic-comprehension","","","","","","","","","","","","","{""Q0"":""Take photos""}","","","",""
"survey-multi-choice","67","2011289","0.0-7.0-2.0-3.0-0.3","a7146960b7573c6883b99ca757898095255fff6d193996258467b37f4acd6e60","swim","arctic","6851","","<b>How did the narrator prepare for her expedition?</b>","","","","1","arctic-comprehension","","","","","","","","","","","","","{""Q0"":""Trained in Alaska learning how to dogsled""}","","","",""
"survey-multi-choice","68","2020501","0.0-7.0-2.0-3.0-0.4","a7146960b7573c6883b99ca757898095255fff6d193996258467b37f4acd6e60","swim","arctic","8916","","<b>What were the weather conditions in the Arctic like the winter of the narrator&#39;s expedition?</b>","","","","0","arctic-comprehension","","","","","","","","","","","","","{""Q0"":""It was the coldest winter in recorded history.""}","","","",""
"survey-multi-choice","69","2035044","0.0-7.0-2.0-3.0-0.5","a7146960b7573c6883b99ca757898095255fff6d193996258467b37f4acd6e60","swim","arctic","14246","","<b>How did the narrator&#39;s encounter with the polar bears end?</b>","","","","1","arctic-comprehension","","","","","","","","","","","","","{""Q0"":""The bears walked back to their den.""}","","","",""
"survey-multi-choice","70","2042954","0.0-7.0-2.0-3.0-0.6","a7146960b7573c6883b99ca757898095255fff6d193996258467b37f4acd6e60","swim","arctic","7634","","<b>Which dog on the narrator&#39;s dog team never followed instructions?</b>","","","","1","arctic-comprehension","","","","","","","","","","","","","{""Q0"":""Robert""}","","","",""
"survey-multi-choice","71","2053144","0.0-7.0-2.0-3.0-0.7","a7146960b7573c6883b99ca757898095255fff6d193996258467b37f4acd6e60","swim","arctic","9913","","<b>How many sponsorships did the narrator receive to support her expedition?</b>","","","","0","arctic-comprehension","","","","","","","","","","","","","{""Q0"":""One""}","","","",""
"survey-multi-choice","72","2058239","0.0-7.0-2.0-3.0-0.8","a7146960b7573c6883b99ca757898095255fff6d193996258467b37f4acd6e60","swim","arctic","4812","","<b>What is the name of the narrator&#39;s neighbour?</b>","","","","1","arctic-comprehension","","","","","","","","","","","","","{""Q0"":""Dave""}","","","",""
"survey-multi-choice","73","2066510","0.0-7.0-2.0-3.0-0.9","a7146960b7573c6883b99ca757898095255fff6d193996258467b37f4acd6e60","swim","arctic","7986","","<b>How did the dogs respond when they saw the bears?</b>","","","","1","arctic-comprehension","","","","","","","","","","","","","{""Q0"":""Approached them""}","","","",""
"html-button-response","74","2068345","0.0-7.0-2.0-4.0","a7146960b7573c6883b99ca757898095255fff6d193996258467b37f4acd6e60","swim","arctic","1577","","<p>Thank you for your responses.</p><p>You will now answer some questions about your impressions of the story.</p>","0","","","","","","","","","","","","","","","","","","","","",""
"html-button-response","75","2070232","0.0-7.0-2.0-5.0-0.0","a7146960b7573c6883b99ca757898095255fff6d193996258467b37f4acd6e60","swim","arctic","1883","","E8","0","","","","arctic-engagement","","","","","","","","","","","","","","1","enjoyment","",""
"html-button-response","76","2072934","0.0-7.0-2.0-5.0-0.1","a7146960b7573c6883b99ca757898095255fff6d193996258467b37f4acd6e60","swim","arctic","2442","","A5","0","","","","arctic-engagement","","","","","","","","","","","","","","1","absorption","",""
"html-button-response","77","2077081","0.0-7.0-2.0-5.0-0.2","a7146960b7573c6883b99ca757898095255fff6d193996258467b37f4acd6e60","swim","arctic","3888","","A2","3","","","","arctic-engagement","","","","","","","","","","","","","","4","absorption","",""
"html-button-response","78","2078948","0.0-7.0-2.0-5.0-0.3","a7146960b7573c6883b99ca757898095255fff6d193996258467b37f4acd6e60","swim","arctic","1605","","E10","0","","","","arctic-engagement","","","","","","","","","","","","","","1","enjoyment","",""
"html-button-response","79","2081725","0.0-7.0-2.0-5.0-0.4","a7146960b7573c6883b99ca757898095255fff6d193996258467b37f4acd6e60","swim","arctic","2519","","A1","0","","","","arctic-engagement","","","","","","","","","","","","","","1","absorption","",""
"html-button-response","80","2083785","0.0-7.0-2.0-5.0-0.5","a7146960b7573c6883b99ca757898095255fff6d193996258467b37f4acd6e60","swim","arctic","1796","","MS1","0","","","","arctic-engagement","","","","","","","","","","","","","","1","mental-sim","",""
"html-button-response","81","2087525","0.0-7.0-2.0-5.0-0.6","a7146960b7573c6883b99ca757898095255fff6d193996258467b37f4acd6e60","swim","arctic","3480","","MS3","2","","","","arctic-engagement","","","","","","","","","","","","","","3","mental-sim","",""
"html-button-response","82","2092180","0.0-7.0-2.0-5.0-0.7","a7146960b7573c6883b99ca757898095255fff6d193996258467b37f4acd6e60","swim","arctic","4392","","E1","1","","","","arctic-engagement","","","","","","","","","","","","","","2","enjoyment","",""
"html-button-response","83","2094798","0.0-7.0-2.0-5.0-0.8","a7146960b7573c6883b99ca757898095255fff6d193996258467b37f4acd6e60","swim","arctic","2351","","EE1","0","","","","arctic-engagement","","","","","","","","","","","","","","1","emo-engage","",""
"html-button-response","84","2096981","0.0-7.0-2.0-5.0-0.9","a7146960b7573c6883b99ca757898095255fff6d193996258467b37f4acd6e60","swim","arctic","1923","","E6","0","","","","arctic-engagement","","","","","","","","","","","","","","1","enjoyment","",""
"html-button-response","85","2098998","0.0-7.0-2.0-5.0-0.10","a7146960b7573c6883b99ca757898095255fff6d193996258467b37f4acd6e60","swim","arctic","1756","","MS2","0","","","","arctic-engagement","","","","","","","","","","","","","","1","mental-sim","",""
"html-button-response","86","2101327","0.0-7.0-2.0-5.0-0.11","a7146960b7573c6883b99ca757898095255fff6d193996258467b37f4acd6e60","swim","arctic","2067","","EE4","1","","","","arctic-engagement","","","","","","","","","","","","","","2","emo-engage","",""
"html-button-response","87","2102668","0.0-7.0-2.0-5.0-0.12","a7146960b7573c6883b99ca757898095255fff6d193996258467b37f4acd6e60","swim","arctic","1079","","EE3","0","","","","arctic-engagement","","","","","","","","","","","","","","1","emo-engage","",""
"html-button-response","88","2107045","0.0-7.0-2.0-5.0-0.13","a7146960b7573c6883b99ca757898095255fff6d193996258467b37f4acd6e60","swim","arctic","4117","","EE5","1","","","","arctic-engagement","","","","","","","","","","","","","","2","emo-engage","",""
"html-button-response","89","2108761","0.0-7.0-2.0-5.0-0.14","a7146960b7573c6883b99ca757898095255fff6d193996258467b37f4acd6e60","swim","arctic","1453","","A3","0","","","","arctic-engagement","","","","","","","","","","","","","","1","absorption","",""
"html-button-response","90","2111549","0.0-7.0-2.0-5.0-0.15","a7146960b7573c6883b99ca757898095255fff6d193996258467b37f4acd6e60","swim","arctic","2528","","EE2","2","","","","arctic-engagement","","","","","","","","","","","","","","3","emo-engage","",""
"html-button-response","91","2114434","0.0-7.0-2.0-5.0-0.16","a7146960b7573c6883b99ca757898095255fff6d193996258467b37f4acd6e60","swim","arctic","2621","","E7","1","","","","arctic-engagement","","","","","","","","","","","","","","2","enjoyment","",""
"html-button-response","92","2116648","0.0-7.0-2.0-5.0-0.17","a7146960b7573c6883b99ca757898095255fff6d193996258467b37f4acd6e60","swim","arctic","1956","","A4","0","","","","arctic-engagement","","","","","","","","","","","","","","1","absorption","",""
"html-button-response","93","2118500","0.0-8.0","a7146960b7573c6883b99ca757898095255fff6d193996258467b37f4acd6e60","swim","arctic","1596","","<p>Thank you for your responses.</p><p>You will now answer some demographic, hearing, and general health questions.</p>","0","","","","","","","","","","","","","","","","","","","","",""
"survey-multi-choice","94","2122254","0.0-9.0-0.0","a7146960b7573c6883b99ca757898095255fff6d193996258467b37f4acd6e60","swim","arctic","3733","","","","","","","survey","","","","","","","","","","","","","{""Q0"":""Chrome""}","","","browser",""
"survey-text","95","2126455","0.0-9.0-1.0","a7146960b7573c6883b99ca757898095255fff6d193996258467b37f4acd6e60","swim","arctic","3840.100000023842","","","","","","","survey","","","","","","","","","","","","","{""AGE"":""33""}","","","age","33"
"survey-multi-choice","96","2129275","0.0-9.0-2.0","a7146960b7573c6883b99ca757898095255fff6d193996258467b37f4acd6e60","swim","arctic","2519","","","","","","","survey","","","","","","","","","","","","","{""Q0"":""Female""}","","","gender","Female"
"survey-multi-choice","97","2132462","0.0-9.0-4.0","a7146960b7573c6883b99ca757898095255fff6d193996258467b37f4acd6e60","swim","arctic","2915","","","","","","","survey","","","","","","","","","","","","","{""Q0"":""Right""}","","","handedness","Right"
"survey-multi-choice","98","2136724","0.0-9.0-5.0","a7146960b7573c6883b99ca757898095255fff6d193996258467b37f4acd6e60","swim","arctic","4002","","","","","","","survey","","","","","","","","","","","","","{""Q0"":""Bachelor's Degree""}","","","education","Bachelor's Degree"
"survey-text","99","2145368","0.0-10.0-0.0","a7146960b7573c6883b99ca757898095255fff6d193996258467b37f4acd6e60","swim","arctic","8373.100000023842","","","","","","","survey","","","","","","","","","","","","","{""L1"":""english""}","","","first-language","english"
"survey-text","100","2155576","0.0-10.0-1.0","a7146960b7573c6883b99ca757898095255fff6d193996258467b37f4acd6e60","swim","arctic","9878.100000023842","","","","","","","survey","","","","","","","","","","","","","{""L2name"":"""",""L2fluency"":"""",""L3name"":"""",""L3fluency"":"""",""L4name"":"""",""L4fluency"":""""}","","","additional-languages","{""L2name"":"""",""L2fluency"":"""",""L3name"":"""",""L3fluency"":"""",""L4name"":"""",""L4fluency"":""""}"
"survey-multi-choice","101","2158537","0.0-10.0-2.0","a7146960b7573c6883b99ca757898095255fff6d193996258467b37f4acd6e60","swim","arctic","2686","","","","","","","survey","","","","","","","","","","","","","{""Q0"":""No""}","","","hearing-aid","No"
"survey-multi-choice","102","2161735","0.0-10.0-3.0","a7146960b7573c6883b99ca757898095255fff6d193996258467b37f4acd6e60","swim","arctic","2937","","","","","","","survey","","","","","","","","","","","","","{""Q0"":""Never""}","","","ringing-ears","Never"
"survey-multi-choice","103","2165191","0.0-10.0-5.0","a7146960b7573c6883b99ca757898095255fff6d193996258467b37f4acd6e60","swim","arctic","3193","","","","","","","survey","","","","","","","","","","","","","{""Q0"":""No""}","","","neuro-disease","No"
"survey-multi-choice","104","2169677","0.0-10.0-7.0","a7146960b7573c6883b99ca757898095255fff6d193996258467b37f4acd6e60","swim","arctic","4208","","","","","","","survey","","","","","","","","","","","","","{""Q0"":""No""}","","","take-meds","No"
"survey-text","105","2178805","0.0-10.0-9.0","a7146960b7573c6883b99ca757898095255fff6d193996258467b37f4acd6e60","swim","arctic","8191.199999988079","","","","","","","survey","","","","","","","","","","","","","{""HC"":""""}","","","health-concerns",""
"html-button-response","106","2182787","0.0-11.0-0.0","a7146960b7573c6883b99ca757898095255fff6d193996258467b37f4acd6e60","swim","arctic","3713","","<p>How would you describe your musical skills/experiences?</p>","4","","","","survey","","","","","","","","","","","","","","","","music-skill","5"
"survey-multi-choice","107","2185838","0.0-11.0-1.0","a7146960b7573c6883b99ca757898095255fff6d193996258467b37f4acd6e60","swim","arctic","2784","","","","","","","survey","","","","","","","","","","","","","{""Q0"":""Yes""}","","","music-instrument","Yes"
"survey-text","108","2200020","0.0-11.0-2.0-0.0","a7146960b7573c6883b99ca757898095255fff6d193996258467b37f4acd6e60","swim","arctic","13884.399999976158","","","","","","","survey","","","","","","","","","","","","","{""MEXP"":""23""}","","","music-training-yrs","23"
"html-button-response","109","2202192","0.0-12.0-0.0","a7146960b7573c6883b99ca757898095255fff6d193996258467b37f4acd6e60","swim","arctic","1912","","<p>How would you describe your general hearing abilities?</p>","5","","","","survey","","","","","","","","","","","","","","","","ssq-01","6"
"html-button-response","110","2208975","0.0-12.0-1.0","a7146960b7573c6883b99ca757898095255fff6d193996258467b37f4acd6e60","swim","arctic","6517","","<p>When you talk with someone at a place that strongly reverberates/echoes (e.g., in a church or train station),</br>can you understand what the person says?</p>","10","","","","survey","","","","","","","","","","","","","","","","ssq-02","10"
"html-button-response","111","2213330","0.0-12.0-2.0","a7146960b7573c6883b99ca757898095255fff6d193996258467b37f4acd6e60","swim","arctic","4093","","<p>When you are with a group (~5 people) in a lively restaurant, can you follow the group's conversation?</p>","10","","","","survey","","","","","","","","","","","","","","","","ssq-03","10"
"html-button-response","112","2219083","0.0-12.0-3.0","a7146960b7573c6883b99ca757898095255fff6d193996258467b37f4acd6e60","swim","arctic","5491","","<p>Based on the sound of a bus or truck, can you tell whether it is moving towards or away from you?</p>","9","","","","survey","","","","","","","","","","","","","","","","ssq-04","9"
"html-button-response","113","2222884","0.0-12.0-4.0","a7146960b7573c6883b99ca757898095255fff6d193996258467b37f4acd6e60","swim","arctic","3536","","<p>When you are in an unknown environment, can you tell from which direction a brief sound originates?</p>","10","","","","survey","","","","","","","","","","","","","","","","ssq-05","10"
"html-button-response","114","2229630","0.0-12.0-5.0","a7146960b7573c6883b99ca757898095255fff6d193996258467b37f4acd6e60","swim","arctic","6481","","<p>Are you able to ignore distracting sounds when you concentrate on a specific aspect of your acoustic surrounding?</p>","8","","","","survey","","","","","","","","","","","","","","","","ssq-06","8"
"fullscreen","115","2230941","0.0-13.0","a7146960b7573c6883b99ca757898095255fff6d193996258467b37f4acd6e60","swim","arctic","","","","","","","","","true","","","","","","","","","","","","","","","",""
