"trial_type","trial_index","time_elapsed","internal_node_id","ParticipantID","firstStory","scramStory","rt","url","stimulus","button_pressed","key_press","correctRESP","correct","designation","success","letterStim","letterType","ONSET","TIMEOUT","CONDITION","Participant","ONSET_ACTUAL","RT","RESP","ACC","STORY","responses","response","type","surveyQuestion","QRESP"
"pavlovia","0","5","0.0-0.0","01d92d17ed0ea9d99d2bac6381808c7ee69318be66dd3daf29c6bf4568786f8d","arctic","arctic","","","","","","","","","","","","","","","","","","","","","","","","",""
"external-html","1","91800","0.0-1.0","01d92d17ed0ea9d99d2bac6381808c7ee69318be66dd3daf29c6bf4568786f8d","arctic","arctic","91588","consent/consent_updated.html","","","","","","","","","","","","","","","","","","","","","","",""
"html-button-response","2","99992","0.0-2.0-0.0","01d92d17ed0ea9d99d2bac6381808c7ee69318be66dd3daf29c6bf4568786f8d","arctic","arctic","8191","","<p>Before we begin the main task, you will complete a short volume calibration and headphone check.</p><p>Please make sure you are in a quiet listening environment, that you are wearing headphones, and that your computer's volume is turned on.<p></p>","0","","","","","","","","","","","","","","","","","","","","",""
"html-button-response","3","102863","0.0-2.0-1.0","01d92d17ed0ea9d99d2bac6381808c7ee69318be66dd3daf29c6bf4568786f8d","arctic","arctic","2620","","<p>The volume calibration will be first.</p><p>You will hear a thirty-second noise. Please adjust your computer's volume so that this noise is being presented at a comfortable level.<p></p>","0","","","","","","","","","","","","","","","","","","","","",""
"audio-button-response","4","110775","0.0-2.0-2.0","01d92d17ed0ea9d99d2bac6381808c7ee69318be66dd3daf29c6bf4568786f8d","arctic","arctic","7660","","audio/volumetest.mp3","0","","","","","","","","","","","","","","","","","","","","",""
"html-keyboard-response","5","119919","0.0-3.0-0.0","01d92d17ed0ea9d99d2bac6381808c7ee69318be66dd3daf29c6bf4568786f8d","arctic","arctic","9142","","<p>You will now complete a short headphone check.</p><p>On each trial, you will hear three tones. One of these tones will be quieter than the others. Your task is to identify whether the quiet tone occurred first, second, or third.</p><p>There are six trials in total.<p></p><p></p>(Press SPACEBAR to begin)","","32","","","","","","","","","","","","","","","","","","","",""
"html-keyboard-response","6","120693","0.0-3.0-1.0-0.0","01d92d17ed0ea9d99d2bac6381808c7ee69318be66dd3daf29c6bf4568786f8d","arctic","arctic","null","","<div style=""font-size:60px;"">+</div>","","null","","","","","","","","","","","","","","","","","","","",""
"audio-button-response","7","125343","0.0-3.0-1.0-1.0","01d92d17ed0ea9d99d2bac6381808c7ee69318be66dd3daf29c6bf4568786f8d","arctic","arctic","4648","","audio/t1_1.mp3","0","","0","1","headphone-test","","","","","","","","","","","","","","","","",""
"html-keyboard-response","8","125847","0.0-3.0-1.0-2.0","01d92d17ed0ea9d99d2bac6381808c7ee69318be66dd3daf29c6bf4568786f8d","arctic","arctic","null","","<p>Correct</p>","","null","","","","","","","","","","","","","","","","","","","",""
"html-keyboard-response","9","126358","0.0-3.0-1.0-0.1","01d92d17ed0ea9d99d2bac6381808c7ee69318be66dd3daf29c6bf4568786f8d","arctic","arctic","null","","<div style=""font-size:60px;"">+</div>","","null","","","","","","","","","","","","","","","","","","","",""
"audio-button-response","10","130871","0.0-3.0-1.0-1.1","01d92d17ed0ea9d99d2bac6381808c7ee69318be66dd3daf29c6bf4568786f8d","arctic","arctic","4512","","audio/t1_2.mp3","0","","0","1","headphone-test","","","","","","","","","","","","","","","","",""
"html-keyboard-response","11","131373","0.0-3.0-1.0-2.1","01d92d17ed0ea9d99d2bac6381808c7ee69318be66dd3daf29c6bf4568786f8d","arctic","arctic","null","","<p>Correct</p>","","null","","","","","","","","","","","","","","","","","","","",""
"html-keyboard-response","12","131880","0.0-3.0-1.0-0.2","01d92d17ed0ea9d99d2bac6381808c7ee69318be66dd3daf29c6bf4568786f8d","arctic","arctic","null","","<div style=""font-size:60px;"">+</div>","","null","","","","","","","","","","","","","","","","","","","",""
"audio-button-response","13","136360","0.0-3.0-1.0-1.2","01d92d17ed0ea9d99d2bac6381808c7ee69318be66dd3daf29c6bf4568786f8d","arctic","arctic","4478","","audio/t3_2.mp3","2","","2","1","headphone-test","","","","","","","","","","","","","","","","",""
"html-keyboard-response","14","136869","0.0-3.0-1.0-2.2","01d92d17ed0ea9d99d2bac6381808c7ee69318be66dd3daf29c6bf4568786f8d","arctic","arctic","null","","<p>Correct</p>","","null","","","","","","","","","","","","","","","","","","","",""
"html-keyboard-response","15","137384","0.0-3.0-1.0-0.3","01d92d17ed0ea9d99d2bac6381808c7ee69318be66dd3daf29c6bf4568786f8d","arctic","arctic","null","","<div style=""font-size:60px;"">+</div>","","null","","","","","","","","","","","","","","","","","","","",""
"audio-button-response","16","141695","0.0-3.0-1.0-1.3","01d92d17ed0ea9d99d2bac6381808c7ee69318be66dd3daf29c6bf4568786f8d","arctic","arctic","4310","","audio/t2_1.mp3","1","","1","1","headphone-test","","","","","","","","","","","","","","","","",""
"html-keyboard-response","17","142196","0.0-3.0-1.0-2.3","01d92d17ed0ea9d99d2bac6381808c7ee69318be66dd3daf29c6bf4568786f8d","arctic","arctic","null","","<p>Correct</p>","","null","","","","","","","","","","","","","","","","","","","",""
"html-keyboard-response","18","142699","0.0-3.0-1.0-0.4","01d92d17ed0ea9d99d2bac6381808c7ee69318be66dd3daf29c6bf4568786f8d","arctic","arctic","null","","<div style=""font-size:60px;"">+</div>","","null","","","","","","","","","","","","","","","","","","","",""
"audio-button-response","19","147079","0.0-3.0-1.0-1.4","01d92d17ed0ea9d99d2bac6381808c7ee69318be66dd3daf29c6bf4568786f8d","arctic","arctic","4378","","audio/t3_1.mp3","2","","2","1","headphone-test","","","","","","","","","","","","","","","","",""
"html-keyboard-response","20","147587","0.0-3.0-1.0-2.4","01d92d17ed0ea9d99d2bac6381808c7ee69318be66dd3daf29c6bf4568786f8d","arctic","arctic","null","","<p>Correct</p>","","null","","","","","","","","","","","","","","","","","","","",""
"html-keyboard-response","21","148101","0.0-3.0-1.0-0.5","01d92d17ed0ea9d99d2bac6381808c7ee69318be66dd3daf29c6bf4568786f8d","arctic","arctic","null","","<div style=""font-size:60px;"">+</div>","","null","","","","","","","","","","","","","","","","","","","",""
"audio-button-response","22","152663","0.0-3.0-1.0-1.5","01d92d17ed0ea9d99d2bac6381808c7ee69318be66dd3daf29c6bf4568786f8d","arctic","arctic","4560","","audio/t2_2.mp3","1","","1","1","headphone-test","","","","","","","","","","","","","","","","",""
"html-keyboard-response","23","153175","0.0-3.0-1.0-2.5","01d92d17ed0ea9d99d2bac6381808c7ee69318be66dd3daf29c6bf4568786f8d","arctic","arctic","null","","<p>Correct</p>","","null","","","","","","","","","","","","","","","","","","","",""
"fullscreen","24","158608","0.0-4.0","01d92d17ed0ea9d99d2bac6381808c7ee69318be66dd3daf29c6bf4568786f8d","arctic","arctic","","","","","","","","","true","","","","","","","","","","","","","","","",""
"html-button-response","25","164574","0.0-5.0-0.0","01d92d17ed0ea9d99d2bac6381808c7ee69318be66dd3daf29c6bf4568786f8d","arctic","arctic","5966","","<p>There are two blocks to this experiment.</p><p>In each block, you will hear a ~13.5 minute story. One of the stories will be scrambled. Please listen carefully to both stories and understand them as best you can.</p><p>After each story, you will be asked some questions to assess your comprehension.</p>","0","","","","","","","","","","","","","","","","","","","","",""
"html-button-response","26","237088","0.0-5.0-1.0","01d92d17ed0ea9d99d2bac6381808c7ee69318be66dd3daf29c6bf4568786f8d","arctic","arctic","72511","","<p>During each story, there will be an additional task.</p><p>A letter will occasionally appear on the screen.</br>Your job is to - as quickly as you can - decide whether the letter is lowercase or uppercase and press one of two keys on the keyboard:</p><p>If the letter is <b>lowercase</b>, press key &lt;<b>x</b>&gt;.</p><p>If the letter is <b>uppercase</b>, press key &lt;<b>m</b>&gt;.</p>","0","","","","","","","","","","","","","","","","","","","","",""
"html-keyboard-response","27","245934","0.0-5.0-2.0","01d92d17ed0ea9d99d2bac6381808c7ee69318be66dd3daf29c6bf4568786f8d","arctic","arctic","8845","","<p>Because we want your responses to be as quick as possible, please keep your index fingers over the keys while listening.</p><p>Each block lasts about 20 minutes.</p><p><b>Press &lt;x&gt; or &lt;m&gt; to start the first block!</b></p>","","77","","","","","","","","","","","","","","","","","","","",""
"html-keyboard-response","28","246436","0.0-6.0-0.0-0.0","01d92d17ed0ea9d99d2bac6381808c7ee69318be66dd3daf29c6bf4568786f8d","arctic","arctic","null","","<div style=""font-size:60px;"" tabindex=""0"">+</div>","","null","","","","","","","","","","","","","","","","","","","",""
"dual-task","null","null","null","","arctic","arctic","1010.6000000014901","","h","null","88","88","1","arctic-dual-task","","h","lowercase","10000","0","1","01d92d17ed0ea9d99d2bac6381808c7ee69318be66dd3daf29c6bf4568786f8d","10000.5","1010.6000000014901","88","1","arctic","","","","",""
"dual-task","null","null","null","","arctic","arctic","973.6000000014901","","T","null","88","77","0","arctic-dual-task","","T","uppercase","24000","0","1","01d92d17ed0ea9d99d2bac6381808c7ee69318be66dd3daf29c6bf4568786f8d","24005.599999997765","973.6000000014901","88","0","arctic","","","","",""
"dual-task","null","null","null","","arctic","arctic","544.3000000007451","","A","null","77","77","1","arctic-dual-task","","A","uppercase","34000","0","1","01d92d17ed0ea9d99d2bac6381808c7ee69318be66dd3daf29c6bf4568786f8d","34016.39999999851","544.3000000007451","77","1","arctic","","","","",""
"dual-task","null","null","null","","arctic","arctic","556.1999999992549","","d","null","88","88","1","arctic-dual-task","","d","lowercase","44000","0","1","01d92d17ed0ea9d99d2bac6381808c7ee69318be66dd3daf29c6bf4568786f8d","44004.300000000745","556.1999999992549","88","1","arctic","","","","",""
"dual-task","null","null","null","","arctic","arctic","581.3000000007451","","T","null","77","77","1","arctic-dual-task","","T","uppercase","56000","0","1","01d92d17ed0ea9d99d2bac6381808c7ee69318be66dd3daf29c6bf4568786f8d","56009.800000000745","581.3000000007451","77","1","arctic","","","","",""
"dual-task","null","null","null","","arctic","arctic","644.5999999977648","","Q","null","77","77","1","arctic-dual-task","","Q","uppercase","64000","0","1","01d92d17ed0ea9d99d2bac6381808c7ee69318be66dd3daf29c6bf4568786f8d","64010.099999997765","644.5999999977648","77","1","arctic","","","","",""
"dual-task","null","null","null","","arctic","arctic","569.6000000014901","","E","null","77","77","1","arctic-dual-task","","E","uppercase","76000","0","1","01d92d17ed0ea9d99d2bac6381808c7ee69318be66dd3daf29c6bf4568786f8d","76002.80000000075","569.6000000014901","77","1","arctic","","","","",""
"dual-task","null","null","null","","arctic","arctic","609","","t","null","88","88","1","arctic-dual-task","","t","lowercase","86000","0","1","01d92d17ed0ea9d99d2bac6381808c7ee69318be66dd3daf29c6bf4568786f8d","86010.19999999925","609","88","1","arctic","","","","",""
"dual-task","null","null","null","","arctic","arctic","628.3000000007451","","B","null","77","77","1","arctic-dual-task","","B","uppercase","100000","0","1","01d92d17ed0ea9d99d2bac6381808c7ee69318be66dd3daf29c6bf4568786f8d","100004.69999999925","628.3000000007451","77","1","arctic","","","","",""
"dual-task","null","null","null","","arctic","arctic","635.6000000014901","","R","null","77","77","1","arctic-dual-task","","R","uppercase","110000","0","1","01d92d17ed0ea9d99d2bac6381808c7ee69318be66dd3daf29c6bf4568786f8d","110012.19999999925","635.6000000014901","77","1","arctic","","","","",""
"dual-task","null","null","null","","arctic","arctic","566.8999999985099","","H","null","77","77","1","arctic-dual-task","","H","uppercase","122000","0","1","01d92d17ed0ea9d99d2bac6381808c7ee69318be66dd3daf29c6bf4568786f8d","122000.30000000075","566.8999999985099","77","1","arctic","","","","",""
"dual-task","null","null","null","","arctic","arctic","557.8999999985099","","e","null","88","88","1","arctic-dual-task","","e","lowercase","128000","0","1","01d92d17ed0ea9d99d2bac6381808c7ee69318be66dd3daf29c6bf4568786f8d","128007.09999999776","557.8999999985099","88","1","arctic","","","","",""
"dual-task","null","null","null","","arctic","arctic","499.3999999985099","","G","null","77","77","1","arctic-dual-task","","G","uppercase","140000","0","1","01d92d17ed0ea9d99d2bac6381808c7ee69318be66dd3daf29c6bf4568786f8d","140002.3999999985","499.3999999985099","77","1","arctic","","","","",""
"dual-task","null","null","null","","arctic","arctic","593.5","","D","null","77","77","1","arctic-dual-task","","D","uppercase","152000","0","1","01d92d17ed0ea9d99d2bac6381808c7ee69318be66dd3daf29c6bf4568786f8d","152001.09999999776","593.5","77","1","arctic","","","","",""
"dual-task","null","null","null","","arctic","arctic","618.8000000007451","","b","null","88","88","1","arctic-dual-task","","b","lowercase","160000","0","1","01d92d17ed0ea9d99d2bac6381808c7ee69318be66dd3daf29c6bf4568786f8d","160004.8999999985","618.8000000007451","88","1","arctic","","","","",""
"dual-task","null","null","null","","arctic","arctic","484.9000000022352","","H","null","77","77","1","arctic-dual-task","","H","uppercase","172000","0","1","01d92d17ed0ea9d99d2bac6381808c7ee69318be66dd3daf29c6bf4568786f8d","172011.8999999985","484.9000000022352","77","1","arctic","","","","",""
"dual-task","null","null","null","","arctic","arctic","586.1999999992549","","a","null","88","88","1","arctic-dual-task","","a","lowercase","180000","0","1","01d92d17ed0ea9d99d2bac6381808c7ee69318be66dd3daf29c6bf4568786f8d","180000.8999999985","586.1999999992549","88","1","arctic","","","","",""
"dual-task","null","null","null","","arctic","arctic","598.3000000007451","","t","null","88","88","1","arctic-dual-task","","t","lowercase","188000","0","1","01d92d17ed0ea9d99d2bac6381808c7ee69318be66dd3daf29c6bf4568786f8d","188007.8999999985","598.3000000007451","88","1","arctic","","","","",""
"dual-task","null","null","null","","arctic","arctic","538.6000000014901","","H","null","77","77","1","arctic-dual-task","","H","uppercase","196000","0","1","01d92d17ed0ea9d99d2bac6381808c7ee69318be66dd3daf29c6bf4568786f8d","196001.30000000075","538.6000000014901","77","1","arctic","","","","",""
"dual-task","null","null","null","","arctic","arctic","515.3999999985099","","g","null","88","88","1","arctic-dual-task","","g","lowercase","208000","0","1","01d92d17ed0ea9d99d2bac6381808c7ee69318be66dd3daf29c6bf4568786f8d","208007.3999999985","515.3999999985099","88","1","arctic","","","","",""
"dual-task","null","null","null","","arctic","arctic","547.3999999985099","","F","null","77","77","1","arctic-dual-task","","F","uppercase","218000","0","1","01d92d17ed0ea9d99d2bac6381808c7ee69318be66dd3daf29c6bf4568786f8d","218004.5","547.3999999985099","77","1","arctic","","","","",""
"dual-task","null","null","null","","arctic","arctic","593.8000000007451","","f","null","88","88","1","arctic-dual-task","","f","lowercase","228000","0","1","01d92d17ed0ea9d99d2bac6381808c7ee69318be66dd3daf29c6bf4568786f8d","228003.3999999985","593.8000000007451","88","1","arctic","","","","",""
"dual-task","null","null","null","","arctic","arctic","545.6999999992549","","N","null","77","77","1","arctic-dual-task","","N","uppercase","242000","0","1","01d92d17ed0ea9d99d2bac6381808c7ee69318be66dd3daf29c6bf4568786f8d","242002.69999999925","545.6999999992549","77","1","arctic","","","","",""
"dual-task","null","null","null","","arctic","arctic","555.7999999970198","","F","null","77","77","1","arctic-dual-task","","F","uppercase","254000","0","1","01d92d17ed0ea9d99d2bac6381808c7ee69318be66dd3daf29c6bf4568786f8d","254008.19999999925","555.7999999970198","77","1","arctic","","","","",""
"dual-task","null","null","null","","arctic","arctic","589.3999999985099","","b","null","88","88","1","arctic-dual-task","","b","lowercase","260000","0","1","01d92d17ed0ea9d99d2bac6381808c7ee69318be66dd3daf29c6bf4568786f8d","260003","589.3999999985099","88","1","arctic","","","","",""
"dual-task","null","null","null","","arctic","arctic","410.5","","B","null","77","77","1","arctic-dual-task","","B","uppercase","270000","0","1","01d92d17ed0ea9d99d2bac6381808c7ee69318be66dd3daf29c6bf4568786f8d","270008.09999999776","410.5","77","1","arctic","","","","",""
"dual-task","null","null","null","","arctic","arctic","501.4000000022352","","R","null","77","77","1","arctic-dual-task","","R","uppercase","282000","0","1","01d92d17ed0ea9d99d2bac6381808c7ee69318be66dd3daf29c6bf4568786f8d","282010.09999999776","501.4000000022352","77","1","arctic","","","","",""
"dual-task","null","null","null","","arctic","arctic","553","","a","null","88","88","1","arctic-dual-task","","a","lowercase","290000","0","1","01d92d17ed0ea9d99d2bac6381808c7ee69318be66dd3daf29c6bf4568786f8d","290006.5","553","88","1","arctic","","","","",""
"dual-task","null","null","null","","arctic","arctic","649.6000000014901","","f","null","88","88","1","arctic-dual-task","","f","lowercase","300000","0","1","01d92d17ed0ea9d99d2bac6381808c7ee69318be66dd3daf29c6bf4568786f8d","300004.09999999776","649.6000000014901","88","1","arctic","","","","",""
"dual-task","null","null","null","","arctic","arctic","498.5","","G","null","77","77","1","arctic-dual-task","","G","uppercase","312000","0","1","01d92d17ed0ea9d99d2bac6381808c7ee69318be66dd3daf29c6bf4568786f8d","312008.09999999776","498.5","77","1","arctic","","","","",""
"dual-task","null","null","null","","arctic","arctic","564.9000000022352","","a","null","88","88","1","arctic-dual-task","","a","lowercase","320000","0","1","01d92d17ed0ea9d99d2bac6381808c7ee69318be66dd3daf29c6bf4568786f8d","320006.80000000075","564.9000000022352","88","1","arctic","","","","",""
"dual-task","null","null","null","","arctic","arctic","581.8000000007451","","N","null","77","77","1","arctic-dual-task","","N","uppercase","332000","0","1","01d92d17ed0ea9d99d2bac6381808c7ee69318be66dd3daf29c6bf4568786f8d","332004.3999999985","581.8000000007451","77","1","arctic","","","","",""
"dual-task","null","null","null","","arctic","arctic","702.3999999985099","","e","null","88","88","1","arctic-dual-task","","e","lowercase","340000","0","1","01d92d17ed0ea9d99d2bac6381808c7ee69318be66dd3daf29c6bf4568786f8d","340009.30000000075","702.3999999985099","88","1","arctic","","","","",""
"dual-task","null","null","null","","arctic","arctic","538.5","","E","null","77","77","1","arctic-dual-task","","E","uppercase","352000","0","1","01d92d17ed0ea9d99d2bac6381808c7ee69318be66dd3daf29c6bf4568786f8d","352013","538.5","77","1","arctic","","","","",""
"dual-task","null","null","null","","arctic","arctic","528.3000000007451","","A","null","77","77","1","arctic-dual-task","","A","uppercase","360000","0","1","01d92d17ed0ea9d99d2bac6381808c7ee69318be66dd3daf29c6bf4568786f8d","360005","528.3000000007451","77","1","arctic","","","","",""
"dual-task","null","null","null","","arctic","arctic","642.9000000022352","","q","null","88","88","1","arctic-dual-task","","q","lowercase","368000","0","1","01d92d17ed0ea9d99d2bac6381808c7ee69318be66dd3daf29c6bf4568786f8d","368001.19999999925","642.9000000022352","88","1","arctic","","","","",""
"dual-task","null","null","null","","arctic","arctic","535.2000000029802","","d","null","88","88","1","arctic-dual-task","","d","lowercase","382000","0","1","01d92d17ed0ea9d99d2bac6381808c7ee69318be66dd3daf29c6bf4568786f8d","382013.3999999985","535.2000000029802","88","1","arctic","","","","",""
"dual-task","null","null","null","","arctic","arctic","1801.6000000014901","","B","null","77","77","1","arctic-dual-task","","B","uppercase","396000","0","1","01d92d17ed0ea9d99d2bac6381808c7ee69318be66dd3daf29c6bf4568786f8d","396008.09999999776","1801.6000000014901","77","1","arctic","","","","",""
"dual-task","null","null","null","","arctic","arctic","589.4000000022352","","n","null","88","88","1","arctic-dual-task","","n","lowercase","406000","0","1","01d92d17ed0ea9d99d2bac6381808c7ee69318be66dd3daf29c6bf4568786f8d","406003.80000000075","589.4000000022352","88","1","arctic","","","","",""
"dual-task","null","null","null","","arctic","arctic","517.1999999992549","","T","null","77","77","1","arctic-dual-task","","T","uppercase","414000","0","1","01d92d17ed0ea9d99d2bac6381808c7ee69318be66dd3daf29c6bf4568786f8d","414009.59999999776","517.1999999992549","77","1","arctic","","","","",""
"dual-task","null","null","null","","arctic","arctic","525.3000000007451","","A","null","77","77","1","arctic-dual-task","","A","uppercase","422000","0","1","01d92d17ed0ea9d99d2bac6381808c7ee69318be66dd3daf29c6bf4568786f8d","422000.80000000075","525.3000000007451","77","1","arctic","","","","",""
"dual-task","null","null","null","","arctic","arctic","569.2000000029802","","h","null","88","88","1","arctic-dual-task","","h","lowercase","432000","0","1","01d92d17ed0ea9d99d2bac6381808c7ee69318be66dd3daf29c6bf4568786f8d","432004.5","569.2000000029802","88","1","arctic","","","","",""
"dual-task","null","null","null","","arctic","arctic","515.9000000022352","","R","null","77","77","1","arctic-dual-task","","R","uppercase","440000","0","1","01d92d17ed0ea9d99d2bac6381808c7ee69318be66dd3daf29c6bf4568786f8d","440006.59999999776","515.9000000022352","77","1","arctic","","","","",""
"dual-task","null","null","null","","arctic","arctic","561.0999999977648","","e","null","88","88","1","arctic-dual-task","","e","lowercase","454000","0","1","01d92d17ed0ea9d99d2bac6381808c7ee69318be66dd3daf29c6bf4568786f8d","454007.8999999985","561.0999999977648","88","1","arctic","","","","",""
"dual-task","null","null","null","","arctic","arctic","538.8000000007451","","D","null","77","77","1","arctic-dual-task","","D","uppercase","462000","0","1","01d92d17ed0ea9d99d2bac6381808c7ee69318be66dd3daf29c6bf4568786f8d","462014.09999999776","538.8000000007451","77","1","arctic","","","","",""
"dual-task","null","null","null","","arctic","arctic","649.8000000007451","","r","null","88","88","1","arctic-dual-task","","r","lowercase","472000","0","1","01d92d17ed0ea9d99d2bac6381808c7ee69318be66dd3daf29c6bf4568786f8d","472013.80000000075","649.8000000007451","88","1","arctic","","","","",""
"dual-task","null","null","null","","arctic","arctic","607.0999999977648","","A","null","77","77","1","arctic-dual-task","","A","uppercase","480000","0","1","01d92d17ed0ea9d99d2bac6381808c7ee69318be66dd3daf29c6bf4568786f8d","480008.5","607.0999999977648","77","1","arctic","","","","",""
"dual-task","null","null","null","","arctic","arctic","642.3000000007451","","T","null","77","77","1","arctic-dual-task","","T","uppercase","486000","0","1","01d92d17ed0ea9d99d2bac6381808c7ee69318be66dd3daf29c6bf4568786f8d","486003.80000000075","642.3000000007451","77","1","arctic","","","","",""
"dual-task","null","null","null","","arctic","arctic","605.8000000007451","","r","null","88","88","1","arctic-dual-task","","r","lowercase","496000","0","1","01d92d17ed0ea9d99d2bac6381808c7ee69318be66dd3daf29c6bf4568786f8d","496006.3999999985","605.8000000007451","88","1","arctic","","","","",""
"dual-task","null","null","null","","arctic","arctic","511.79999999701977","","D","null","77","77","1","arctic-dual-task","","D","uppercase","508000","0","1","01d92d17ed0ea9d99d2bac6381808c7ee69318be66dd3daf29c6bf4568786f8d","508003.19999999925","511.79999999701977","77","1","arctic","","","","",""
"dual-task","null","null","null","","arctic","arctic","685.1999999992549","","d","null","88","88","1","arctic-dual-task","","d","lowercase","514000","0","1","01d92d17ed0ea9d99d2bac6381808c7ee69318be66dd3daf29c6bf4568786f8d","514002.5","685.1999999992549","88","1","arctic","","","","",""
"dual-task","null","null","null","","arctic","arctic","604","","Q","null","77","77","1","arctic-dual-task","","Q","uppercase","520000","0","1","01d92d17ed0ea9d99d2bac6381808c7ee69318be66dd3daf29c6bf4568786f8d","520006.3999999985","604","77","1","arctic","","","","",""
"dual-task","null","null","null","","arctic","arctic","705.5999999977648","","h","null","88","88","1","arctic-dual-task","","h","lowercase","530000","0","1","01d92d17ed0ea9d99d2bac6381808c7ee69318be66dd3daf29c6bf4568786f8d","530014","705.5999999977648","88","1","arctic","","","","",""
"dual-task","null","null","null","","arctic","arctic","559.7999999970198","","b","null","88","88","1","arctic-dual-task","","b","lowercase","542000","0","1","01d92d17ed0ea9d99d2bac6381808c7ee69318be66dd3daf29c6bf4568786f8d","542013.3999999985","559.7999999970198","88","1","arctic","","","","",""
"dual-task","null","null","null","","arctic","arctic","584.5","","N","null","77","77","1","arctic-dual-task","","N","uppercase","554000","0","1","01d92d17ed0ea9d99d2bac6381808c7ee69318be66dd3daf29c6bf4568786f8d","554003.3999999985","584.5","77","1","arctic","","","","",""
"dual-task","null","null","null","","arctic","arctic","552","","q","null","88","88","1","arctic-dual-task","","q","lowercase","562000","0","1","01d92d17ed0ea9d99d2bac6381808c7ee69318be66dd3daf29c6bf4568786f8d","562002.3000000007","552","88","1","arctic","","","","",""
"dual-task","null","null","null","","arctic","arctic","1147.6000000014901","","F","null","77","77","1","arctic-dual-task","","F","uppercase","570000","0","1","01d92d17ed0ea9d99d2bac6381808c7ee69318be66dd3daf29c6bf4568786f8d","570013.8999999985","1147.6000000014901","77","1","arctic","","","","",""
"dual-task","null","null","null","","arctic","arctic","585.8000000007451","","t","null","88","88","1","arctic-dual-task","","t","lowercase","578000","0","1","01d92d17ed0ea9d99d2bac6381808c7ee69318be66dd3daf29c6bf4568786f8d","578015.0999999978","585.8000000007451","88","1","arctic","","","","",""
"dual-task","null","null","null","","arctic","arctic","497.30000000074506","","R","null","77","77","1","arctic-dual-task","","R","uppercase","586000","0","1","01d92d17ed0ea9d99d2bac6381808c7ee69318be66dd3daf29c6bf4568786f8d","586006","497.30000000074506","77","1","arctic","","","","",""
"dual-task","null","null","null","","arctic","arctic","565","","f","null","88","88","1","arctic-dual-task","","f","lowercase","594000","0","1","01d92d17ed0ea9d99d2bac6381808c7ee69318be66dd3daf29c6bf4568786f8d","594002.3000000007","565","88","1","arctic","","","","",""
"dual-task","null","null","null","","arctic","arctic","980.1000000014901","","F","null","77","77","1","arctic-dual-task","","F","uppercase","608000","0","1","01d92d17ed0ea9d99d2bac6381808c7ee69318be66dd3daf29c6bf4568786f8d","608002","980.1000000014901","77","1","arctic","","","","",""
"dual-task","null","null","null","","arctic","arctic","529.1999999992549","","n","null","88","88","1","arctic-dual-task","","n","lowercase","618000","0","1","01d92d17ed0ea9d99d2bac6381808c7ee69318be66dd3daf29c6bf4568786f8d","618017.0999999978","529.1999999992549","88","1","arctic","","","","",""
"dual-task","null","null","null","","arctic","arctic","691.5","","b","null","88","88","1","arctic-dual-task","","b","lowercase","626000","0","1","01d92d17ed0ea9d99d2bac6381808c7ee69318be66dd3daf29c6bf4568786f8d","626014.3999999985","691.5","88","1","arctic","","","","",""
"dual-task","null","null","null","","arctic","arctic","630","","E","null","77","77","1","arctic-dual-task","","E","uppercase","638000","0","1","01d92d17ed0ea9d99d2bac6381808c7ee69318be66dd3daf29c6bf4568786f8d","638010.5999999978","630","77","1","arctic","","","","",""
"dual-task","null","null","null","","arctic","arctic","594.6999999992549","","q","null","88","88","1","arctic-dual-task","","q","lowercase","646000","0","1","01d92d17ed0ea9d99d2bac6381808c7ee69318be66dd3daf29c6bf4568786f8d","646013.6999999993","594.6999999992549","88","1","arctic","","","","",""
"dual-task","null","null","null","","arctic","arctic","618","","f","null","88","88","1","arctic-dual-task","","f","lowercase","658000","0","1","01d92d17ed0ea9d99d2bac6381808c7ee69318be66dd3daf29c6bf4568786f8d","658003.5","618","88","1","arctic","","","","",""
"dual-task","null","null","null","","arctic","arctic","670.8000000007451","","N","null","77","77","1","arctic-dual-task","","N","uppercase","670000","0","1","01d92d17ed0ea9d99d2bac6381808c7ee69318be66dd3daf29c6bf4568786f8d","670013.3999999985","670.8000000007451","77","1","arctic","","","","",""
"dual-task","null","null","null","","arctic","arctic","561.4000000022352","","g","null","88","88","1","arctic-dual-task","","g","lowercase","680000","0","1","01d92d17ed0ea9d99d2bac6381808c7ee69318be66dd3daf29c6bf4568786f8d","680010.3000000007","561.4000000022352","88","1","arctic","","","","",""
"dual-task","null","null","null","","arctic","arctic","590.6999999992549","","B","null","77","77","1","arctic-dual-task","","B","uppercase","688000","0","1","01d92d17ed0ea9d99d2bac6381808c7ee69318be66dd3daf29c6bf4568786f8d","688012.1999999993","590.6999999992549","77","1","arctic","","","","",""
"dual-task","null","null","null","","arctic","arctic","827.3999999985099","","d","null","88","88","1","arctic-dual-task","","d","lowercase","702000","0","1","01d92d17ed0ea9d99d2bac6381808c7ee69318be66dd3daf29c6bf4568786f8d","702012.5","827.3999999985099","88","1","arctic","","","","",""
"dual-task","null","null","null","","arctic","arctic","546.1000000014901","","g","null","88","88","1","arctic-dual-task","","g","lowercase","716000","0","1","01d92d17ed0ea9d99d2bac6381808c7ee69318be66dd3daf29c6bf4568786f8d","716004.8999999985","546.1000000014901","88","1","arctic","","","","",""
"dual-task","null","null","null","","arctic","arctic","556.1000000014901","","g","null","88","88","1","arctic-dual-task","","g","lowercase","724000","0","1","01d92d17ed0ea9d99d2bac6381808c7ee69318be66dd3daf29c6bf4568786f8d","724008.3999999985","556.1000000014901","88","1","arctic","","","","",""
"dual-task","null","null","null","","arctic","arctic","616.8000000007451","","E","null","77","77","1","arctic-dual-task","","E","uppercase","734000","0","1","01d92d17ed0ea9d99d2bac6381808c7ee69318be66dd3daf29c6bf4568786f8d","734011.1999999993","616.8000000007451","77","1","arctic","","","","",""
"dual-task","null","null","null","","arctic","arctic","638.6000000014901","","H","null","77","77","1","arctic-dual-task","","H","uppercase","744000","0","1","01d92d17ed0ea9d99d2bac6381808c7ee69318be66dd3daf29c6bf4568786f8d","744003.5","638.6000000014901","77","1","arctic","","","","",""
"dual-task","null","null","null","","arctic","arctic","625.5","","r","null","88","88","1","arctic-dual-task","","r","lowercase","754000","0","1","01d92d17ed0ea9d99d2bac6381808c7ee69318be66dd3daf29c6bf4568786f8d","754015","625.5","88","1","arctic","","","","",""
"dual-task","null","null","null","","arctic","arctic","679","","a","null","88","88","1","arctic-dual-task","","a","lowercase","766000","0","1","01d92d17ed0ea9d99d2bac6381808c7ee69318be66dd3daf29c6bf4568786f8d","766008.5","679","88","1","arctic","","","","",""
"dual-task","null","null","null","","arctic","arctic","690.3000000007451","","Q","null","77","77","1","arctic-dual-task","","Q","uppercase","778000","0","1","01d92d17ed0ea9d99d2bac6381808c7ee69318be66dd3daf29c6bf4568786f8d","778013.5","690.3000000007451","77","1","arctic","","","","",""
"dual-task","null","null","null","","arctic","arctic","639.5","","Q","null","77","77","1","arctic-dual-task","","Q","uppercase","788000","0","1","01d92d17ed0ea9d99d2bac6381808c7ee69318be66dd3daf29c6bf4568786f8d","788012.3999999985","639.5","77","1","arctic","","","","",""
"audio-keyboard-response","29","1044448","0.0-6.0-0.0-1.0","01d92d17ed0ea9d99d2bac6381808c7ee69318be66dd3daf29c6bf4568786f8d","arctic","arctic","null","","audio/story_arctic_scrambled.mp3","","null","","","","","","","","","","","","","","","","","","","",""
"html-button-response","30","1047727","0.0-6.0-0.0-2.0","01d92d17ed0ea9d99d2bac6381808c7ee69318be66dd3daf29c6bf4568786f8d","arctic","arctic","3277","","<p>This concludes the story. Thank you for listening.</p><p>You will now answer some questions about the content of the story.</p>","0","","","","","","","","","","","","","","","","","","","","",""
"survey-multi-choice","31","1055271","0.0-6.0-0.0-3.0-0.0","01d92d17ed0ea9d99d2bac6381808c7ee69318be66dd3daf29c6bf4568786f8d","arctic","arctic","7541","","<b>Which dog on the narrator&#39;s dog team never followed instructions?</b>","","","","1","arctic-comprehension","","","","","","","","","","","","","{""Q0"":""Robert""}","","","",""
"survey-multi-choice","32","1070735","0.0-6.0-0.0-3.0-0.1","01d92d17ed0ea9d99d2bac6381808c7ee69318be66dd3daf29c6bf4568786f8d","arctic","arctic","15204","","<b>How did the narrator&#39;s encounter with the polar bears end?</b>","","","","1","arctic-comprehension","","","","","","","","","","","","","{""Q0"":""The bears walked back to their den.""}","","","",""
"survey-multi-choice","33","1080695","0.0-6.0-0.0-3.0-0.2","01d92d17ed0ea9d99d2bac6381808c7ee69318be66dd3daf29c6bf4568786f8d","arctic","arctic","9706","","<b>How did the narrator prepare for her expedition?</b>","","","","1","arctic-comprehension","","","","","","","","","","","","","{""Q0"":""Trained in Alaska learning how to dogsled""}","","","",""
"survey-multi-choice","34","1084871","0.0-6.0-0.0-3.0-0.3","01d92d17ed0ea9d99d2bac6381808c7ee69318be66dd3daf29c6bf4568786f8d","arctic","arctic","3922","","<b>What is the name of the narrator&#39;s neighbour?</b>","","","","1","arctic-comprehension","","","","","","","","","","","","","{""Q0"":""Dave""}","","","",""
"survey-multi-choice","35","1093383","0.0-6.0-0.0-3.0-0.4","01d92d17ed0ea9d99d2bac6381808c7ee69318be66dd3daf29c6bf4568786f8d","arctic","arctic","8257","","<b>What were the weather conditions in the Arctic like the winter of the narrator&#39;s expedition?</b>","","","","1","arctic-comprehension","","","","","","","","","","","","","{""Q0"":""There were more storms than any other winter in recorded history.""}","","","",""
"survey-multi-choice","36","1101223","0.0-6.0-0.0-3.0-0.5","01d92d17ed0ea9d99d2bac6381808c7ee69318be66dd3daf29c6bf4568786f8d","arctic","arctic","7582","","<b>How many sponsorships did the narrator receive to support her expedition?</b>","","","","1","arctic-comprehension","","","","","","","","","","","","","{""Q0"":""None""}","","","",""
"survey-multi-choice","37","1106975","0.0-6.0-0.0-3.0-0.6","01d92d17ed0ea9d99d2bac6381808c7ee69318be66dd3daf29c6bf4568786f8d","arctic","arctic","5495","","<b>What was the objective of the narrator&#39;s expedition?</b>","","","","1","arctic-comprehension","","","","","","","","","","","","","{""Q0"":""Dogsled across Arctic America""}","","","",""
"survey-multi-choice","38","1114735","0.0-6.0-0.0-3.0-0.7","01d92d17ed0ea9d99d2bac6381808c7ee69318be66dd3daf29c6bf4568786f8d","arctic","arctic","7506","","<b>How did the narrator&#39;s neighbour respond when she told him about her expedition?</b>","","","","1","arctic-comprehension","","","","","","","","","","","","","{""Q0"":""He said she was going to fail.""}","","","",""
"survey-multi-choice","39","1119783","0.0-6.0-0.0-3.0-0.8","01d92d17ed0ea9d99d2bac6381808c7ee69318be66dd3daf29c6bf4568786f8d","arctic","arctic","4792","","<b>What did the narrator do for leisure while in her tent?</b>","","","","1","arctic-comprehension","","","","","","","","","","","","","{""Q0"":""Read""}","","","",""
"survey-multi-choice","40","1125671","0.0-6.0-0.0-3.0-0.9","01d92d17ed0ea9d99d2bac6381808c7ee69318be66dd3daf29c6bf4568786f8d","arctic","arctic","5628","","<b>How did the dogs respond when they saw the bears?</b>","","","","0","arctic-comprehension","","","","","","","","","","","","","{""Q0"":""Barked aggressively""}","","","",""
"html-button-response","41","1128703","0.0-6.0-0.0-4.0","01d92d17ed0ea9d99d2bac6381808c7ee69318be66dd3daf29c6bf4568786f8d","arctic","arctic","2780","","<p>Thank you for your responses.</p><p>You will now answer some questions about your impressions of the story.</p>","0","","","","","","","","","","","","","","","","","","","","",""
"html-button-response","42","1131359","0.0-6.0-0.0-5.0-0.0","01d92d17ed0ea9d99d2bac6381808c7ee69318be66dd3daf29c6bf4568786f8d","arctic","arctic","2655","","E1","6","","","","arctic-engagement","","","","","","","","","","","","","","7","enjoyment","",""
"html-button-response","43","1133879","0.0-6.0-0.0-5.0-0.1","01d92d17ed0ea9d99d2bac6381808c7ee69318be66dd3daf29c6bf4568786f8d","arctic","arctic","2267","","EE4","6","","","","arctic-engagement","","","","","","","","","","","","","","7","emo-engage","",""
"html-button-response","44","1137511","0.0-6.0-0.0-5.0-0.2","01d92d17ed0ea9d99d2bac6381808c7ee69318be66dd3daf29c6bf4568786f8d","arctic","arctic","3379","","MS3","5","","","","arctic-engagement","","","","","","","","","","","","","","6","mental-sim","",""
"html-button-response","45","1143503","0.0-6.0-0.0-5.0-0.3","01d92d17ed0ea9d99d2bac6381808c7ee69318be66dd3daf29c6bf4568786f8d","arctic","arctic","5739","","A1","4","","","","arctic-engagement","","","","","","","","","","","","","","5","absorption","",""
"html-button-response","46","1148759","0.0-6.0-0.0-5.0-0.4","01d92d17ed0ea9d99d2bac6381808c7ee69318be66dd3daf29c6bf4568786f8d","arctic","arctic","5003","","A4","6","","","","arctic-engagement","","","","","","","","","","","","","","7","absorption","",""
"html-button-response","47","1151792","0.0-6.0-0.0-5.0-0.5","01d92d17ed0ea9d99d2bac6381808c7ee69318be66dd3daf29c6bf4568786f8d","arctic","arctic","2780","","E6","6","","","","arctic-engagement","","","","","","","","","","","","","","7","enjoyment","",""
"html-button-response","48","1154055","0.0-6.0-0.0-5.0-0.6","01d92d17ed0ea9d99d2bac6381808c7ee69318be66dd3daf29c6bf4568786f8d","arctic","arctic","2011","","EE2","5","","","","arctic-engagement","","","","","","","","","","","","","","6","emo-engage","",""
"html-button-response","49","1155671","0.0-6.0-0.0-5.0-0.7","01d92d17ed0ea9d99d2bac6381808c7ee69318be66dd3daf29c6bf4568786f8d","arctic","arctic","1363","","E10","6","","","","arctic-engagement","","","","","","","","","","","","","","7","enjoyment","",""
"html-button-response","50","1158503","0.0-6.0-0.0-5.0-0.8","01d92d17ed0ea9d99d2bac6381808c7ee69318be66dd3daf29c6bf4568786f8d","arctic","arctic","2580","","A5","6","","","","arctic-engagement","","","","","","","","","","","","","","7","absorption","",""
"html-button-response","51","1161400","0.0-6.0-0.0-5.0-0.9","01d92d17ed0ea9d99d2bac6381808c7ee69318be66dd3daf29c6bf4568786f8d","arctic","arctic","2645","","A2","6","","","","arctic-engagement","","","","","","","","","","","","","","7","absorption","",""
"html-button-response","52","1163031","0.0-6.0-0.0-5.0-0.10","01d92d17ed0ea9d99d2bac6381808c7ee69318be66dd3daf29c6bf4568786f8d","arctic","arctic","1379","","EE3","5","","","","arctic-engagement","","","","","","","","","","","","","","6","emo-engage","",""
"html-button-response","53","1165607","0.0-6.0-0.0-5.0-0.11","01d92d17ed0ea9d99d2bac6381808c7ee69318be66dd3daf29c6bf4568786f8d","arctic","arctic","2324","","MS2","6","","","","arctic-engagement","","","","","","","","","","","","","","7","mental-sim","",""
"html-button-response","54","1168360","0.0-6.0-0.0-5.0-0.12","01d92d17ed0ea9d99d2bac6381808c7ee69318be66dd3daf29c6bf4568786f8d","arctic","arctic","2499","","EE5","6","","","","arctic-engagement","","","","","","","","","","","","","","7","emo-engage","",""
"html-button-response","55","1172687","0.0-6.0-0.0-5.0-0.13","01d92d17ed0ea9d99d2bac6381808c7ee69318be66dd3daf29c6bf4568786f8d","arctic","arctic","4075","","EE1","6","","","","arctic-engagement","","","","","","","","","","","","","","7","emo-engage","",""
"html-button-response","56","1174560","0.0-6.0-0.0-5.0-0.14","01d92d17ed0ea9d99d2bac6381808c7ee69318be66dd3daf29c6bf4568786f8d","arctic","arctic","1620","","E7","6","","","","arctic-engagement","","","","","","","","","","","","","","7","enjoyment","",""
"html-button-response","57","1177687","0.0-6.0-0.0-5.0-0.15","01d92d17ed0ea9d99d2bac6381808c7ee69318be66dd3daf29c6bf4568786f8d","arctic","arctic","2873","","MS1","6","","","","arctic-engagement","","","","","","","","","","","","","","7","mental-sim","",""
"html-button-response","58","1180527","0.0-6.0-0.0-5.0-0.16","01d92d17ed0ea9d99d2bac6381808c7ee69318be66dd3daf29c6bf4568786f8d","arctic","arctic","2587","","A3","6","","","","arctic-engagement","","","","","","","","","","","","","","7","absorption","",""
"html-button-response","59","1182943","0.0-6.0-0.0-5.0-0.17","01d92d17ed0ea9d99d2bac6381808c7ee69318be66dd3daf29c6bf4568786f8d","arctic","arctic","2163","","E8","5","","","","arctic-engagement","","","","","","","","","","","","","","6","enjoyment","",""
"html-keyboard-response","60","1192560","0.0-6.0-1.0","01d92d17ed0ea9d99d2bac6381808c7ee69318be66dd3daf29c6bf4568786f8d","arctic","arctic","9364","","<p>Thank you for your responses. You will now listen to the second story.</p><p>Remember, as you listen to the story you will see letters appear on the screen.</br>As quickly as possible, press <b>&lt;x&gt;</b> if the letter is lowercase and <b>&lt;m&gt;</b> if the letter is uppercase.</p><p>Press <b>&lt;x&gt;</b> or <b>&lt;m&gt;</b> to begin listening!</p>","","77","","","","","","","","","","","","","","","","","","","",""
"html-keyboard-response","61","1193075","0.0-6.0-2.0-0.0","01d92d17ed0ea9d99d2bac6381808c7ee69318be66dd3daf29c6bf4568786f8d","arctic","arctic","null","","<div style=""font-size:60px;"" tabindex=""0"">+</div>","","null","","","","","","","","","","","","","","","","","","","",""
"dual-task","null","null","null","","arctic","arctic","723.4000000022352","","F","null","77","77","1","swim-dual-task","","F","uppercase","10000","0","1","01d92d17ed0ea9d99d2bac6381808c7ee69318be66dd3daf29c6bf4568786f8d","10003.800000000745","723.4000000022352","77","1","swim","","","","",""
"dual-task","null","null","null","","arctic","arctic","645.4000000022352","","b","null","88","88","1","swim-dual-task","","b","lowercase","18000","0","1","01d92d17ed0ea9d99d2bac6381808c7ee69318be66dd3daf29c6bf4568786f8d","18000.5","645.4000000022352","88","1","swim","","","","",""
"dual-task","null","null","null","","arctic","arctic","667.9000000022352","","a","null","88","88","1","swim-dual-task","","a","lowercase","28000","0","1","01d92d17ed0ea9d99d2bac6381808c7ee69318be66dd3daf29c6bf4568786f8d","28010.300000000745","667.9000000022352","88","1","swim","","","","",""
"dual-task","null","null","null","","arctic","arctic","680.8999999985099","","r","null","88","88","1","swim-dual-task","","r","lowercase","40000","0","1","01d92d17ed0ea9d99d2bac6381808c7ee69318be66dd3daf29c6bf4568786f8d","40010.10000000149","680.8999999985099","88","1","swim","","","","",""
"dual-task","null","null","null","","arctic","arctic","517.9000000022352","","b","null","88","88","1","swim-dual-task","","b","lowercase","54000","0","1","01d92d17ed0ea9d99d2bac6381808c7ee69318be66dd3daf29c6bf4568786f8d","54011.60000000149","517.9000000022352","88","1","swim","","","","",""
"dual-task","null","null","null","","arctic","arctic","576.6999999992549","","B","null","77","77","1","swim-dual-task","","B","uppercase","62000","0","1","01d92d17ed0ea9d99d2bac6381808c7ee69318be66dd3daf29c6bf4568786f8d","61999.800000000745","576.6999999992549","77","1","swim","","","","",""
"dual-task","null","null","null","","arctic","arctic","557.6000000014901","","e","null","88","88","1","swim-dual-task","","e","lowercase","72000","0","1","01d92d17ed0ea9d99d2bac6381808c7ee69318be66dd3daf29c6bf4568786f8d","72002.5","557.6000000014901","88","1","swim","","","","",""
"dual-task","null","null","null","","arctic","arctic","599.6999999992549","","e","null","88","88","1","swim-dual-task","","e","lowercase","82000","0","1","01d92d17ed0ea9d99d2bac6381808c7ee69318be66dd3daf29c6bf4568786f8d","82007.19999999925","599.6999999992549","88","1","swim","","","","",""
"dual-task","null","null","null","","arctic","arctic","581.9000000022352","","E","null","77","77","1","swim-dual-task","","E","uppercase","94000","0","1","01d92d17ed0ea9d99d2bac6381808c7ee69318be66dd3daf29c6bf4568786f8d","94005.80000000075","581.9000000022352","77","1","swim","","","","",""
"dual-task","null","null","null","","arctic","arctic","611.8000000007451","","G","null","77","77","1","swim-dual-task","","G","uppercase","108000","0","1","01d92d17ed0ea9d99d2bac6381808c7ee69318be66dd3daf29c6bf4568786f8d","108003.90000000224","611.8000000007451","77","1","swim","","","","",""
"dual-task","null","null","null","","arctic","arctic","597.6999999992549","","D","null","77","77","1","swim-dual-task","","D","uppercase","116000","0","1","01d92d17ed0ea9d99d2bac6381808c7ee69318be66dd3daf29c6bf4568786f8d","116001.19999999925","597.6999999992549","77","1","swim","","","","",""
"dual-task","null","null","null","","arctic","arctic","700.2999999970198","","F","null","77","77","1","swim-dual-task","","F","uppercase","124000","0","1","01d92d17ed0ea9d99d2bac6381808c7ee69318be66dd3daf29c6bf4568786f8d","124010.90000000224","700.2999999970198","77","1","swim","","","","",""
"dual-task","null","null","null","","arctic","arctic","628.3000000007451","","a","null","88","88","1","swim-dual-task","","a","lowercase","136000","0","1","01d92d17ed0ea9d99d2bac6381808c7ee69318be66dd3daf29c6bf4568786f8d","136002.40000000224","628.3000000007451","88","1","swim","","","","",""
"dual-task","null","null","null","","arctic","arctic","1023.3000000007451","","R","null","77","77","1","swim-dual-task","","R","uppercase","150000","0","1","01d92d17ed0ea9d99d2bac6381808c7ee69318be66dd3daf29c6bf4568786f8d","150004.90000000224","1023.3000000007451","77","1","swim","","","","",""
"dual-task","null","null","null","","arctic","arctic","570.6999999992549","","R","null","77","77","1","swim-dual-task","","R","uppercase","162000","0","1","01d92d17ed0ea9d99d2bac6381808c7ee69318be66dd3daf29c6bf4568786f8d","162041.80000000075","570.6999999992549","77","1","swim","","","","",""
"dual-task","null","null","null","","arctic","arctic","614.3000000007451","","r","null","88","88","1","swim-dual-task","","r","lowercase","174000","0","1","01d92d17ed0ea9d99d2bac6381808c7ee69318be66dd3daf29c6bf4568786f8d","174012","614.3000000007451","88","1","swim","","","","",""
"dual-task","null","null","null","","arctic","arctic","547.1999999992549","","N","null","77","77","1","swim-dual-task","","N","uppercase","184000","0","1","01d92d17ed0ea9d99d2bac6381808c7ee69318be66dd3daf29c6bf4568786f8d","184012.5","547.1999999992549","77","1","swim","","","","",""
"dual-task","null","null","null","","arctic","arctic","576.6000000014901","","h","null","88","88","1","swim-dual-task","","h","lowercase","196000","0","1","01d92d17ed0ea9d99d2bac6381808c7ee69318be66dd3daf29c6bf4568786f8d","196014.80000000075","576.6000000014901","88","1","swim","","","","",""
"dual-task","null","null","null","","arctic","arctic","644","","E","null","77","77","1","swim-dual-task","","E","uppercase","210000","0","1","01d92d17ed0ea9d99d2bac6381808c7ee69318be66dd3daf29c6bf4568786f8d","210009.80000000075","644","77","1","swim","","","","",""
"dual-task","null","null","null","","arctic","arctic","551","","B","null","77","77","1","swim-dual-task","","B","uppercase","220000","0","1","01d92d17ed0ea9d99d2bac6381808c7ee69318be66dd3daf29c6bf4568786f8d","220004.19999999925","551","77","1","swim","","","","",""
"dual-task","null","null","null","","arctic","arctic","671.4000000022352","","t","null","88","88","1","swim-dual-task","","t","lowercase","230000","0","1","01d92d17ed0ea9d99d2bac6381808c7ee69318be66dd3daf29c6bf4568786f8d","230009.90000000224","671.4000000022352","88","1","swim","","","","",""
"dual-task","null","null","null","","arctic","arctic","579.3999999985099","","A","null","77","77","1","swim-dual-task","","A","uppercase","238000","0","1","01d92d17ed0ea9d99d2bac6381808c7ee69318be66dd3daf29c6bf4568786f8d","238005.1000000015","579.3999999985099","77","1","swim","","","","",""
"dual-task","null","null","null","","arctic","arctic","540.3000000007451","","R","null","77","77","1","swim-dual-task","","R","uppercase","246000","0","1","01d92d17ed0ea9d99d2bac6381808c7ee69318be66dd3daf29c6bf4568786f8d","246012.40000000224","540.3000000007451","77","1","swim","","","","",""
"dual-task","null","null","null","","arctic","arctic","771.5","","D","null","77","77","1","swim-dual-task","","D","uppercase","258000","0","1","01d92d17ed0ea9d99d2bac6381808c7ee69318be66dd3daf29c6bf4568786f8d","258002.90000000224","771.5","77","1","swim","","","","",""
"dual-task","null","null","null","","arctic","arctic","631.6000000014901","","T","null","77","77","1","swim-dual-task","","T","uppercase","268000","0","1","01d92d17ed0ea9d99d2bac6381808c7ee69318be66dd3daf29c6bf4568786f8d","268014.6000000015","631.6000000014901","77","1","swim","","","","",""
"dual-task","null","null","null","","arctic","arctic","607.9000000022352","","T","null","77","77","1","swim-dual-task","","T","uppercase","282000","0","1","01d92d17ed0ea9d99d2bac6381808c7ee69318be66dd3daf29c6bf4568786f8d","282004.40000000224","607.9000000022352","77","1","swim","","","","",""
"dual-task","null","null","null","","arctic","arctic","807.6999999992549","","f","null","88","88","1","swim-dual-task","","f","lowercase","288000","0","1","01d92d17ed0ea9d99d2bac6381808c7ee69318be66dd3daf29c6bf4568786f8d","288011","807.6999999992549","88","1","swim","","","","",""
"dual-task","null","null","null","","arctic","arctic","769.6999999992549","","T","null","77","77","1","swim-dual-task","","T","uppercase","302000","0","1","01d92d17ed0ea9d99d2bac6381808c7ee69318be66dd3daf29c6bf4568786f8d","302014.30000000075","769.6999999992549","77","1","swim","","","","",""
"dual-task","null","null","null","","arctic","arctic","615.3000000007451","","n","null","88","88","1","swim-dual-task","","n","lowercase","312000","0","1","01d92d17ed0ea9d99d2bac6381808c7ee69318be66dd3daf29c6bf4568786f8d","312008.6000000015","615.3000000007451","88","1","swim","","","","",""
"dual-task","null","null","null","","arctic","arctic","765.5","","G","null","77","77","1","swim-dual-task","","G","uppercase","322000","0","1","01d92d17ed0ea9d99d2bac6381808c7ee69318be66dd3daf29c6bf4568786f8d","322003.5","765.5","77","1","swim","","","","",""
"dual-task","null","null","null","","arctic","arctic","640.3000000007451","","B","null","77","77","1","swim-dual-task","","B","uppercase","330000","0","1","01d92d17ed0ea9d99d2bac6381808c7ee69318be66dd3daf29c6bf4568786f8d","330012","640.3000000007451","77","1","swim","","","","",""
"dual-task","null","null","null","","arctic","arctic","642.4000000022352","","t","null","88","88","1","swim-dual-task","","t","lowercase","340000","0","1","01d92d17ed0ea9d99d2bac6381808c7ee69318be66dd3daf29c6bf4568786f8d","340009","642.4000000022352","88","1","swim","","","","",""
"dual-task","null","null","null","","arctic","arctic","577.3000000007451","","N","null","77","77","1","swim-dual-task","","N","uppercase","350000","0","1","01d92d17ed0ea9d99d2bac6381808c7ee69318be66dd3daf29c6bf4568786f8d","350009.30000000075","577.3000000007451","77","1","swim","","","","",""
"dual-task","null","null","null","","arctic","arctic","626.2999999970198","","b","null","88","88","1","swim-dual-task","","b","lowercase","362000","0","1","01d92d17ed0ea9d99d2bac6381808c7ee69318be66dd3daf29c6bf4568786f8d","362007.69999999925","626.2999999970198","88","1","swim","","","","",""
"dual-task","null","null","null","","arctic","arctic","548.6000000014901","","d","null","88","88","1","swim-dual-task","","d","lowercase","372000","0","1","01d92d17ed0ea9d99d2bac6381808c7ee69318be66dd3daf29c6bf4568786f8d","372001.80000000075","548.6000000014901","88","1","swim","","","","",""
"dual-task","null","null","null","","arctic","arctic","589.6999999992549","","d","null","88","88","1","swim-dual-task","","d","lowercase","380000","0","1","01d92d17ed0ea9d99d2bac6381808c7ee69318be66dd3daf29c6bf4568786f8d","380007.1000000015","589.6999999992549","88","1","swim","","","","",""
"dual-task","null","null","null","","arctic","arctic","630.1999999992549","","H","null","77","77","1","swim-dual-task","","H","uppercase","390000","0","1","01d92d17ed0ea9d99d2bac6381808c7ee69318be66dd3daf29c6bf4568786f8d","390014.5","630.1999999992549","77","1","swim","","","","",""
"dual-task","null","null","null","","arctic","arctic","607.3000000007451","","t","null","88","88","1","swim-dual-task","","t","lowercase","396000","0","1","01d92d17ed0ea9d99d2bac6381808c7ee69318be66dd3daf29c6bf4568786f8d","396004.40000000224","607.3000000007451","88","1","swim","","","","",""
"dual-task","null","null","null","","arctic","arctic","511","","g","null","88","88","1","swim-dual-task","","g","lowercase","406000","0","1","01d92d17ed0ea9d99d2bac6381808c7ee69318be66dd3daf29c6bf4568786f8d","406003.40000000224","511","88","1","swim","","","","",""
"dual-task","null","null","null","","arctic","arctic","566.1999999992549","","T","null","77","77","1","swim-dual-task","","T","uppercase","416000","0","1","01d92d17ed0ea9d99d2bac6381808c7ee69318be66dd3daf29c6bf4568786f8d","416011.40000000224","566.1999999992549","77","1","swim","","","","",""
"dual-task","null","null","null","","arctic","arctic","768.8000000007451","","G","null","77","77","1","swim-dual-task","","G","uppercase","422000","0","1","01d92d17ed0ea9d99d2bac6381808c7ee69318be66dd3daf29c6bf4568786f8d","422000.19999999925","768.8000000007451","77","1","swim","","","","",""
"dual-task","null","null","null","","arctic","arctic","626.2000000029802","","H","null","77","77","1","swim-dual-task","","H","uppercase","428000","0","1","01d92d17ed0ea9d99d2bac6381808c7ee69318be66dd3daf29c6bf4568786f8d","428013.1000000015","626.2000000029802","77","1","swim","","","","",""
"dual-task","null","null","null","","arctic","arctic","566.4000000022352","","N","null","77","77","1","swim-dual-task","","N","uppercase","438000","0","1","01d92d17ed0ea9d99d2bac6381808c7ee69318be66dd3daf29c6bf4568786f8d","438006.80000000075","566.4000000022352","77","1","swim","","","","",""
"dual-task","null","null","null","","arctic","arctic","645.1999999992549","","d","null","88","88","1","swim-dual-task","","d","lowercase","444000","0","1","01d92d17ed0ea9d99d2bac6381808c7ee69318be66dd3daf29c6bf4568786f8d","444009.1000000015","645.1999999992549","88","1","swim","","","","",""
"dual-task","null","null","null","","arctic","arctic","529.6000000014901","","q","null","88","88","1","swim-dual-task","","q","lowercase","452000","0","1","01d92d17ed0ea9d99d2bac6381808c7ee69318be66dd3daf29c6bf4568786f8d","452010.6000000015","529.6000000014901","88","1","swim","","","","",""
"dual-task","null","null","null","","arctic","arctic","793.5","","A","null","77","77","1","swim-dual-task","","A","uppercase","460000","0","1","01d92d17ed0ea9d99d2bac6381808c7ee69318be66dd3daf29c6bf4568786f8d","460001.69999999925","793.5","77","1","swim","","","","",""
"dual-task","null","null","null","","arctic","arctic","508","","H","null","77","77","1","swim-dual-task","","H","uppercase","474000","0","1","01d92d17ed0ea9d99d2bac6381808c7ee69318be66dd3daf29c6bf4568786f8d","474014.1000000015","508","77","1","swim","","","","",""
"dual-task","null","null","null","","arctic","arctic","620.3000000007451","","q","null","88","88","1","swim-dual-task","","q","lowercase","486000","0","1","01d92d17ed0ea9d99d2bac6381808c7ee69318be66dd3daf29c6bf4568786f8d","486013.6000000015","620.3000000007451","88","1","swim","","","","",""
"dual-task","null","null","null","","arctic","arctic","722.6000000014901","","r","null","88","88","1","swim-dual-task","","r","lowercase","494000","0","1","01d92d17ed0ea9d99d2bac6381808c7ee69318be66dd3daf29c6bf4568786f8d","494003.6000000015","722.6000000014901","88","1","swim","","","","",""
"dual-task","null","null","null","","arctic","arctic","555.4000000022352","","A","null","77","77","1","swim-dual-task","","A","uppercase","508000","0","1","01d92d17ed0ea9d99d2bac6381808c7ee69318be66dd3daf29c6bf4568786f8d","508010.5","555.4000000022352","77","1","swim","","","","",""
"dual-task","null","null","null","","arctic","arctic","526.7000000029802","","F","null","77","77","1","swim-dual-task","","F","uppercase","522000","0","1","01d92d17ed0ea9d99d2bac6381808c7ee69318be66dd3daf29c6bf4568786f8d","522004.30000000075","526.7000000029802","77","1","swim","","","","",""
"dual-task","null","null","null","","arctic","arctic","581.3999999985099","","h","null","88","88","1","swim-dual-task","","h","lowercase","532000","0","1","01d92d17ed0ea9d99d2bac6381808c7ee69318be66dd3daf29c6bf4568786f8d","532012.6999999993","581.3999999985099","88","1","swim","","","","",""
"dual-task","null","null","null","","arctic","arctic","1544.3999999985099","","g","null","88","88","1","swim-dual-task","","g","lowercase","544000","0","1","01d92d17ed0ea9d99d2bac6381808c7ee69318be66dd3daf29c6bf4568786f8d","544007.6999999993","1544.3999999985099","88","1","swim","","","","",""
"dual-task","null","null","null","","arctic","arctic","617.5999999977648","","n","null","88","88","1","swim-dual-task","","n","lowercase","558000","0","1","01d92d17ed0ea9d99d2bac6381808c7ee69318be66dd3daf29c6bf4568786f8d","558005.9000000022","617.5999999977648","88","1","swim","","","","",""
"dual-task","null","null","null","","arctic","arctic","735.6000000014901","","D","null","77","77","1","swim-dual-task","","D","uppercase","564000","0","1","01d92d17ed0ea9d99d2bac6381808c7ee69318be66dd3daf29c6bf4568786f8d","564014.1999999993","735.6000000014901","77","1","swim","","","","",""
"dual-task","null","null","null","","arctic","arctic","548.8000000007451","","N","null","77","77","1","swim-dual-task","","N","uppercase","574000","0","1","01d92d17ed0ea9d99d2bac6381808c7ee69318be66dd3daf29c6bf4568786f8d","574023.1999999993","548.8000000007451","77","1","swim","","","","",""
"dual-task","null","null","null","","arctic","arctic","586.2999999970198","","q","null","88","88","1","swim-dual-task","","q","lowercase","582000","0","1","01d92d17ed0ea9d99d2bac6381808c7ee69318be66dd3daf29c6bf4568786f8d","582000.3000000007","586.2999999970198","88","1","swim","","","","",""
"dual-task","null","null","null","","arctic","arctic","637","","f","null","88","88","1","swim-dual-task","","f","lowercase","592000","0","1","01d92d17ed0ea9d99d2bac6381808c7ee69318be66dd3daf29c6bf4568786f8d","592012.8000000007","637","88","1","swim","","","","",""
"dual-task","null","null","null","","arctic","arctic","645.6000000014901","","F","null","77","77","1","swim-dual-task","","F","uppercase","606000","0","1","01d92d17ed0ea9d99d2bac6381808c7ee69318be66dd3daf29c6bf4568786f8d","606003.5000000037","645.6000000014901","77","1","swim","","","","",""
"dual-task","null","null","null","","arctic","arctic","654.7999999970198","","h","null","88","88","1","swim-dual-task","","h","lowercase","612000","0","1","01d92d17ed0ea9d99d2bac6381808c7ee69318be66dd3daf29c6bf4568786f8d","612008.4000000022","654.7999999970198","88","1","swim","","","","",""
"dual-task","null","null","null","","arctic","arctic","559.5","","Q","null","77","77","1","swim-dual-task","","Q","uppercase","620000","0","1","01d92d17ed0ea9d99d2bac6381808c7ee69318be66dd3daf29c6bf4568786f8d","620006.8000000007","559.5","77","1","swim","","","","",""
"dual-task","null","null","null","","arctic","arctic","590.7999999970198","","h","null","88","88","1","swim-dual-task","","h","lowercase","628000","0","1","01d92d17ed0ea9d99d2bac6381808c7ee69318be66dd3daf29c6bf4568786f8d","628006.0999999978","590.7999999970198","88","1","swim","","","","",""
"dual-task","null","null","null","","arctic","arctic","826.7999999970198","","g","null","88","88","1","swim-dual-task","","g","lowercase","636000","0","1","01d92d17ed0ea9d99d2bac6381808c7ee69318be66dd3daf29c6bf4568786f8d","636008.9000000022","826.7999999970198","88","1","swim","","","","",""
"dual-task","null","null","null","","arctic","arctic","515.7000000029802","","a","null","88","88","1","swim-dual-task","","a","lowercase","646000","0","1","01d92d17ed0ea9d99d2bac6381808c7ee69318be66dd3daf29c6bf4568786f8d","646013.8000000007","515.7000000029802","88","1","swim","","","","",""
"dual-task","null","null","null","","arctic","arctic","534.1999999955297","","E","null","77","77","1","swim-dual-task","","E","uppercase","656000","0","1","01d92d17ed0ea9d99d2bac6381808c7ee69318be66dd3daf29c6bf4568786f8d","656011.0999999978","534.1999999955297","77","1","swim","","","","",""
"dual-task","null","null","null","","arctic","arctic","730.2999999970198","","t","null","88","88","1","swim-dual-task","","t","lowercase","664000","0","1","01d92d17ed0ea9d99d2bac6381808c7ee69318be66dd3daf29c6bf4568786f8d","664006.5999999978","730.2999999970198","88","1","swim","","","","",""
"dual-task","null","null","null","","arctic","arctic","718.2999999970198","","H","null","77","77","1","swim-dual-task","","H","uppercase","676000","0","1","01d92d17ed0ea9d99d2bac6381808c7ee69318be66dd3daf29c6bf4568786f8d","676015.9000000022","718.2999999970198","77","1","swim","","","","",""
"dual-task","null","null","null","","arctic","arctic","898.7000000029802","","f","null","88","88","1","swim-dual-task","","f","lowercase","688000","0","1","01d92d17ed0ea9d99d2bac6381808c7ee69318be66dd3daf29c6bf4568786f8d","688009.9000000022","898.7000000029802","88","1","swim","","","","",""
"dual-task","null","null","null","","arctic","arctic","705.2999999970198","","Q","null","77","77","1","swim-dual-task","","Q","uppercase","694000","0","1","01d92d17ed0ea9d99d2bac6381808c7ee69318be66dd3daf29c6bf4568786f8d","694009.9000000022","705.2999999970198","77","1","swim","","","","",""
"dual-task","null","null","null","","arctic","arctic","532","","d","null","88","88","1","swim-dual-task","","d","lowercase","704000","0","1","01d92d17ed0ea9d99d2bac6381808c7ee69318be66dd3daf29c6bf4568786f8d","704009.8000000007","532","88","1","swim","","","","",""
"dual-task","null","null","null","","arctic","arctic","591.0999999940395","","e","null","88","88","1","swim-dual-task","","e","lowercase","712000","0","1","01d92d17ed0ea9d99d2bac6381808c7ee69318be66dd3daf29c6bf4568786f8d","712011.8000000007","591.0999999940395","88","1","swim","","","","",""
"dual-task","null","null","null","","arctic","arctic","585.3000000044703","","n","null","88","88","1","swim-dual-task","","n","lowercase","722000","0","1","01d92d17ed0ea9d99d2bac6381808c7ee69318be66dd3daf29c6bf4568786f8d","722015.0999999978","585.3000000044703","88","1","swim","","","","",""
"dual-task","null","null","null","","arctic","arctic","538.2999999970198","","G","null","77","77","1","swim-dual-task","","G","uppercase","734000","0","1","01d92d17ed0ea9d99d2bac6381808c7ee69318be66dd3daf29c6bf4568786f8d","734013.6999999993","538.2999999970198","77","1","swim","","","","",""
"dual-task","null","null","null","","arctic","arctic","632.6000000014901","","E","null","77","77","1","swim-dual-task","","E","uppercase","746000","0","1","01d92d17ed0ea9d99d2bac6381808c7ee69318be66dd3daf29c6bf4568786f8d","746013.8000000007","632.6000000014901","77","1","swim","","","","",""
"dual-task","null","null","null","","arctic","arctic","645.8999999985099","","g","null","88","88","1","swim-dual-task","","g","lowercase","760000","0","1","01d92d17ed0ea9d99d2bac6381808c7ee69318be66dd3daf29c6bf4568786f8d","760014.5000000037","645.8999999985099","88","1","swim","","","","",""
"dual-task","null","null","null","","arctic","arctic","528.3999999985099","","e","null","88","88","1","swim-dual-task","","e","lowercase","766000","0","1","01d92d17ed0ea9d99d2bac6381808c7ee69318be66dd3daf29c6bf4568786f8d","766003.1999999993","528.3999999985099","88","1","swim","","","","",""
"dual-task","null","null","null","","arctic","arctic","624.7999999970198","","r","null","88","88","1","swim-dual-task","","r","lowercase","778000","0","1","01d92d17ed0ea9d99d2bac6381808c7ee69318be66dd3daf29c6bf4568786f8d","778015.8000000007","624.7999999970198","88","1","swim","","","","",""
"dual-task","null","null","null","","arctic","arctic","992.1000000014901","","Q","null","77","77","1","swim-dual-task","","Q","uppercase","788000","0","1","01d92d17ed0ea9d99d2bac6381808c7ee69318be66dd3daf29c6bf4568786f8d","788000.6999999993","992.1000000014901","77","1","swim","","","","",""
"dual-task","null","null","null","","arctic","arctic","577.8999999985099","","a","null","88","88","1","swim-dual-task","","a","lowercase","794000","0","1","01d92d17ed0ea9d99d2bac6381808c7ee69318be66dd3daf29c6bf4568786f8d","794011.8000000007","577.8999999985099","88","1","swim","","","","",""
"audio-keyboard-response","62","2003118","0.0-6.0-2.0-1.0","01d92d17ed0ea9d99d2bac6381808c7ee69318be66dd3daf29c6bf4568786f8d","arctic","arctic","null","","audio/story_swim.mp3","","null","","","","","","","","","","","","","","","","","","","",""
"html-button-response","63","2006271","0.0-6.0-2.0-2.0","01d92d17ed0ea9d99d2bac6381808c7ee69318be66dd3daf29c6bf4568786f8d","arctic","arctic","3151","","<p>This concludes the story. Thank you for listening.</p><p>You will now answer some questions about the content of the story.</p>","0","","","","","","","","","","","","","","","","","","","","",""
"survey-multi-choice","64","2018479","0.0-6.0-2.0-3.0-0.0","01d92d17ed0ea9d99d2bac6381808c7ee69318be66dd3daf29c6bf4568786f8d","arctic","arctic","12204","","<b>What was the final step of the first swim test in the pool?</b>","","","","1","swim-comprehension","","","","","","","","","","","","","{""Q0"":""Tread water with hands above the water""}","","","",""
"survey-multi-choice","65","2025455","0.0-6.0-2.0-3.0-0.1","01d92d17ed0ea9d99d2bac6381808c7ee69318be66dd3daf29c6bf4568786f8d","arctic","arctic","6718","","<b>What were the astronaut candidates trained to do at the naval air station?</b>","","","","1","swim-comprehension","","","","","","","","","","","","","{""Q0"":""Eject out of aircraft and survive in water long enough to be rescued""}","","","",""
"survey-multi-choice","66","2029472","0.0-6.0-2.0-3.0-0.2","01d92d17ed0ea9d99d2bac6381808c7ee69318be66dd3daf29c6bf4568786f8d","arctic","arctic","3760","","<b>Where is the home of naval aviation?</b>","","","","1","swim-comprehension","","","","","","","","","","","","","{""Q0"":""Pensacola""}","","","",""
"survey-multi-choice","67","2032975","0.0-6.0-2.0-3.0-0.3","01d92d17ed0ea9d99d2bac6381808c7ee69318be66dd3daf29c6bf4568786f8d","arctic","arctic","3249","","<b>How many times did the astronaut candidates have to complete the final exercise to pass?</b>","","","","1","swim-comprehension","","","","","","","","","","","","","{""Q0"":""Two""}","","","",""
"survey-multi-choice","68","2037599","0.0-6.0-2.0-3.0-0.4","01d92d17ed0ea9d99d2bac6381808c7ee69318be66dd3daf29c6bf4568786f8d","arctic","arctic","4371","","<b>How many astronaut candidates passed the first swim test?</b>","","","","1","swim-comprehension","","","","","","","","","","","","","{""Q0"":""All of them""}","","","",""
"survey-multi-choice","69","2046015","0.0-6.0-2.0-3.0-0.5","01d92d17ed0ea9d99d2bac6381808c7ee69318be66dd3daf29c6bf4568786f8d","arctic","arctic","8161","","<b>What gave the narrator his greatest feeling of accomplishment?</b>","","","","1","swim-comprehension","","","","","","","","","","","","","{""Q0"":""Passing the water survival course""}","","","",""
"survey-multi-choice","70","2051487","0.0-6.0-2.0-3.0-0.6","01d92d17ed0ea9d99d2bac6381808c7ee69318be66dd3daf29c6bf4568786f8d","arctic","arctic","5216","","<b>How did the narrator train for his swim test?</b>","","","","1","swim-comprehension","","","","","","","","","","","","","{""Q0"":""Took his kids to the pool every day""}","","","",""
"survey-multi-choice","71","2057511","0.0-6.0-2.0-3.0-0.7","01d92d17ed0ea9d99d2bac6381808c7ee69318be66dd3daf29c6bf4568786f8d","arctic","arctic","5770","","<b>What is the narrator afraid of, aside from the water?</b>","","","","1","swim-comprehension","","","","","","","","","","","","","{""Q0"":""Heights""}","","","",""
"survey-multi-choice","72","2063007","0.0-6.0-2.0-3.0-0.8","01d92d17ed0ea9d99d2bac6381808c7ee69318be66dd3daf29c6bf4568786f8d","arctic","arctic","5241","","<b>How many astronaut candidates reported for duty at the Johnson Space Center?</b>","","","","1","swim-comprehension","","","","","","","","","","","","","{""Q0"":""Forty-four""}","","","",""
"survey-multi-choice","73","2069111","0.0-6.0-2.0-3.0-0.9","01d92d17ed0ea9d99d2bac6381808c7ee69318be66dd3daf29c6bf4568786f8d","arctic","arctic","5851","","<b>How often does the narrator swim, now that he is a good swimmer?</b>","","","","1","swim-comprehension","","","","","","","","","","","","","{""Q0"":""Never swam again in his life""}","","","",""
"html-button-response","74","2070791","0.0-6.0-2.0-4.0","01d92d17ed0ea9d99d2bac6381808c7ee69318be66dd3daf29c6bf4568786f8d","arctic","arctic","1427","","<p>Thank you for your responses.</p><p>You will now answer some questions about your impressions of the story.</p>","0","","","","","","","","","","","","","","","","","","","","",""
"html-button-response","75","2073376","0.0-6.0-2.0-5.0-0.0","01d92d17ed0ea9d99d2bac6381808c7ee69318be66dd3daf29c6bf4568786f8d","arctic","arctic","2583","","EE5","6","","","","swim-engagement","","","","","","","","","","","","","","7","emo-engage","",""
"html-button-response","76","2075176","0.0-6.0-2.0-5.0-0.1","01d92d17ed0ea9d99d2bac6381808c7ee69318be66dd3daf29c6bf4568786f8d","arctic","arctic","1547","","E6","5","","","","swim-engagement","","","","","","","","","","","","","","6","enjoyment","",""
"html-button-response","77","2076928","0.0-6.0-2.0-5.0-0.2","01d92d17ed0ea9d99d2bac6381808c7ee69318be66dd3daf29c6bf4568786f8d","arctic","arctic","1499","","E10","5","","","","swim-engagement","","","","","","","","","","","","","","6","enjoyment","",""
"html-button-response","78","2079104","0.0-6.0-2.0-5.0-0.3","01d92d17ed0ea9d99d2bac6381808c7ee69318be66dd3daf29c6bf4568786f8d","arctic","arctic","1909","","EE4","6","","","","swim-engagement","","","","","","","","","","","","","","7","emo-engage","",""
"html-button-response","79","2080716","0.0-6.0-2.0-5.0-0.4","01d92d17ed0ea9d99d2bac6381808c7ee69318be66dd3daf29c6bf4568786f8d","arctic","arctic","1359","","E1","5","","","","swim-engagement","","","","","","","","","","","","","","6","enjoyment","",""
"html-button-response","80","2082455","0.0-6.0-2.0-5.0-0.5","01d92d17ed0ea9d99d2bac6381808c7ee69318be66dd3daf29c6bf4568786f8d","arctic","arctic","1486","","E8","5","","","","swim-engagement","","","","","","","","","","","","","","6","enjoyment","",""
"html-button-response","81","2085752","0.0-6.0-2.0-5.0-0.6","01d92d17ed0ea9d99d2bac6381808c7ee69318be66dd3daf29c6bf4568786f8d","arctic","arctic","3044","","MS2","6","","","","swim-engagement","","","","","","","","","","","","","","7","mental-sim","",""
"html-button-response","82","2087407","0.0-6.0-2.0-5.0-0.7","01d92d17ed0ea9d99d2bac6381808c7ee69318be66dd3daf29c6bf4568786f8d","arctic","arctic","1402","","A3","6","","","","swim-engagement","","","","","","","","","","","","","","7","absorption","",""
"html-button-response","83","2091327","0.0-6.0-2.0-5.0-0.8","01d92d17ed0ea9d99d2bac6381808c7ee69318be66dd3daf29c6bf4568786f8d","arctic","arctic","3667","","A1","5","","","","swim-engagement","","","","","","","","","","","","","","6","absorption","",""
"html-button-response","84","2094232","0.0-6.0-2.0-5.0-0.9","01d92d17ed0ea9d99d2bac6381808c7ee69318be66dd3daf29c6bf4568786f8d","arctic","arctic","2652","","A2","6","","","","swim-engagement","","","","","","","","","","","","","","7","absorption","",""
"html-button-response","85","2098056","0.0-6.0-2.0-5.0-0.10","01d92d17ed0ea9d99d2bac6381808c7ee69318be66dd3daf29c6bf4568786f8d","arctic","arctic","3571","","A4","5","","","","swim-engagement","","","","","","","","","","","","","","6","absorption","",""
"html-button-response","86","2100272","0.0-6.0-2.0-5.0-0.11","01d92d17ed0ea9d99d2bac6381808c7ee69318be66dd3daf29c6bf4568786f8d","arctic","arctic","1963","","MS3","6","","","","swim-engagement","","","","","","","","","","","","","","7","mental-sim","",""
"html-button-response","87","2102280","0.0-6.0-2.0-5.0-0.12","01d92d17ed0ea9d99d2bac6381808c7ee69318be66dd3daf29c6bf4568786f8d","arctic","arctic","1756","","EE3","5","","","","swim-engagement","","","","","","","","","","","","","","6","emo-engage","",""
"html-button-response","88","2105535","0.0-6.0-2.0-5.0-0.13","01d92d17ed0ea9d99d2bac6381808c7ee69318be66dd3daf29c6bf4568786f8d","arctic","arctic","3002","","A5","5","","","","swim-engagement","","","","","","","","","","","","","","6","absorption","",""
"html-button-response","89","2107783","0.0-6.0-2.0-5.0-0.14","01d92d17ed0ea9d99d2bac6381808c7ee69318be66dd3daf29c6bf4568786f8d","arctic","arctic","1995","","EE1","6","","","","swim-engagement","","","","","","","","","","","","","","7","emo-engage","",""
"html-button-response","90","2109328","0.0-6.0-2.0-5.0-0.15","01d92d17ed0ea9d99d2bac6381808c7ee69318be66dd3daf29c6bf4568786f8d","arctic","arctic","1292","","EE2","6","","","","swim-engagement","","","","","","","","","","","","","","7","emo-engage","",""
"html-button-response","91","2110768","0.0-6.0-2.0-5.0-0.16","01d92d17ed0ea9d99d2bac6381808c7ee69318be66dd3daf29c6bf4568786f8d","arctic","arctic","1187","","E7","6","","","","swim-engagement","","","","","","","","","","","","","","7","enjoyment","",""
"html-button-response","92","2112880","0.0-6.0-2.0-5.0-0.17","01d92d17ed0ea9d99d2bac6381808c7ee69318be66dd3daf29c6bf4568786f8d","arctic","arctic","1859","","MS1","6","","","","swim-engagement","","","","","","","","","","","","","","7","mental-sim","",""
"html-button-response","93","2114504","0.0-8.0","01d92d17ed0ea9d99d2bac6381808c7ee69318be66dd3daf29c6bf4568786f8d","arctic","arctic","1372","","<p>Thank you for your responses.</p><p>You will now answer some demographic, hearing, and general health questions.</p>","0","","","","","","","","","","","","","","","","","","","","",""
"survey-multi-choice","94","2123647","0.0-9.0-0.0","01d92d17ed0ea9d99d2bac6381808c7ee69318be66dd3daf29c6bf4568786f8d","arctic","arctic","9138","","","","","","","survey","","","","","","","","","","","","","{""Q0"":""Chrome""}","","","browser",""
"survey-text","95","2127016","0.0-9.0-1.0","01d92d17ed0ea9d99d2bac6381808c7ee69318be66dd3daf29c6bf4568786f8d","arctic","arctic","3096.89999999851","","","","","","","survey","","","","","","","","","","","","","{""AGE"":""23""}","","","age","23"
"survey-multi-choice","96","2129527","0.0-9.0-2.0","01d92d17ed0ea9d99d2bac6381808c7ee69318be66dd3daf29c6bf4568786f8d","arctic","arctic","2259","","","","","","","survey","","","","","","","","","","","","","{""Q0"":""Female""}","","","gender","Female"
"survey-multi-choice","97","2131824","0.0-9.0-4.0","01d92d17ed0ea9d99d2bac6381808c7ee69318be66dd3daf29c6bf4568786f8d","arctic","arctic","2044","","","","","","","survey","","","","","","","","","","","","","{""Q0"":""Right""}","","","handedness","Right"
"survey-multi-choice","98","2134823","0.0-9.0-5.0","01d92d17ed0ea9d99d2bac6381808c7ee69318be66dd3daf29c6bf4568786f8d","arctic","arctic","2745","","","","","","","survey","","","","","","","","","","","","","{""Q0"":""High school""}","","","education","High school"
"survey-text","99","2139175","0.0-10.0-0.0","01d92d17ed0ea9d99d2bac6381808c7ee69318be66dd3daf29c6bf4568786f8d","arctic","arctic","4094.5","","","","","","","survey","","","","","","","","","","","","","{""L1"":""English""}","","","first-language","English"
"survey-text","100","2158960","0.0-10.0-1.0","01d92d17ed0ea9d99d2bac6381808c7ee69318be66dd3daf29c6bf4568786f8d","arctic","arctic","19513.5","","","","","","","survey","","","","","","","","","","","","","{""L2name"":""French"",""L2fluency"":""5"",""L3name"":"""",""L3fluency"":"""",""L4name"":"""",""L4fluency"":""""}","","","additional-languages","{""L2name"":""French"",""L2fluency"":""5"",""L3name"":"""",""L3fluency"":"""",""L4name"":"""",""L4fluency"":""""}"
"survey-multi-choice","101","2161535","0.0-10.0-2.0","01d92d17ed0ea9d99d2bac6381808c7ee69318be66dd3daf29c6bf4568786f8d","arctic","arctic","2320","","","","","","","survey","","","","","","","","","","","","","{""Q0"":""No""}","","","hearing-aid","No"
"survey-multi-choice","102","2163960","0.0-10.0-3.0","01d92d17ed0ea9d99d2bac6381808c7ee69318be66dd3daf29c6bf4568786f8d","arctic","arctic","2171","","","","","","","survey","","","","","","","","","","","","","{""Q0"":""Never""}","","","ringing-ears","Never"
"survey-multi-choice","103","2166375","0.0-10.0-5.0","01d92d17ed0ea9d99d2bac6381808c7ee69318be66dd3daf29c6bf4568786f8d","arctic","arctic","2161","","","","","","","survey","","","","","","","","","","","","","{""Q0"":""No""}","","","neuro-disease","No"
"survey-multi-choice","104","2169704","0.0-10.0-7.0","01d92d17ed0ea9d99d2bac6381808c7ee69318be66dd3daf29c6bf4568786f8d","arctic","arctic","3075","","","","","","","survey","","","","","","","","","","","","","{""Q0"":""No""}","","","take-meds","No"
"survey-text","105","2173599","0.0-10.0-9.0","01d92d17ed0ea9d99d2bac6381808c7ee69318be66dd3daf29c6bf4568786f8d","arctic","arctic","3555.5","","","","","","","survey","","","","","","","","","","","","","{""HC"":""""}","","","health-concerns",""
"html-button-response","106","2177408","0.0-11.0-0.0","01d92d17ed0ea9d99d2bac6381808c7ee69318be66dd3daf29c6bf4568786f8d","arctic","arctic","3556","","<p>How would you describe your musical skills/experiences?</p>","4","","","","survey","","","","","","","","","","","","","","","","music-skill","5"
"survey-multi-choice","107","2179560","0.0-11.0-1.0","01d92d17ed0ea9d99d2bac6381808c7ee69318be66dd3daf29c6bf4568786f8d","arctic","arctic","1899","","","","","","","survey","","","","","","","","","","","","","{""Q0"":""Yes""}","","","music-instrument","Yes"
"survey-text","108","2199327","0.0-11.0-2.0-0.0","01d92d17ed0ea9d99d2bac6381808c7ee69318be66dd3daf29c6bf4568786f8d","arctic","arctic","19510.80000000447","","","","","","","survey","","","","","","","","","","","","","{""MEXP"":""12""}","","","music-training-yrs","12"
"html-button-response","109","2201807","0.0-12.0-0.0","01d92d17ed0ea9d99d2bac6381808c7ee69318be66dd3daf29c6bf4568786f8d","arctic","arctic","2227","","<p>How would you describe your general hearing abilities?</p>","5","","","","survey","","","","","","","","","","","","","","","","ssq-01","6"
"html-button-response","110","2207799","0.0-12.0-1.0","01d92d17ed0ea9d99d2bac6381808c7ee69318be66dd3daf29c6bf4568786f8d","arctic","arctic","5740","","<p>When you talk with someone at a place that strongly reverberates/echoes (e.g., in a church or train station),</br>can you understand what the person says?</p>","9","","","","survey","","","","","","","","","","","","","","","","ssq-02","9"
"html-button-response","111","2210528","0.0-12.0-2.0","01d92d17ed0ea9d99d2bac6381808c7ee69318be66dd3daf29c6bf4568786f8d","arctic","arctic","2475","","<p>When you are with a group (~5 people) in a lively restaurant, can you follow the group's conversation?</p>","10","","","","survey","","","","","","","","","","","","","","","","ssq-03","10"
"html-button-response","112","2214024","0.0-12.0-3.0","01d92d17ed0ea9d99d2bac6381808c7ee69318be66dd3daf29c6bf4568786f8d","arctic","arctic","3243","","<p>Based on the sound of a bus or truck, can you tell whether it is moving towards or away from you?</p>","9","","","","survey","","","","","","","","","","","","","","","","ssq-04","9"
"html-button-response","113","2219240","0.0-12.0-4.0","01d92d17ed0ea9d99d2bac6381808c7ee69318be66dd3daf29c6bf4568786f8d","arctic","arctic","4962","","<p>When you are in an unknown environment, can you tell from which direction a brief sound originates?</p>","9","","","","survey","","","","","","","","","","","","","","","","ssq-05","9"
"html-button-response","114","2222567","0.0-12.0-5.0","01d92d17ed0ea9d99d2bac6381808c7ee69318be66dd3daf29c6bf4568786f8d","arctic","arctic","3075","","<p>Are you able to ignore distracting sounds when you concentrate on a specific aspect of your acoustic surrounding?</p>","8","","","","survey","","","","","","","","","","","","","","","","ssq-06","8"
"fullscreen","115","2223820","0.0-13.0","01d92d17ed0ea9d99d2bac6381808c7ee69318be66dd3daf29c6bf4568786f8d","arctic","arctic","","","","","","","","","true","","","","","","","","","","","","","","","",""
