"trial_type","trial_index","time_elapsed","internal_node_id","ParticipantID","firstStory","scramStory","rt","url","stimulus","button_pressed","key_press","correctRESP","correct","designation","success","letterStim","letterType","ONSET","TIMEOUT","CONDITION","Participant","ONSET_ACTUAL","RT","RESP","ACC","STORY","responses","response","type","surveyQuestion","QRESP"
"pavlovia","0","3314","0.0-0.0","480a36fa86593eccb1850fd44bdef000934524f6e6fa52891b04fd2f15f63e57","arctic","swim","","","","","","","","","","","","","","","","","","","","","","","","",""
"external-html","1","336154","0.0-1.0","480a36fa86593eccb1850fd44bdef000934524f6e6fa52891b04fd2f15f63e57","arctic","swim","330464","consent/consent_updated.html","","","","","","","","","","","","","","","","","","","","","","",""
"html-button-response","2","392359","0.0-2.0-0.0","480a36fa86593eccb1850fd44bdef000934524f6e6fa52891b04fd2f15f63e57","arctic","swim","56169","","<p>Before we begin the main task, you will complete a short volume calibration and headphone check.</p><p>Please make sure you are in a quiet listening environment, that you are wearing headphones, and that your computer's volume is turned on.<p></p>","0","","","","","","","","","","","","","","","","","","","","",""
"html-button-response","3","394923","0.0-2.0-1.0","480a36fa86593eccb1850fd44bdef000934524f6e6fa52891b04fd2f15f63e57","arctic","swim","2237","","<p>The volume calibration will be first.</p><p>You will hear a thirty-second noise. Please adjust your computer's volume so that this noise is being presented at a comfortable level.<p></p>","0","","","","","","","","","","","","","","","","","","","","",""
"audio-button-response","4","410243","0.0-2.0-2.0","480a36fa86593eccb1850fd44bdef000934524f6e6fa52891b04fd2f15f63e57","arctic","swim","14576","","audio/volumetest.mp3","0","","","","","","","","","","","","","","","","","","","","",""
"html-keyboard-response","5","414425","0.0-3.0-0.0","480a36fa86593eccb1850fd44bdef000934524f6e6fa52891b04fd2f15f63e57","arctic","swim","4180","","<p>You will now complete a short headphone check.</p><p>On each trial, you will hear three tones. One of these tones will be quieter than the others. Your task is to identify whether the quiet tone occurred first, second, or third.</p><p>There are six trials in total.<p></p><p></p>(Press SPACEBAR to begin)","","32","","","","","","","","","","","","","","","","","","","",""
"html-keyboard-response","6","415205","0.0-3.0-1.0-0.0","480a36fa86593eccb1850fd44bdef000934524f6e6fa52891b04fd2f15f63e57","arctic","swim","null","","<div style=""font-size:60px;"">+</div>","","null","","","","","","","","","","","","","","","","","","","",""
"audio-button-response","7","420269","0.0-3.0-1.0-1.0","480a36fa86593eccb1850fd44bdef000934524f6e6fa52891b04fd2f15f63e57","arctic","swim","5006","","audio/t1_2.mp3","0","","0","1","headphone-test","","","","","","","","","","","","","","","","",""
"html-keyboard-response","8","420791","0.0-3.0-1.0-2.0","480a36fa86593eccb1850fd44bdef000934524f6e6fa52891b04fd2f15f63e57","arctic","swim","null","","<p>Correct</p>","","null","","","","","","","","","","","","","","","","","","","",""
"html-keyboard-response","9","421330","0.0-3.0-1.0-0.1","480a36fa86593eccb1850fd44bdef000934524f6e6fa52891b04fd2f15f63e57","arctic","swim","null","","<div style=""font-size:60px;"">+</div>","","null","","","","","","","","","","","","","","","","","","","",""
"audio-button-response","10","425811","0.0-3.0-1.0-1.1","480a36fa86593eccb1850fd44bdef000934524f6e6fa52891b04fd2f15f63e57","arctic","swim","4479","","audio/t3_2.mp3","2","","2","1","headphone-test","","","","","","","","","","","","","","","","",""
"html-keyboard-response","11","426320","0.0-3.0-1.0-2.1","480a36fa86593eccb1850fd44bdef000934524f6e6fa52891b04fd2f15f63e57","arctic","swim","null","","<p>Correct</p>","","null","","","","","","","","","","","","","","","","","","","",""
"html-keyboard-response","12","426839","0.0-3.0-1.0-0.2","480a36fa86593eccb1850fd44bdef000934524f6e6fa52891b04fd2f15f63e57","arctic","swim","null","","<div style=""font-size:60px;"">+</div>","","null","","","","","","","","","","","","","","","","","","","",""
"audio-button-response","13","431390","0.0-3.0-1.0-1.2","480a36fa86593eccb1850fd44bdef000934524f6e6fa52891b04fd2f15f63e57","arctic","swim","4548","","audio/t2_2.mp3","1","","1","1","headphone-test","","","","","","","","","","","","","","","","",""
"html-keyboard-response","14","431894","0.0-3.0-1.0-2.2","480a36fa86593eccb1850fd44bdef000934524f6e6fa52891b04fd2f15f63e57","arctic","swim","null","","<p>Correct</p>","","null","","","","","","","","","","","","","","","","","","","",""
"html-keyboard-response","15","432399","0.0-3.0-1.0-0.3","480a36fa86593eccb1850fd44bdef000934524f6e6fa52891b04fd2f15f63e57","arctic","swim","null","","<div style=""font-size:60px;"">+</div>","","null","","","","","","","","","","","","","","","","","","","",""
"audio-button-response","16","436820","0.0-3.0-1.0-1.3","480a36fa86593eccb1850fd44bdef000934524f6e6fa52891b04fd2f15f63e57","arctic","swim","4418","","audio/t3_1.mp3","2","","2","1","headphone-test","","","","","","","","","","","","","","","","",""
"html-keyboard-response","17","437321","0.0-3.0-1.0-2.3","480a36fa86593eccb1850fd44bdef000934524f6e6fa52891b04fd2f15f63e57","arctic","swim","null","","<p>Correct</p>","","null","","","","","","","","","","","","","","","","","","","",""
"html-keyboard-response","18","437829","0.0-3.0-1.0-0.4","480a36fa86593eccb1850fd44bdef000934524f6e6fa52891b04fd2f15f63e57","arctic","swim","null","","<div style=""font-size:60px;"">+</div>","","null","","","","","","","","","","","","","","","","","","","",""
"audio-button-response","19","442324","0.0-3.0-1.0-1.4","480a36fa86593eccb1850fd44bdef000934524f6e6fa52891b04fd2f15f63e57","arctic","swim","4492","","audio/t1_1.mp3","0","","0","1","headphone-test","","","","","","","","","","","","","","","","",""
"html-keyboard-response","20","442832","0.0-3.0-1.0-2.4","480a36fa86593eccb1850fd44bdef000934524f6e6fa52891b04fd2f15f63e57","arctic","swim","null","","<p>Correct</p>","","null","","","","","","","","","","","","","","","","","","","",""
"html-keyboard-response","21","443355","0.0-3.0-1.0-0.5","480a36fa86593eccb1850fd44bdef000934524f6e6fa52891b04fd2f15f63e57","arctic","swim","null","","<div style=""font-size:60px;"">+</div>","","null","","","","","","","","","","","","","","","","","","","",""
"audio-button-response","22","447918","0.0-3.0-1.0-1.5","480a36fa86593eccb1850fd44bdef000934524f6e6fa52891b04fd2f15f63e57","arctic","swim","4559","","audio/t2_1.mp3","1","","1","1","headphone-test","","","","","","","","","","","","","","","","",""
"html-keyboard-response","23","448419","0.0-3.0-1.0-2.5","480a36fa86593eccb1850fd44bdef000934524f6e6fa52891b04fd2f15f63e57","arctic","swim","null","","<p>Correct</p>","","null","","","","","","","","","","","","","","","","","","","",""
"fullscreen","24","452051","0.0-4.0","480a36fa86593eccb1850fd44bdef000934524f6e6fa52891b04fd2f15f63e57","arctic","swim","","","","","","","","","true","","","","","","","","","","","","","","","",""
"html-button-response","25","466606","0.0-5.0-0.0","480a36fa86593eccb1850fd44bdef000934524f6e6fa52891b04fd2f15f63e57","arctic","swim","14552","","<p>There are two blocks to this experiment.</p><p>In each block, you will hear a ~13.5 minute story. One of the stories will be scrambled. Please listen carefully to both stories and understand them as best you can.</p><p>After each story, you will be asked some questions to assess your comprehension.</p>","0","","","","","","","","","","","","","","","","","","","","",""
"html-button-response","26","476750","0.0-5.0-1.0","480a36fa86593eccb1850fd44bdef000934524f6e6fa52891b04fd2f15f63e57","arctic","swim","10115","","<p>During each story, there will be an additional task.</p><p>A letter will occasionally appear on the screen.</br>Your job is to - as quickly as you can - decide whether the letter is lowercase or uppercase and press one of two keys on the keyboard:</p><p>If the letter is <b>lowercase</b>, press key &lt;<b>x</b>&gt;.</p><p>If the letter is <b>uppercase</b>, press key &lt;<b>m</b>&gt;.</p>","0","","","","","","","","","","","","","","","","","","","","",""
"html-keyboard-response","27","478454","0.0-5.0-2.0","480a36fa86593eccb1850fd44bdef000934524f6e6fa52891b04fd2f15f63e57","arctic","swim","1577","","<p>Because we want your responses to be as quick as possible, please keep your index fingers over the keys while listening.</p><p>Each block lasts about 20 minutes.</p><p><b>Press &lt;x&gt; or &lt;m&gt; to start the first block!</b></p>","","77","","","","","","","","","","","","","","","","","","","",""
"html-keyboard-response","28","478996","0.0-6.0-0.0-0.0","480a36fa86593eccb1850fd44bdef000934524f6e6fa52891b04fd2f15f63e57","arctic","swim","null","","<div style=""font-size:60px;"" tabindex=""0"">+</div>","","null","","","","","","","","","","","","","","","","","","","",""
"dual-task","null","null","null","","arctic","swim","630.7999999988824","","t","null","88","88","1","arctic-dual-task","","t","lowercase","16000","0","4","480a36fa86593eccb1850fd44bdef000934524f6e6fa52891b04fd2f15f63e57","15968.099999999627","630.7999999988824","88","1","arctic","","","","",""
"dual-task","null","null","null","","arctic","swim","1182.300000000745","","h","null","88","88","1","arctic-dual-task","","h","lowercase","22000","0","4","480a36fa86593eccb1850fd44bdef000934524f6e6fa52891b04fd2f15f63e57","21977.400000000373","1182.300000000745","88","1","arctic","","","","",""
"dual-task","null","null","null","","arctic","swim","998.3000000007451","","D","null","77","77","1","arctic-dual-task","","D","uppercase","30000","0","4","480a36fa86593eccb1850fd44bdef000934524f6e6fa52891b04fd2f15f63e57","29977.199999999255","998.3000000007451","77","1","arctic","","","","",""
"dual-task","null","null","null","","arctic","swim","1310.4000000003725","","d","null","88","88","1","arctic-dual-task","","d","lowercase","40000","0","4","480a36fa86593eccb1850fd44bdef000934524f6e6fa52891b04fd2f15f63e57","39976.09999999963","1310.4000000003725","88","1","arctic","","","","",""
"dual-task","null","null","null","","arctic","swim","510.40000000037253","","A","null","88","77","0","arctic-dual-task","","A","uppercase","52000","0","4","480a36fa86593eccb1850fd44bdef000934524f6e6fa52891b04fd2f15f63e57","51986.09999999963","510.40000000037253","88","0","arctic","","","","",""
"dual-task","null","null","null","","arctic","swim","636.6999999992549","","e","null","88","88","1","arctic-dual-task","","e","lowercase","60000","0","4","480a36fa86593eccb1850fd44bdef000934524f6e6fa52891b04fd2f15f63e57","59980.5","636.6999999992549","88","1","arctic","","","","",""
"dual-task","null","null","null","","arctic","swim","1789","","a","null","88","88","1","arctic-dual-task","","a","lowercase","66000","0","4","480a36fa86593eccb1850fd44bdef000934524f6e6fa52891b04fd2f15f63e57","65988.19999999925","1789","88","1","arctic","","","","",""
"dual-task","null","null","null","","arctic","swim","517.6999999992549","","A","null","77","77","1","arctic-dual-task","","A","uppercase","74000","0","4","480a36fa86593eccb1850fd44bdef000934524f6e6fa52891b04fd2f15f63e57","73975.90000000037","517.6999999992549","77","1","arctic","","","","",""
"dual-task","null","null","null","","arctic","swim","694.8000000007451","","G","null","77","77","1","arctic-dual-task","","G","uppercase","80000","0","4","480a36fa86593eccb1850fd44bdef000934524f6e6fa52891b04fd2f15f63e57","79976","694.8000000007451","77","1","arctic","","","","",""
"dual-task","null","null","null","","arctic","swim","537.3000000007451","","t","null","88","88","1","arctic-dual-task","","t","lowercase","94000","0","4","480a36fa86593eccb1850fd44bdef000934524f6e6fa52891b04fd2f15f63e57","93988.40000000037","537.3000000007451","88","1","arctic","","","","",""
"dual-task","null","null","null","","arctic","swim","708","","E","null","77","77","1","arctic-dual-task","","E","uppercase","106000","0","4","480a36fa86593eccb1850fd44bdef000934524f6e6fa52891b04fd2f15f63e57","105999.19999999925","708","77","1","arctic","","","","",""
"dual-task","null","null","null","","arctic","swim","575.5","","F","null","77","77","1","arctic-dual-task","","F","uppercase","118000","0","4","480a36fa86593eccb1850fd44bdef000934524f6e6fa52891b04fd2f15f63e57","117989.19999999925","575.5","77","1","arctic","","","","",""
"dual-task","null","null","null","","arctic","swim","563.5999999996275","","a","null","88","88","1","arctic-dual-task","","a","lowercase","130000","0","4","480a36fa86593eccb1850fd44bdef000934524f6e6fa52891b04fd2f15f63e57","129975.90000000037","563.5999999996275","88","1","arctic","","","","",""
"dual-task","null","null","null","","arctic","swim","585.5","","e","null","88","88","1","arctic-dual-task","","e","lowercase","142000","0","4","480a36fa86593eccb1850fd44bdef000934524f6e6fa52891b04fd2f15f63e57","141976.19999999925","585.5","88","1","arctic","","","","",""
"dual-task","null","null","null","","arctic","swim","731.9000000003725","","N","null","77","77","1","arctic-dual-task","","N","uppercase","156000","0","4","480a36fa86593eccb1850fd44bdef000934524f6e6fa52891b04fd2f15f63e57","155983.90000000037","731.9000000003725","77","1","arctic","","","","",""
"dual-task","null","null","null","","arctic","swim","1196.199999999255","","Q","null","77","77","1","arctic-dual-task","","Q","uppercase","162000","0","4","480a36fa86593eccb1850fd44bdef000934524f6e6fa52891b04fd2f15f63e57","161976","1196.199999999255","77","1","arctic","","","","",""
"dual-task","null","null","null","","arctic","swim","1136.6000000014901","","R","null","77","77","1","arctic-dual-task","","R","uppercase","176000","0","4","480a36fa86593eccb1850fd44bdef000934524f6e6fa52891b04fd2f15f63e57","175985.59999999963","1136.6000000014901","77","1","arctic","","","","",""
"dual-task","null","null","null","","arctic","swim","578.5","","N","null","77","77","1","arctic-dual-task","","N","uppercase","184000","0","4","480a36fa86593eccb1850fd44bdef000934524f6e6fa52891b04fd2f15f63e57","183985.79999999888","578.5","77","1","arctic","","","","",""
"dual-task","null","null","null","","arctic","swim","561.4000000003725","","A","null","77","77","1","arctic-dual-task","","A","uppercase","192000","0","4","480a36fa86593eccb1850fd44bdef000934524f6e6fa52891b04fd2f15f63e57","191996","561.4000000003725","77","1","arctic","","","","",""
"dual-task","null","null","null","","arctic","swim","928.5999999996275","","H","null","77","77","1","arctic-dual-task","","H","uppercase","206000","0","4","480a36fa86593eccb1850fd44bdef000934524f6e6fa52891b04fd2f15f63e57","205983.40000000037","928.5999999996275","77","1","arctic","","","","",""
"dual-task","null","null","null","","arctic","swim","866.5","","r","null","88","88","1","arctic-dual-task","","r","lowercase","216000","0","4","480a36fa86593eccb1850fd44bdef000934524f6e6fa52891b04fd2f15f63e57","215985.79999999888","866.5","88","1","arctic","","","","",""
"dual-task","null","null","null","","arctic","swim","751.1999999992549","","R","null","77","77","1","arctic-dual-task","","R","uppercase","226000","0","4","480a36fa86593eccb1850fd44bdef000934524f6e6fa52891b04fd2f15f63e57","225990.90000000037","751.1999999992549","77","1","arctic","","","","",""
"dual-task","null","null","null","","arctic","swim","758.6000000014901","","t","null","88","88","1","arctic-dual-task","","t","lowercase","238000","0","4","480a36fa86593eccb1850fd44bdef000934524f6e6fa52891b04fd2f15f63e57","237980.69999999925","758.6000000014901","88","1","arctic","","","","",""
"dual-task","null","null","null","","arctic","swim","1174.7999999988824","","E","null","77","77","1","arctic-dual-task","","E","uppercase","252000","0","4","480a36fa86593eccb1850fd44bdef000934524f6e6fa52891b04fd2f15f63e57","251975.90000000037","1174.7999999988824","77","1","arctic","","","","",""
"dual-task","null","null","null","","arctic","swim","470.7999999988824","","Q","null","77","77","1","arctic-dual-task","","Q","uppercase","262000","0","4","480a36fa86593eccb1850fd44bdef000934524f6e6fa52891b04fd2f15f63e57","261985.59999999963","470.7999999988824","77","1","arctic","","","","",""
"dual-task","null","null","null","","arctic","swim","807","","A","null","77","77","1","arctic-dual-task","","A","uppercase","272000","0","4","480a36fa86593eccb1850fd44bdef000934524f6e6fa52891b04fd2f15f63e57","271978.4000000004","807","77","1","arctic","","","","",""
"dual-task","null","null","null","","arctic","swim","1099.5","","T","null","77","77","1","arctic-dual-task","","T","uppercase","280000","0","4","480a36fa86593eccb1850fd44bdef000934524f6e6fa52891b04fd2f15f63e57","279985.2999999989","1099.5","77","1","arctic","","","","",""
"dual-task","null","null","null","","arctic","swim","592","","b","null","88","88","1","arctic-dual-task","","b","lowercase","288000","0","4","480a36fa86593eccb1850fd44bdef000934524f6e6fa52891b04fd2f15f63e57","287975.2999999989","592","88","1","arctic","","","","",""
"dual-task","null","null","null","","arctic","swim","NA","","e","null","NA","88","0","arctic-dual-task","","e","lowercase","294000","1","4","480a36fa86593eccb1850fd44bdef000934524f6e6fa52891b04fd2f15f63e57","293985.19999999925","NA","NA","0","arctic","","","","",""
"dual-task","null","null","null","","arctic","swim","652.3000000007451","","n","null","88","88","1","arctic-dual-task","","n","lowercase","302000","0","4","480a36fa86593eccb1850fd44bdef000934524f6e6fa52891b04fd2f15f63e57","301985.4000000004","652.3000000007451","88","1","arctic","","","","",""
"dual-task","null","null","null","","arctic","swim","782.3000000007451","","a","null","88","88","1","arctic-dual-task","","a","lowercase","308000","0","4","480a36fa86593eccb1850fd44bdef000934524f6e6fa52891b04fd2f15f63e57","307985.4000000004","782.3000000007451","88","1","arctic","","","","",""
"dual-task","null","null","null","","arctic","swim","713.1999999992549","","B","null","77","77","1","arctic-dual-task","","B","uppercase","318000","0","4","480a36fa86593eccb1850fd44bdef000934524f6e6fa52891b04fd2f15f63e57","317990.7999999989","713.1999999992549","77","1","arctic","","","","",""
"dual-task","null","null","null","","arctic","swim","847.1999999992549","","q","null","88","88","1","arctic-dual-task","","q","lowercase","324000","0","4","480a36fa86593eccb1850fd44bdef000934524f6e6fa52891b04fd2f15f63e57","323981.5","847.1999999992549","88","1","arctic","","","","",""
"dual-task","null","null","null","","arctic","swim","1777.0999999996275","","F","null","77","77","1","arctic-dual-task","","F","uppercase","330000","0","4","480a36fa86593eccb1850fd44bdef000934524f6e6fa52891b04fd2f15f63e57","329988","1777.0999999996275","77","1","arctic","","","","",""
"dual-task","null","null","null","","arctic","swim","NA","","T","null","NA","77","0","arctic-dual-task","","T","uppercase","338000","1","4","480a36fa86593eccb1850fd44bdef000934524f6e6fa52891b04fd2f15f63e57","337975.2999999989","NA","NA","0","arctic","","","","",""
"dual-task","null","null","null","","arctic","swim","802.0999999996275","","T","null","77","77","1","arctic-dual-task","","T","uppercase","348000","0","4","480a36fa86593eccb1850fd44bdef000934524f6e6fa52891b04fd2f15f63e57","347984.69999999925","802.0999999996275","77","1","arctic","","","","",""
"dual-task","null","null","null","","arctic","swim","784.5999999996275","","F","null","77","77","1","arctic-dual-task","","F","uppercase","362000","0","4","480a36fa86593eccb1850fd44bdef000934524f6e6fa52891b04fd2f15f63e57","361975.5","784.5999999996275","77","1","arctic","","","","",""
"dual-task","null","null","null","","arctic","swim","1186.0999999996275","","h","null","88","88","1","arctic-dual-task","","h","lowercase","374000","0","4","480a36fa86593eccb1850fd44bdef000934524f6e6fa52891b04fd2f15f63e57","373988","1186.0999999996275","88","1","arctic","","","","",""
"dual-task","null","null","null","","arctic","swim","738.5","","D","null","77","77","1","arctic-dual-task","","D","uppercase","384000","0","4","480a36fa86593eccb1850fd44bdef000934524f6e6fa52891b04fd2f15f63e57","383981.7999999989","738.5","77","1","arctic","","","","",""
"dual-task","null","null","null","","arctic","swim","1025.4000000003725","","E","null","77","77","1","arctic-dual-task","","E","uppercase","390000","0","4","480a36fa86593eccb1850fd44bdef000934524f6e6fa52891b04fd2f15f63e57","389984.9000000004","1025.4000000003725","77","1","arctic","","","","",""
"dual-task","null","null","null","","arctic","swim","939.0999999996275","","e","null","88","88","1","arctic-dual-task","","e","lowercase","402000","0","4","480a36fa86593eccb1850fd44bdef000934524f6e6fa52891b04fd2f15f63e57","401985.9000000004","939.0999999996275","88","1","arctic","","","","",""
"dual-task","null","null","null","","arctic","swim","632.0999999996275","","g","null","88","88","1","arctic-dual-task","","g","lowercase","410000","0","4","480a36fa86593eccb1850fd44bdef000934524f6e6fa52891b04fd2f15f63e57","409981","632.0999999996275","88","1","arctic","","","","",""
"dual-task","null","null","null","","arctic","swim","1439.9000000003725","","T","null","77","77","1","arctic-dual-task","","T","uppercase","416000","0","4","480a36fa86593eccb1850fd44bdef000934524f6e6fa52891b04fd2f15f63e57","415995.2999999989","1439.9000000003725","77","1","arctic","","","","",""
"dual-task","null","null","null","","arctic","swim","1287.2000000011176","","q","null","88","88","1","arctic-dual-task","","q","lowercase","426000","0","4","480a36fa86593eccb1850fd44bdef000934524f6e6fa52891b04fd2f15f63e57","425980","1287.2000000011176","88","1","arctic","","","","",""
"dual-task","null","null","null","","arctic","swim","988","","g","null","88","88","1","arctic-dual-task","","g","lowercase","434000","0","4","480a36fa86593eccb1850fd44bdef000934524f6e6fa52891b04fd2f15f63e57","433977.2999999989","988","88","1","arctic","","","","",""
"dual-task","null","null","null","","arctic","swim","1063.800000000745","","Q","null","77","77","1","arctic-dual-task","","Q","uppercase","444000","0","4","480a36fa86593eccb1850fd44bdef000934524f6e6fa52891b04fd2f15f63e57","443985.0999999996","1063.800000000745","77","1","arctic","","","","",""
"dual-task","null","null","null","","arctic","swim","824.7000000011176","","G","null","77","77","1","arctic-dual-task","","G","uppercase","458000","0","4","480a36fa86593eccb1850fd44bdef000934524f6e6fa52891b04fd2f15f63e57","457980.4000000004","824.7000000011176","77","1","arctic","","","","",""
"dual-task","null","null","null","","arctic","swim","1102.300000000745","","R","null","77","77","1","arctic-dual-task","","R","uppercase","466000","0","4","480a36fa86593eccb1850fd44bdef000934524f6e6fa52891b04fd2f15f63e57","465981.69999999925","1102.300000000745","77","1","arctic","","","","",""
"dual-task","null","null","null","","arctic","swim","1004.0999999996275","","B","null","77","77","1","arctic-dual-task","","B","uppercase","478000","0","4","480a36fa86593eccb1850fd44bdef000934524f6e6fa52891b04fd2f15f63e57","477985","1004.0999999996275","77","1","arctic","","","","",""
"dual-task","null","null","null","","arctic","swim","922.0999999996275","","f","null","88","88","1","arctic-dual-task","","f","lowercase","492000","0","4","480a36fa86593eccb1850fd44bdef000934524f6e6fa52891b04fd2f15f63e57","491984.9000000004","922.0999999996275","88","1","arctic","","","","",""
"dual-task","null","null","null","","arctic","swim","1729","","Q","null","77","77","1","arctic-dual-task","","Q","uppercase","506000","0","4","480a36fa86593eccb1850fd44bdef000934524f6e6fa52891b04fd2f15f63e57","505984.7999999989","1729","77","1","arctic","","","","",""
"dual-task","null","null","null","","arctic","swim","936.6999999992549","","N","null","77","77","1","arctic-dual-task","","N","uppercase","520000","0","4","480a36fa86593eccb1850fd44bdef000934524f6e6fa52891b04fd2f15f63e57","519994.69999999925","936.6999999992549","77","1","arctic","","","","",""
"dual-task","null","null","null","","arctic","swim","983","","a","null","88","88","1","arctic-dual-task","","a","lowercase","532000","0","4","480a36fa86593eccb1850fd44bdef000934524f6e6fa52891b04fd2f15f63e57","531994.6999999993","983","88","1","arctic","","","","",""
"dual-task","null","null","null","","arctic","swim","886.0999999996275","","b","null","88","88","1","arctic-dual-task","","b","lowercase","544000","0","4","480a36fa86593eccb1850fd44bdef000934524f6e6fa52891b04fd2f15f63e57","543981","886.0999999996275","88","1","arctic","","","","",""
"dual-task","null","null","null","","arctic","swim","1294.5","","E","null","77","77","1","arctic-dual-task","","E","uppercase","550000","0","4","480a36fa86593eccb1850fd44bdef000934524f6e6fa52891b04fd2f15f63e57","549979.5999999996","1294.5","77","1","arctic","","","","",""
"dual-task","null","null","null","","arctic","swim","1043.7999999988824","","D","null","77","77","1","arctic-dual-task","","D","uppercase","558000","0","4","480a36fa86593eccb1850fd44bdef000934524f6e6fa52891b04fd2f15f63e57","557994.5999999996","1043.7999999988824","77","1","arctic","","","","",""
"dual-task","null","null","null","","arctic","swim","1002.8000000007451","","r","null","88","88","1","arctic-dual-task","","r","lowercase","566000","0","4","480a36fa86593eccb1850fd44bdef000934524f6e6fa52891b04fd2f15f63e57","565979.5999999996","1002.8000000007451","88","1","arctic","","","","",""
"dual-task","null","null","null","","arctic","swim","834.4000000003725","","n","null","88","88","1","arctic-dual-task","","n","lowercase","580000","0","4","480a36fa86593eccb1850fd44bdef000934524f6e6fa52891b04fd2f15f63e57","579989.5","834.4000000003725","88","1","arctic","","","","",""
"dual-task","null","null","null","","arctic","swim","1287.7000000011176","","f","null","88","88","1","arctic-dual-task","","f","lowercase","588000","0","4","480a36fa86593eccb1850fd44bdef000934524f6e6fa52891b04fd2f15f63e57","587980","1287.7000000011176","88","1","arctic","","","","",""
"dual-task","null","null","null","","arctic","swim","1010.4000000003725","","d","null","88","88","1","arctic-dual-task","","d","lowercase","598000","0","4","480a36fa86593eccb1850fd44bdef000934524f6e6fa52891b04fd2f15f63e57","597979.2999999989","1010.4000000003725","88","1","arctic","","","","",""
"dual-task","null","null","null","","arctic","swim","797.5999999996275","","g","null","88","88","1","arctic-dual-task","","g","lowercase","606000","0","4","480a36fa86593eccb1850fd44bdef000934524f6e6fa52891b04fd2f15f63e57","605989.5999999996","797.5999999996275","88","1","arctic","","","","",""
"dual-task","null","null","null","","arctic","swim","819.4000000003725","","f","null","88","88","1","arctic-dual-task","","f","lowercase","616000","0","4","480a36fa86593eccb1850fd44bdef000934524f6e6fa52891b04fd2f15f63e57","615984.5","819.4000000003725","88","1","arctic","","","","",""
"dual-task","null","null","null","","arctic","swim","948.3000000007451","","F","null","77","77","1","arctic-dual-task","","F","uppercase","630000","0","4","480a36fa86593eccb1850fd44bdef000934524f6e6fa52891b04fd2f15f63e57","629988","948.3000000007451","77","1","arctic","","","","",""
"dual-task","null","null","null","","arctic","swim","1022","","B","null","77","77","1","arctic-dual-task","","B","uppercase","640000","0","4","480a36fa86593eccb1850fd44bdef000934524f6e6fa52891b04fd2f15f63e57","639986.9000000004","1022","77","1","arctic","","","","",""
"dual-task","null","null","null","","arctic","swim","1025.1000000014901","","t","null","88","88","1","arctic-dual-task","","t","lowercase","652000","0","4","480a36fa86593eccb1850fd44bdef000934524f6e6fa52891b04fd2f15f63e57","651994.6999999993","1025.1000000014901","88","1","arctic","","","","",""
"dual-task","null","null","null","","arctic","swim","762.8000000007451","","G","null","77","77","1","arctic-dual-task","","G","uppercase","666000","0","4","480a36fa86593eccb1850fd44bdef000934524f6e6fa52891b04fd2f15f63e57","665984.5","762.8000000007451","77","1","arctic","","","","",""
"dual-task","null","null","null","","arctic","swim","1823.2999999988824","","q","null","88","88","1","arctic-dual-task","","q","lowercase","676000","0","4","480a36fa86593eccb1850fd44bdef000934524f6e6fa52891b04fd2f15f63e57","676008","1823.2999999988824","88","1","arctic","","","","",""
"dual-task","null","null","null","","arctic","swim","1788.199999999255","","f","null","88","88","1","arctic-dual-task","","f","lowercase","684000","0","4","480a36fa86593eccb1850fd44bdef000934524f6e6fa52891b04fd2f15f63e57","683984.5999999996","1788.199999999255","88","1","arctic","","","","",""
"dual-task","null","null","null","","arctic","swim","539.4000000003725","","R","null","77","77","1","arctic-dual-task","","R","uppercase","694000","0","4","480a36fa86593eccb1850fd44bdef000934524f6e6fa52891b04fd2f15f63e57","694001.1999999993","539.4000000003725","77","1","arctic","","","","",""
"dual-task","null","null","null","","arctic","swim","1310.699999999255","","n","null","88","88","1","arctic-dual-task","","n","lowercase","706000","0","4","480a36fa86593eccb1850fd44bdef000934524f6e6fa52891b04fd2f15f63e57","706004.4000000004","1310.699999999255","88","1","arctic","","","","",""
"dual-task","null","null","null","","arctic","swim","1569.2999999988824","","h","null","88","88","1","arctic-dual-task","","h","lowercase","714000","0","4","480a36fa86593eccb1850fd44bdef000934524f6e6fa52891b04fd2f15f63e57","713999.4000000004","1569.2999999988824","88","1","arctic","","","","",""
"dual-task","null","null","null","","arctic","swim","954.4000000003725","","d","null","88","88","1","arctic-dual-task","","d","lowercase","728000","0","4","480a36fa86593eccb1850fd44bdef000934524f6e6fa52891b04fd2f15f63e57","728004.5","954.4000000003725","88","1","arctic","","","","",""
"dual-task","null","null","null","","arctic","swim","1496.7000000011176","","G","null","77","77","1","arctic-dual-task","","G","uppercase","742000","0","4","480a36fa86593eccb1850fd44bdef000934524f6e6fa52891b04fd2f15f63e57","741994.2999999989","1496.7000000011176","77","1","arctic","","","","",""
"dual-task","null","null","null","","arctic","swim","697.0999999996275","","H","null","77","77","1","arctic-dual-task","","H","uppercase","756000","0","4","480a36fa86593eccb1850fd44bdef000934524f6e6fa52891b04fd2f15f63e57","755989.6999999993","697.0999999996275","77","1","arctic","","","","",""
"dual-task","null","null","null","","arctic","swim","1231.2999999988824","","q","null","88","88","1","arctic-dual-task","","q","lowercase","762000","0","4","480a36fa86593eccb1850fd44bdef000934524f6e6fa52891b04fd2f15f63e57","762003.9000000004","1231.2999999988824","88","1","arctic","","","","",""
"dual-task","null","null","null","","arctic","swim","761","","h","null","88","88","1","arctic-dual-task","","h","lowercase","770000","0","4","480a36fa86593eccb1850fd44bdef000934524f6e6fa52891b04fd2f15f63e57","769996.4000000004","761","88","1","arctic","","","","",""
"dual-task","null","null","null","","arctic","swim","1038.4000000003725","","b","null","88","88","1","arctic-dual-task","","b","lowercase","776000","0","4","480a36fa86593eccb1850fd44bdef000934524f6e6fa52891b04fd2f15f63e57","775995.5999999996","1038.4000000003725","88","1","arctic","","","","",""
"dual-task","null","null","null","","arctic","swim","719.6000000014901","","H","null","77","77","1","arctic-dual-task","","H","uppercase","784000","0","4","480a36fa86593eccb1850fd44bdef000934524f6e6fa52891b04fd2f15f63e57","783997.0999999996","719.6000000014901","77","1","arctic","","","","",""
"audio-keyboard-response","29","1277096","0.0-6.0-0.0-1.0","480a36fa86593eccb1850fd44bdef000934524f6e6fa52891b04fd2f15f63e57","arctic","swim","null","","audio/story_arctic.mp3","","null","","","","","","","","","","","","","","","","","","","",""
"html-button-response","30","1280602","0.0-6.0-0.0-2.0","480a36fa86593eccb1850fd44bdef000934524f6e6fa52891b04fd2f15f63e57","arctic","swim","3496","","<p>This concludes the story. Thank you for listening.</p><p>You will now answer some questions about the content of the story.</p>","0","","","","","","","","","","","","","","","","","","","","",""
"survey-multi-choice","31","1288275","0.0-6.0-0.0-3.0-0.0","480a36fa86593eccb1850fd44bdef000934524f6e6fa52891b04fd2f15f63e57","arctic","swim","7495","","<b>How did the narrator&#39;s encounter with the polar bears end?</b>","","","","1","arctic-comprehension","","","","","","","","","","","","","{""Q0"":""The bears walked back to their den.""}","","","",""
"survey-multi-choice","32","1297382","0.0-6.0-0.0-3.0-0.1","480a36fa86593eccb1850fd44bdef000934524f6e6fa52891b04fd2f15f63e57","arctic","swim","8818","","<b>How did the narrator&#39;s neighbour respond when she told him about her expedition?</b>","","","","0","arctic-comprehension","","","","","","","","","","","","","{""Q0"":""He offered to cover all expenses.""}","","","",""
"survey-multi-choice","33","1304415","0.0-6.0-0.0-3.0-0.2","480a36fa86593eccb1850fd44bdef000934524f6e6fa52891b04fd2f15f63e57","arctic","swim","6774","","<b>What was the objective of the narrator&#39;s expedition?</b>","","","","1","arctic-comprehension","","","","","","","","","","","","","{""Q0"":""Dogsled across Arctic America""}","","","",""
"survey-multi-choice","34","1314441","0.0-6.0-0.0-3.0-0.3","480a36fa86593eccb1850fd44bdef000934524f6e6fa52891b04fd2f15f63e57","arctic","swim","9766","","<b>What did the narrator do for leisure while in her tent?</b>","","","","0","arctic-comprehension","","","","","","","","","","","","","{""Q0"":""Take photos""}","","","",""
"survey-multi-choice","35","1320121","0.0-6.0-0.0-3.0-0.4","480a36fa86593eccb1850fd44bdef000934524f6e6fa52891b04fd2f15f63e57","arctic","swim","5416","","<b>How did the dogs respond when they saw the bears?</b>","","","","0","arctic-comprehension","","","","","","","","","","","","","{""Q0"":""Barked aggressively""}","","","",""
"survey-multi-choice","36","1332691","0.0-6.0-0.0-3.0-0.5","480a36fa86593eccb1850fd44bdef000934524f6e6fa52891b04fd2f15f63e57","arctic","swim","12311","","<b>What were the weather conditions in the Arctic like the winter of the narrator&#39;s expedition?</b>","","","","0","arctic-comprehension","","","","","","","","","","","","","{""Q0"":""It was the coldest winter in recorded history.""}","","","",""
"survey-multi-choice","37","1339998","0.0-6.0-0.0-3.0-0.6","480a36fa86593eccb1850fd44bdef000934524f6e6fa52891b04fd2f15f63e57","arctic","swim","7048","","<b>Which dog on the narrator&#39;s dog team never followed instructions?</b>","","","","0","arctic-comprehension","","","","","","","","","","","","","{""Q0"":""Douggie-dog""}","","","",""
"survey-multi-choice","38","1346290","0.0-6.0-0.0-3.0-0.7","480a36fa86593eccb1850fd44bdef000934524f6e6fa52891b04fd2f15f63e57","arctic","swim","6031","","<b>How did the narrator prepare for her expedition?</b>","","","","1","arctic-comprehension","","","","","","","","","","","","","{""Q0"":""Trained in Alaska learning how to dogsled""}","","","",""
"survey-multi-choice","39","1353772","0.0-6.0-0.0-3.0-0.8","480a36fa86593eccb1850fd44bdef000934524f6e6fa52891b04fd2f15f63e57","arctic","swim","7220","","<b>What is the name of the narrator&#39;s neighbour?</b>","","","","1","arctic-comprehension","","","","","","","","","","","","","{""Q0"":""Dave""}","","","",""
"survey-multi-choice","40","1360939","0.0-6.0-0.0-3.0-0.9","480a36fa86593eccb1850fd44bdef000934524f6e6fa52891b04fd2f15f63e57","arctic","swim","6838","","<b>How many sponsorships did the narrator receive to support her expedition?</b>","","","","1","arctic-comprehension","","","","","","","","","","","","","{""Q0"":""None""}","","","",""
"html-button-response","41","1362390","0.0-6.0-0.0-4.0","480a36fa86593eccb1850fd44bdef000934524f6e6fa52891b04fd2f15f63e57","arctic","swim","1193","","<p>Thank you for your responses.</p><p>You will now answer some questions about your impressions of the story.</p>","0","","","","","","","","","","","","","","","","","","","","",""
"html-button-response","42","1366450","0.0-6.0-0.0-5.0-0.0","480a36fa86593eccb1850fd44bdef000934524f6e6fa52891b04fd2f15f63e57","arctic","swim","3999","","A4","4","","","","arctic-engagement","","","","","","","","","","","","","","5","absorption","",""
"html-button-response","43","1369668","0.0-6.0-0.0-5.0-0.1","480a36fa86593eccb1850fd44bdef000934524f6e6fa52891b04fd2f15f63e57","arctic","swim","2962","","MS1","5","","","","arctic-engagement","","","","","","","","","","","","","","6","mental-sim","",""
"html-button-response","44","1373750","0.0-6.0-0.0-5.0-0.2","480a36fa86593eccb1850fd44bdef000934524f6e6fa52891b04fd2f15f63e57","arctic","swim","3825","","A5","4","","","","arctic-engagement","","","","","","","","","","","","","","5","absorption","",""
"html-button-response","45","1381530","0.0-6.0-0.0-5.0-0.3","480a36fa86593eccb1850fd44bdef000934524f6e6fa52891b04fd2f15f63e57","arctic","swim","7521","","EE4","5","","","","arctic-engagement","","","","","","","","","","","","","","6","emo-engage","",""
"html-button-response","46","1385532","0.0-6.0-0.0-5.0-0.4","480a36fa86593eccb1850fd44bdef000934524f6e6fa52891b04fd2f15f63e57","arctic","swim","3734","","E8","4","","","","arctic-engagement","","","","","","","","","","","","","","5","enjoyment","",""
"html-button-response","47","1387868","0.0-6.0-0.0-5.0-0.5","480a36fa86593eccb1850fd44bdef000934524f6e6fa52891b04fd2f15f63e57","arctic","swim","2079","","EE3","5","","","","arctic-engagement","","","","","","","","","","","","","","6","emo-engage","",""
"html-button-response","48","1393573","0.0-6.0-0.0-5.0-0.6","480a36fa86593eccb1850fd44bdef000934524f6e6fa52891b04fd2f15f63e57","arctic","swim","5449","","A1","6","","","","arctic-engagement","","","","","","","","","","","","","","7","absorption","",""
"html-button-response","49","1400941","0.0-6.0-0.0-5.0-0.7","480a36fa86593eccb1850fd44bdef000934524f6e6fa52891b04fd2f15f63e57","arctic","swim","7114","","E6","4","","","","arctic-engagement","","","","","","","","","","","","","","5","enjoyment","",""
"html-button-response","50","1403217","0.0-6.0-0.0-5.0-0.8","480a36fa86593eccb1850fd44bdef000934524f6e6fa52891b04fd2f15f63e57","arctic","swim","2022","","EE5","5","","","","arctic-engagement","","","","","","","","","","","","","","6","emo-engage","",""
"html-button-response","51","1405053","0.0-6.0-0.0-5.0-0.9","480a36fa86593eccb1850fd44bdef000934524f6e6fa52891b04fd2f15f63e57","arctic","swim","1582","","EE2","6","","","","arctic-engagement","","","","","","","","","","","","","","7","emo-engage","",""
"html-button-response","52","1406855","0.0-6.0-0.0-5.0-0.10","480a36fa86593eccb1850fd44bdef000934524f6e6fa52891b04fd2f15f63e57","arctic","swim","1549","","E1","6","","","","arctic-engagement","","","","","","","","","","","","","","7","enjoyment","",""
"html-button-response","53","1411135","0.0-6.0-0.0-5.0-0.11","480a36fa86593eccb1850fd44bdef000934524f6e6fa52891b04fd2f15f63e57","arctic","swim","4026","","EE1","5","","","","arctic-engagement","","","","","","","","","","","","","","6","emo-engage","",""
"html-button-response","54","1413377","0.0-6.0-0.0-5.0-0.12","480a36fa86593eccb1850fd44bdef000934524f6e6fa52891b04fd2f15f63e57","arctic","swim","1984","","E10","6","","","","arctic-engagement","","","","","","","","","","","","","","7","enjoyment","",""
"html-button-response","55","1417013","0.0-6.0-0.0-5.0-0.13","480a36fa86593eccb1850fd44bdef000934524f6e6fa52891b04fd2f15f63e57","arctic","swim","3382","","MS2","6","","","","arctic-engagement","","","","","","","","","","","","","","7","mental-sim","",""
"html-button-response","56","1419766","0.0-6.0-0.0-5.0-0.14","480a36fa86593eccb1850fd44bdef000934524f6e6fa52891b04fd2f15f63e57","arctic","swim","2500","","A2","6","","","","arctic-engagement","","","","","","","","","","","","","","7","absorption","",""
"html-button-response","57","1423355","0.0-6.0-0.0-5.0-0.15","480a36fa86593eccb1850fd44bdef000934524f6e6fa52891b04fd2f15f63e57","arctic","swim","3328","","MS3","5","","","","arctic-engagement","","","","","","","","","","","","","","6","mental-sim","",""
"html-button-response","58","1425506","0.0-6.0-0.0-5.0-0.16","480a36fa86593eccb1850fd44bdef000934524f6e6fa52891b04fd2f15f63e57","arctic","swim","1899","","E7","6","","","","arctic-engagement","","","","","","","","","","","","","","7","enjoyment","",""
"html-button-response","59","1427222","0.0-6.0-0.0-5.0-0.17","480a36fa86593eccb1850fd44bdef000934524f6e6fa52891b04fd2f15f63e57","arctic","swim","1462","","A3","6","","","","arctic-engagement","","","","","","","","","","","","","","7","absorption","",""
"html-keyboard-response","60","1431077","0.0-6.0-1.0","480a36fa86593eccb1850fd44bdef000934524f6e6fa52891b04fd2f15f63e57","arctic","swim","3594","","<p>Thank you for your responses. You will now listen to the second story.</p><p>Remember, as you listen to the story you will see letters appear on the screen.</br>As quickly as possible, press <b>&lt;x&gt;</b> if the letter is lowercase and <b>&lt;m&gt;</b> if the letter is uppercase.</p><p>Press <b>&lt;x&gt;</b> or <b>&lt;m&gt;</b> to begin listening!</p>","","77","","","","","","","","","","","","","","","","","","","",""
"html-keyboard-response","61","1431579","0.0-6.0-2.0-0.0","480a36fa86593eccb1850fd44bdef000934524f6e6fa52891b04fd2f15f63e57","arctic","swim","null","","<div style=""font-size:60px;"" tabindex=""0"">+</div>","","null","","","","","","","","","","","","","","","","","","","",""
"dual-task","null","null","null","","arctic","swim","1414.4000000003725","","r","null","88","88","1","swim-dual-task","","r","lowercase","16000","0","4","480a36fa86593eccb1850fd44bdef000934524f6e6fa52891b04fd2f15f63e57","16008.200000001118","1414.4000000003725","88","1","swim","","","","",""
"dual-task","null","null","null","","arctic","swim","738.1999999992549","","E","null","77","77","1","swim-dual-task","","E","uppercase","22000","0","4","480a36fa86593eccb1850fd44bdef000934524f6e6fa52891b04fd2f15f63e57","22001.800000000745","738.1999999992549","77","1","swim","","","","",""
"dual-task","null","null","null","","arctic","swim","742.0999999996275","","a","null","88","88","1","swim-dual-task","","a","lowercase","36000","0","4","480a36fa86593eccb1850fd44bdef000934524f6e6fa52891b04fd2f15f63e57","36014.800000000745","742.0999999996275","88","1","swim","","","","",""
"dual-task","null","null","null","","arctic","swim","784","","T","null","77","77","1","swim-dual-task","","T","uppercase","46000","0","4","480a36fa86593eccb1850fd44bdef000934524f6e6fa52891b04fd2f15f63e57","46012.70000000112","784","77","1","swim","","","","",""
"dual-task","null","null","null","","arctic","swim","577.6999999992549","","G","null","77","77","1","swim-dual-task","","G","uppercase","52000","0","4","480a36fa86593eccb1850fd44bdef000934524f6e6fa52891b04fd2f15f63e57","52002.59999999963","577.6999999992549","77","1","swim","","","","",""
"dual-task","null","null","null","","arctic","swim","602.4000000003725","","b","null","88","88","1","swim-dual-task","","b","lowercase","60000","0","4","480a36fa86593eccb1850fd44bdef000934524f6e6fa52891b04fd2f15f63e57","60012.5","602.4000000003725","88","1","swim","","","","",""
"dual-task","null","null","null","","arctic","swim","537.4000000003725","","E","null","77","77","1","swim-dual-task","","E","uppercase","70000","0","4","480a36fa86593eccb1850fd44bdef000934524f6e6fa52891b04fd2f15f63e57","70002.80000000075","537.4000000003725","77","1","swim","","","","",""
"dual-task","null","null","null","","arctic","swim","728.8000000007451","","f","null","88","88","1","swim-dual-task","","f","lowercase","84000","0","4","480a36fa86593eccb1850fd44bdef000934524f6e6fa52891b04fd2f15f63e57","84006.30000000075","728.8000000007451","88","1","swim","","","","",""
"dual-task","null","null","null","","arctic","swim","761.4000000003725","","q","null","88","88","1","swim-dual-task","","q","lowercase","90000","0","4","480a36fa86593eccb1850fd44bdef000934524f6e6fa52891b04fd2f15f63e57","90001.40000000037","761.4000000003725","88","1","swim","","","","",""
"dual-task","null","null","null","","arctic","swim","835.1000000014901","","e","null","88","88","1","swim-dual-task","","e","lowercase","102000","0","4","480a36fa86593eccb1850fd44bdef000934524f6e6fa52891b04fd2f15f63e57","102003.80000000075","835.1000000014901","88","1","swim","","","","",""
"dual-task","null","null","null","","arctic","swim","720.2000000011176","","q","null","88","88","1","swim-dual-task","","q","lowercase","114000","0","4","480a36fa86593eccb1850fd44bdef000934524f6e6fa52891b04fd2f15f63e57","114010.70000000112","720.2000000011176","88","1","swim","","","","",""
"dual-task","null","null","null","","arctic","swim","916.5999999996275","","d","null","88","88","1","swim-dual-task","","d","lowercase","122000","0","4","480a36fa86593eccb1850fd44bdef000934524f6e6fa52891b04fd2f15f63e57","122007.40000000037","916.5999999996275","88","1","swim","","","","",""
"dual-task","null","null","null","","arctic","swim","1391.9000000003725","","G","null","77","77","1","swim-dual-task","","G","uppercase","130000","0","4","480a36fa86593eccb1850fd44bdef000934524f6e6fa52891b04fd2f15f63e57","130008.90000000037","1391.9000000003725","77","1","swim","","","","",""
"dual-task","null","null","null","","arctic","swim","970.5999999996275","","G","null","77","77","1","swim-dual-task","","G","uppercase","142000","0","4","480a36fa86593eccb1850fd44bdef000934524f6e6fa52891b04fd2f15f63e57","142002.09999999963","970.5999999996275","77","1","swim","","","","",""
"dual-task","null","null","null","","arctic","swim","NA","","r","null","NA","88","0","swim-dual-task","","r","lowercase","148000","1","4","480a36fa86593eccb1850fd44bdef000934524f6e6fa52891b04fd2f15f63e57","148011.40000000037","NA","NA","0","swim","","","","",""
"dual-task","null","null","null","","arctic","swim","1646.2999999988824","","Q","null","77","77","1","swim-dual-task","","Q","uppercase","158000","0","4","480a36fa86593eccb1850fd44bdef000934524f6e6fa52891b04fd2f15f63e57","158008.80000000075","1646.2999999988824","77","1","swim","","","","",""
"dual-task","null","null","null","","arctic","swim","1649","","g","null","88","88","1","swim-dual-task","","g","lowercase","166000","0","4","480a36fa86593eccb1850fd44bdef000934524f6e6fa52891b04fd2f15f63e57","166008.59999999963","1649","88","1","swim","","","","",""
"dual-task","null","null","null","","arctic","swim","NA","","a","null","NA","88","0","swim-dual-task","","a","lowercase","180000","1","4","480a36fa86593eccb1850fd44bdef000934524f6e6fa52891b04fd2f15f63e57","180004.30000000075","NA","NA","0","swim","","","","",""
"dual-task","null","null","null","","arctic","swim","1326.5","","a","null","88","88","1","swim-dual-task","","a","lowercase","192000","0","4","480a36fa86593eccb1850fd44bdef000934524f6e6fa52891b04fd2f15f63e57","192003","1326.5","88","1","swim","","","","",""
"dual-task","null","null","null","","arctic","swim","970.9000000003725","","E","null","77","77","1","swim-dual-task","","E","uppercase","200000","0","4","480a36fa86593eccb1850fd44bdef000934524f6e6fa52891b04fd2f15f63e57","200011.80000000075","970.9000000003725","77","1","swim","","","","",""
"dual-task","null","null","null","","arctic","swim","1791.9000000003725","","F","null","77","77","1","swim-dual-task","","F","uppercase","206000","0","4","480a36fa86593eccb1850fd44bdef000934524f6e6fa52891b04fd2f15f63e57","206010.09999999963","1791.9000000003725","77","1","swim","","","","",""
"dual-task","null","null","null","","arctic","swim","1116.800000000745","","h","null","88","88","1","swim-dual-task","","h","lowercase","216000","0","4","480a36fa86593eccb1850fd44bdef000934524f6e6fa52891b04fd2f15f63e57","216000.30000000075","1116.800000000745","88","1","swim","","","","",""
"dual-task","null","null","null","","arctic","swim","1068.5","","N","null","77","77","1","swim-dual-task","","N","uppercase","222000","0","4","480a36fa86593eccb1850fd44bdef000934524f6e6fa52891b04fd2f15f63e57","222010.40000000037","1068.5","77","1","swim","","","","",""
"dual-task","null","null","null","","arctic","swim","1117.699999999255","","r","null","88","88","1","swim-dual-task","","r","lowercase","232000","0","4","480a36fa86593eccb1850fd44bdef000934524f6e6fa52891b04fd2f15f63e57","232001.59999999963","1117.699999999255","88","1","swim","","","","",""
"dual-task","null","null","null","","arctic","swim","627.7000000011176","","n","null","88","88","1","swim-dual-task","","n","lowercase","244000","0","4","480a36fa86593eccb1850fd44bdef000934524f6e6fa52891b04fd2f15f63e57","244006.40000000037","627.7000000011176","88","1","swim","","","","",""
"dual-task","null","null","null","","arctic","swim","1165.9000000003725","","G","null","77","77","1","swim-dual-task","","G","uppercase","250000","0","4","480a36fa86593eccb1850fd44bdef000934524f6e6fa52891b04fd2f15f63e57","250002.09999999963","1165.9000000003725","77","1","swim","","","","",""
"dual-task","null","null","null","","arctic","swim","866.6000000014901","","N","null","77","77","1","swim-dual-task","","N","uppercase","262000","0","4","480a36fa86593eccb1850fd44bdef000934524f6e6fa52891b04fd2f15f63e57","261999.90000000037","866.6000000014901","77","1","swim","","","","",""
"dual-task","null","null","null","","arctic","swim","797.1999999992549","","R","null","77","77","1","swim-dual-task","","R","uppercase","272000","0","4","480a36fa86593eccb1850fd44bdef000934524f6e6fa52891b04fd2f15f63e57","272005.2000000011","797.1999999992549","77","1","swim","","","","",""
"dual-task","null","null","null","","arctic","swim","987.9000000003725","","T","null","77","77","1","swim-dual-task","","T","uppercase","278000","0","4","480a36fa86593eccb1850fd44bdef000934524f6e6fa52891b04fd2f15f63e57","278009.9000000004","987.9000000003725","77","1","swim","","","","",""
"dual-task","null","null","null","","arctic","swim","889.2000000011176","","H","null","77","77","1","swim-dual-task","","H","uppercase","292000","0","4","480a36fa86593eccb1850fd44bdef000934524f6e6fa52891b04fd2f15f63e57","292004.5999999996","889.2000000011176","77","1","swim","","","","",""
"dual-task","null","null","null","","arctic","swim","719.5999999996275","","B","null","77","77","1","swim-dual-task","","B","uppercase","304000","0","4","480a36fa86593eccb1850fd44bdef000934524f6e6fa52891b04fd2f15f63e57","304012.0999999996","719.5999999996275","77","1","swim","","","","",""
"dual-task","null","null","null","","arctic","swim","762.3000000007451","","T","null","77","77","1","swim-dual-task","","T","uppercase","316000","0","4","480a36fa86593eccb1850fd44bdef000934524f6e6fa52891b04fd2f15f63e57","316008.5","762.3000000007451","77","1","swim","","","","",""
"dual-task","null","null","null","","arctic","swim","1255.4000000003725","","t","null","88","88","1","swim-dual-task","","t","lowercase","324000","0","4","480a36fa86593eccb1850fd44bdef000934524f6e6fa52891b04fd2f15f63e57","324012.4000000004","1255.4000000003725","88","1","swim","","","","",""
"dual-task","null","null","null","","arctic","swim","677.9000000003725","","F","null","77","77","1","swim-dual-task","","F","uppercase","336000","0","4","480a36fa86593eccb1850fd44bdef000934524f6e6fa52891b04fd2f15f63e57","336015.4000000004","677.9000000003725","77","1","swim","","","","",""
"dual-task","null","null","null","","arctic","swim","1146.5999999996275","","g","null","88","88","1","swim-dual-task","","g","lowercase","346000","0","4","480a36fa86593eccb1850fd44bdef000934524f6e6fa52891b04fd2f15f63e57","346011.7000000011","1146.5999999996275","88","1","swim","","","","",""
"dual-task","null","null","null","","arctic","swim","960.6999999992549","","h","null","88","88","1","swim-dual-task","","h","lowercase","360000","0","4","480a36fa86593eccb1850fd44bdef000934524f6e6fa52891b04fd2f15f63e57","360002.7000000011","960.6999999992549","88","1","swim","","","","",""
"dual-task","null","null","null","","arctic","swim","1047.800000000745","","N","null","77","77","1","swim-dual-task","","N","uppercase","368000","0","4","480a36fa86593eccb1850fd44bdef000934524f6e6fa52891b04fd2f15f63e57","368010","1047.800000000745","77","1","swim","","","","",""
"dual-task","null","null","null","","arctic","swim","1781.5999999996275","","D","null","77","77","1","swim-dual-task","","D","uppercase","378000","0","4","480a36fa86593eccb1850fd44bdef000934524f6e6fa52891b04fd2f15f63e57","378003.0999999996","1781.5999999996275","77","1","swim","","","","",""
"dual-task","null","null","null","","arctic","swim","1102.6000000014901","","Q","null","77","77","1","swim-dual-task","","Q","uppercase","386000","0","4","480a36fa86593eccb1850fd44bdef000934524f6e6fa52891b04fd2f15f63e57","386005.5","1102.6000000014901","77","1","swim","","","","",""
"dual-task","null","null","null","","arctic","swim","1071.199999999255","","A","null","77","77","1","swim-dual-task","","A","uppercase","398000","0","4","480a36fa86593eccb1850fd44bdef000934524f6e6fa52891b04fd2f15f63e57","398006.0999999996","1071.199999999255","77","1","swim","","","","",""
"dual-task","null","null","null","","arctic","swim","1434.2999999988824","","f","null","88","88","1","swim-dual-task","","f","lowercase","408000","0","4","480a36fa86593eccb1850fd44bdef000934524f6e6fa52891b04fd2f15f63e57","408019.5999999996","1434.2999999988824","88","1","swim","","","","",""
"dual-task","null","null","null","","arctic","swim","1542.7999999988824","","d","null","88","88","1","swim-dual-task","","d","lowercase","418000","0","4","480a36fa86593eccb1850fd44bdef000934524f6e6fa52891b04fd2f15f63e57","418000.7000000011","1542.7999999988824","88","1","swim","","","","",""
"dual-task","null","null","null","","arctic","swim","1174.5","","e","null","88","88","1","swim-dual-task","","e","lowercase","426000","0","4","480a36fa86593eccb1850fd44bdef000934524f6e6fa52891b04fd2f15f63e57","426004.80000000075","1174.5","88","1","swim","","","","",""
"dual-task","null","null","null","","arctic","swim","790.5999999996275","","A","null","77","77","1","swim-dual-task","","A","uppercase","432000","0","4","480a36fa86593eccb1850fd44bdef000934524f6e6fa52891b04fd2f15f63e57","432008.0999999996","790.5999999996275","77","1","swim","","","","",""
"dual-task","null","null","null","","arctic","swim","927.2000000011176","","e","null","88","88","1","swim-dual-task","","e","lowercase","440000","0","4","480a36fa86593eccb1850fd44bdef000934524f6e6fa52891b04fd2f15f63e57","440009.9000000004","927.2000000011176","88","1","swim","","","","",""
"dual-task","null","null","null","","arctic","swim","1415.9000000003725","","d","null","88","88","1","swim-dual-task","","d","lowercase","448000","0","4","480a36fa86593eccb1850fd44bdef000934524f6e6fa52891b04fd2f15f63e57","448028.80000000075","1415.9000000003725","88","1","swim","","","","",""
"dual-task","null","null","null","","arctic","swim","1835.800000000745","","r","null","88","88","1","swim-dual-task","","r","lowercase","458000","0","4","480a36fa86593eccb1850fd44bdef000934524f6e6fa52891b04fd2f15f63e57","458007.4000000004","1835.800000000745","88","1","swim","","","","",""
"dual-task","null","null","null","","arctic","swim","777.6999999992549","","E","null","77","77","1","swim-dual-task","","E","uppercase","472000","0","4","480a36fa86593eccb1850fd44bdef000934524f6e6fa52891b04fd2f15f63e57","472010.0999999996","777.6999999992549","77","1","swim","","","","",""
"dual-task","null","null","null","","arctic","swim","805.2999999988824","","g","null","88","88","1","swim-dual-task","","g","lowercase","484000","0","4","480a36fa86593eccb1850fd44bdef000934524f6e6fa52891b04fd2f15f63e57","484010.0999999996","805.2999999988824","88","1","swim","","","","",""
"dual-task","null","null","null","","arctic","swim","971.7999999988824","","N","null","77","77","1","swim-dual-task","","N","uppercase","492000","0","4","480a36fa86593eccb1850fd44bdef000934524f6e6fa52891b04fd2f15f63e57","492019.5999999996","971.7999999988824","77","1","swim","","","","",""
"dual-task","null","null","null","","arctic","swim","1458.800000000745","","A","null","77","77","1","swim-dual-task","","A","uppercase","502000","0","4","480a36fa86593eccb1850fd44bdef000934524f6e6fa52891b04fd2f15f63e57","502018.30000000075","1458.800000000745","77","1","swim","","","","",""
"dual-task","null","null","null","","arctic","swim","489.09999999962747","","R","null","77","77","1","swim-dual-task","","R","uppercase","514000","0","4","480a36fa86593eccb1850fd44bdef000934524f6e6fa52891b04fd2f15f63e57","514012.2000000011","489.09999999962747","77","1","swim","","","","",""
"dual-task","null","null","null","","arctic","swim","1031","","R","null","77","77","1","swim-dual-task","","R","uppercase","526000","0","4","480a36fa86593eccb1850fd44bdef000934524f6e6fa52891b04fd2f15f63e57","526010.3000000007","1031","77","1","swim","","","","",""
"dual-task","null","null","null","","arctic","swim","1466.8999999985099","","Q","null","77","77","1","swim-dual-task","","Q","uppercase","538000","0","4","480a36fa86593eccb1850fd44bdef000934524f6e6fa52891b04fd2f15f63e57","538021","1466.8999999985099","77","1","swim","","","","",""
"dual-task","null","null","null","","arctic","swim","1453.300000000745","","d","null","88","88","1","swim-dual-task","","d","lowercase","548000","0","4","480a36fa86593eccb1850fd44bdef000934524f6e6fa52891b04fd2f15f63e57","548021.8000000007","1453.300000000745","88","1","swim","","","","",""
"dual-task","null","null","null","","arctic","swim","1448.199999999255","","T","null","77","77","1","swim-dual-task","","T","uppercase","560000","0","4","480a36fa86593eccb1850fd44bdef000934524f6e6fa52891b04fd2f15f63e57","560019.3000000007","1448.199999999255","77","1","swim","","","","",""
"dual-task","null","null","null","","arctic","swim","1870.3999999985099","","f","null","88","88","1","swim-dual-task","","f","lowercase","570000","0","4","480a36fa86593eccb1850fd44bdef000934524f6e6fa52891b04fd2f15f63e57","570014.7000000011","1870.3999999985099","88","1","swim","","","","",""
"dual-task","null","null","null","","arctic","swim","NA","","n","null","NA","88","0","swim-dual-task","","n","lowercase","576000","1","4","480a36fa86593eccb1850fd44bdef000934524f6e6fa52891b04fd2f15f63e57","576014.5999999996","NA","NA","0","swim","","","","",""
"dual-task","null","null","null","","arctic","swim","NA","","F","null","NA","77","0","swim-dual-task","","F","uppercase","584000","1","4","480a36fa86593eccb1850fd44bdef000934524f6e6fa52891b04fd2f15f63e57","584009.9000000004","NA","NA","0","swim","","","","",""
"dual-task","null","null","null","","arctic","swim","710.4000000003725","","H","null","77","77","1","swim-dual-task","","H","uppercase","596000","0","4","480a36fa86593eccb1850fd44bdef000934524f6e6fa52891b04fd2f15f63e57","596015","710.4000000003725","77","1","swim","","","","",""
"dual-task","null","null","null","","arctic","swim","1145.8999999985099","","n","null","88","88","1","swim-dual-task","","n","lowercase","608000","0","4","480a36fa86593eccb1850fd44bdef000934524f6e6fa52891b04fd2f15f63e57","608019.0999999996","1145.8999999985099","88","1","swim","","","","",""
"dual-task","null","null","null","","arctic","swim","668.7000000011176","","q","null","88","88","1","swim-dual-task","","q","lowercase","618000","0","4","480a36fa86593eccb1850fd44bdef000934524f6e6fa52891b04fd2f15f63e57","618043","668.7000000011176","88","1","swim","","","","",""
"dual-task","null","null","null","","arctic","swim","1636.2000000011176","","g","null","88","88","1","swim-dual-task","","g","lowercase","626000","0","4","480a36fa86593eccb1850fd44bdef000934524f6e6fa52891b04fd2f15f63e57","626009","1636.2000000011176","88","1","swim","","","","",""
"dual-task","null","null","null","","arctic","swim","958.5999999996275","","Q","null","77","77","1","swim-dual-task","","Q","uppercase","638000","0","4","480a36fa86593eccb1850fd44bdef000934524f6e6fa52891b04fd2f15f63e57","638019.3000000007","958.5999999996275","77","1","swim","","","","",""
"dual-task","null","null","null","","arctic","swim","1448.6000000014901","","b","null","88","88","1","swim-dual-task","","b","lowercase","644000","0","4","480a36fa86593eccb1850fd44bdef000934524f6e6fa52891b04fd2f15f63e57","644003.8000000007","1448.6000000014901","88","1","swim","","","","",""
"dual-task","null","null","null","","arctic","swim","1622.7000000011176","","h","null","88","88","1","swim-dual-task","","h","lowercase","658000","0","4","480a36fa86593eccb1850fd44bdef000934524f6e6fa52891b04fd2f15f63e57","658011.7000000011","1622.7000000011176","88","1","swim","","","","",""
"dual-task","null","null","null","","arctic","swim","1279","","D","null","77","77","1","swim-dual-task","","D","uppercase","668000","0","4","480a36fa86593eccb1850fd44bdef000934524f6e6fa52891b04fd2f15f63e57","668013.4000000004","1279","77","1","swim","","","","",""
"dual-task","null","null","null","","arctic","swim","1850.2000000011176","","t","null","88","88","1","swim-dual-task","","t","lowercase","678000","0","4","480a36fa86593eccb1850fd44bdef000934524f6e6fa52891b04fd2f15f63e57","678001","1850.2000000011176","88","1","swim","","","","",""
"dual-task","null","null","null","","arctic","swim","1555.8999999985099","","a","null","88","88","1","swim-dual-task","","a","lowercase","686000","0","4","480a36fa86593eccb1850fd44bdef000934524f6e6fa52891b04fd2f15f63e57","686008.7000000011","1555.8999999985099","88","1","swim","","","","",""
"dual-task","null","null","null","","arctic","swim","NA","","f","null","NA","88","0","swim-dual-task","","f","lowercase","698000","1","4","480a36fa86593eccb1850fd44bdef000934524f6e6fa52891b04fd2f15f63e57","698004","NA","NA","0","swim","","","","",""
"dual-task","null","null","null","","arctic","swim","NA","","n","null","NA","88","0","swim-dual-task","","n","lowercase","706000","1","4","480a36fa86593eccb1850fd44bdef000934524f6e6fa52891b04fd2f15f63e57","706014.4000000004","NA","NA","0","swim","","","","",""
"dual-task","null","null","null","","arctic","swim","1832.7000000011176","","e","null","88","88","1","swim-dual-task","","e","lowercase","714000","0","4","480a36fa86593eccb1850fd44bdef000934524f6e6fa52891b04fd2f15f63e57","714010.4000000004","1832.7000000011176","88","1","swim","","","","",""
"dual-task","null","null","null","","arctic","swim","540.5","","H","null","77","77","1","swim-dual-task","","H","uppercase","728000","0","4","480a36fa86593eccb1850fd44bdef000934524f6e6fa52891b04fd2f15f63e57","728002.5999999996","540.5","77","1","swim","","","","",""
"dual-task","null","null","null","","arctic","swim","900.8000000007451","","D","null","77","77","1","swim-dual-task","","D","uppercase","738000","0","4","480a36fa86593eccb1850fd44bdef000934524f6e6fa52891b04fd2f15f63e57","738011.9000000004","900.8000000007451","77","1","swim","","","","",""
"dual-task","null","null","null","","arctic","swim","935.7999999988824","","A","null","77","77","1","swim-dual-task","","A","uppercase","750000","0","4","480a36fa86593eccb1850fd44bdef000934524f6e6fa52891b04fd2f15f63e57","750006.3000000007","935.7999999988824","77","1","swim","","","","",""
"dual-task","null","null","null","","arctic","swim","905.5999999996275","","R","null","77","77","1","swim-dual-task","","R","uppercase","758000","0","4","480a36fa86593eccb1850fd44bdef000934524f6e6fa52891b04fd2f15f63e57","758017.0999999996","905.5999999996275","77","1","swim","","","","",""
"dual-task","null","null","null","","arctic","swim","1912.8999999985099","","h","null","88","88","1","swim-dual-task","","h","lowercase","764000","0","4","480a36fa86593eccb1850fd44bdef000934524f6e6fa52891b04fd2f15f63e57","764011.0999999996","1912.8999999985099","88","1","swim","","","","",""
"dual-task","null","null","null","","arctic","swim","NA","","B","null","NA","77","0","swim-dual-task","","B","uppercase","774000","1","4","480a36fa86593eccb1850fd44bdef000934524f6e6fa52891b04fd2f15f63e57","774002.4000000004","NA","NA","0","swim","","","","",""
"dual-task","null","null","null","","arctic","swim","1902.1000000014901","","H","null","77","77","1","swim-dual-task","","H","uppercase","780000","0","4","480a36fa86593eccb1850fd44bdef000934524f6e6fa52891b04fd2f15f63e57","780003.9000000004","1902.1000000014901","77","1","swim","","","","",""
"dual-task","null","null","null","","arctic","swim","1874.8999999985099","","q","null","88","88","1","swim-dual-task","","q","lowercase","786000","0","4","480a36fa86593eccb1850fd44bdef000934524f6e6fa52891b04fd2f15f63e57","786015.7000000011","1874.8999999985099","88","1","swim","","","","",""
"dual-task","null","null","null","","arctic","swim","1131.800000000745","","F","null","77","77","1","swim-dual-task","","F","uppercase","796000","0","4","480a36fa86593eccb1850fd44bdef000934524f6e6fa52891b04fd2f15f63e57","796004","1131.800000000745","77","1","swim","","","","",""
"audio-keyboard-response","62","2259343","0.0-6.0-2.0-1.0","480a36fa86593eccb1850fd44bdef000934524f6e6fa52891b04fd2f15f63e57","arctic","swim","null","","audio/story_swim_scrambled.mp3","","null","","","","","","","","","","","","","","","","","","","",""
"html-button-response","63","2262354","0.0-6.0-2.0-2.0","480a36fa86593eccb1850fd44bdef000934524f6e6fa52891b04fd2f15f63e57","arctic","swim","3006","","<p>This concludes the story. Thank you for listening.</p><p>You will now answer some questions about the content of the story.</p>","0","","","","","","","","","","","","","","","","","","","","",""
"survey-multi-choice","64","2277985","0.0-6.0-2.0-3.0-0.0","480a36fa86593eccb1850fd44bdef000934524f6e6fa52891b04fd2f15f63e57","arctic","swim","15624","","<b>What was the final step of the first swim test in the pool?</b>","","","","0","swim-comprehension","","","","","","","","","","","","","{""Q0"":""Swim three laps of the pool underwater""}","","","",""
"survey-multi-choice","65","2283839","0.0-6.0-2.0-3.0-0.1","480a36fa86593eccb1850fd44bdef000934524f6e6fa52891b04fd2f15f63e57","arctic","swim","5575","","<b>How many astronaut candidates reported for duty at the Johnson Space Center?</b>","","","","1","swim-comprehension","","","","","","","","","","","","","{""Q0"":""Forty-four""}","","","",""
"survey-multi-choice","66","2292006","0.0-6.0-2.0-3.0-0.2","480a36fa86593eccb1850fd44bdef000934524f6e6fa52891b04fd2f15f63e57","arctic","swim","7897","","<b>How many times did the astronaut candidates have to complete the final exercise to pass?</b>","","","","0","swim-comprehension","","","","","","","","","","","","","{""Q0"":""One""}","","","",""
"survey-multi-choice","67","2298034","0.0-6.0-2.0-3.0-0.3","480a36fa86593eccb1850fd44bdef000934524f6e6fa52891b04fd2f15f63e57","arctic","swim","5767","","<b>How did the narrator train for his swim test?</b>","","","","1","swim-comprehension","","","","","","","","","","","","","{""Q0"":""Took his kids to the pool every day""}","","","",""
"survey-multi-choice","68","2317754","0.0-6.0-2.0-3.0-0.4","480a36fa86593eccb1850fd44bdef000934524f6e6fa52891b04fd2f15f63e57","arctic","swim","19459","","<b>How often does the narrator swim, now that he is a good swimmer?</b>","","","","1","swim-comprehension","","","","","","","","","","","","","{""Q0"":""Never swam again in his life""}","","","",""
"survey-multi-choice","69","2363416","0.0-6.0-2.0-3.0-0.5","480a36fa86593eccb1850fd44bdef000934524f6e6fa52891b04fd2f15f63e57","arctic","swim","45398","","<b>What gave the narrator his greatest feeling of accomplishment?</b>","","","","1","swim-comprehension","","","","","","","","","","","","","{""Q0"":""Passing the water survival course""}","","","",""
"survey-multi-choice","70","2368293","0.0-6.0-2.0-3.0-0.6","480a36fa86593eccb1850fd44bdef000934524f6e6fa52891b04fd2f15f63e57","arctic","swim","4613","","<b>Where is the home of naval aviation?</b>","","","","1","swim-comprehension","","","","","","","","","","","","","{""Q0"":""Pensacola""}","","","",""
"survey-multi-choice","71","2385239","0.0-6.0-2.0-3.0-0.7","480a36fa86593eccb1850fd44bdef000934524f6e6fa52891b04fd2f15f63e57","arctic","swim","16681","","<b>What is the narrator afraid of, aside from the water?</b>","","","","0","swim-comprehension","","","","","","","","","","","","","{""Q0"":""Loud noises""}","","","",""
"survey-multi-choice","72","2392143","0.0-6.0-2.0-3.0-0.8","480a36fa86593eccb1850fd44bdef000934524f6e6fa52891b04fd2f15f63e57","arctic","swim","6634","","<b>How many astronaut candidates passed the first swim test?</b>","","","","0","swim-comprehension","","","","","","","","","","","","","{""Q0"":""Two""}","","","",""
"survey-multi-choice","73","2411263","0.0-6.0-2.0-3.0-0.9","480a36fa86593eccb1850fd44bdef000934524f6e6fa52891b04fd2f15f63e57","arctic","swim","18851","","<b>What were the astronaut candidates trained to do at the naval air station?</b>","","","","0","swim-comprehension","","","","","","","","","","","","","{""Q0"":""Live in space""}","","","",""
"html-button-response","74","2415888","0.0-6.0-2.0-4.0","480a36fa86593eccb1850fd44bdef000934524f6e6fa52891b04fd2f15f63e57","arctic","swim","4372","","<p>Thank you for your responses.</p><p>You will now answer some questions about your impressions of the story.</p>","0","","","","","","","","","","","","","","","","","","","","",""
"html-button-response","75","2420241","0.0-6.0-2.0-5.0-0.0","480a36fa86593eccb1850fd44bdef000934524f6e6fa52891b04fd2f15f63e57","arctic","swim","4351","","E8","1","","","","swim-engagement","","","","","","","","","","","","","","2","enjoyment","",""
"html-button-response","76","2422956","0.0-6.0-2.0-5.0-0.1","480a36fa86593eccb1850fd44bdef000934524f6e6fa52891b04fd2f15f63e57","arctic","swim","2462","","EE2","5","","","","swim-engagement","","","","","","","","","","","","","","6","emo-engage","",""
"html-button-response","77","2425993","0.0-6.0-2.0-5.0-0.2","480a36fa86593eccb1850fd44bdef000934524f6e6fa52891b04fd2f15f63e57","arctic","swim","2783","","A2","6","","","","swim-engagement","","","","","","","","","","","","","","7","absorption","",""
"html-button-response","78","2429045","0.0-6.0-2.0-5.0-0.3","480a36fa86593eccb1850fd44bdef000934524f6e6fa52891b04fd2f15f63e57","arctic","swim","2799","","E6","4","","","","swim-engagement","","","","","","","","","","","","","","5","enjoyment","",""
"html-button-response","79","2431246","0.0-6.0-2.0-5.0-0.4","480a36fa86593eccb1850fd44bdef000934524f6e6fa52891b04fd2f15f63e57","arctic","swim","1948","","E10","3","","","","swim-engagement","","","","","","","","","","","","","","4","enjoyment","",""
"html-button-response","80","2434736","0.0-6.0-2.0-5.0-0.5","480a36fa86593eccb1850fd44bdef000934524f6e6fa52891b04fd2f15f63e57","arctic","swim","3236","","A1","6","","","","swim-engagement","","","","","","","","","","","","","","7","absorption","",""
"html-button-response","81","2440327","0.0-6.0-2.0-5.0-0.6","480a36fa86593eccb1850fd44bdef000934524f6e6fa52891b04fd2f15f63e57","arctic","swim","5322","","MS2","5","","","","swim-engagement","","","","","","","","","","","","","","6","mental-sim","",""
"html-button-response","82","2449431","0.0-6.0-2.0-5.0-0.7","480a36fa86593eccb1850fd44bdef000934524f6e6fa52891b04fd2f15f63e57","arctic","swim","8838","","A4","5","","","","swim-engagement","","","","","","","","","","","","","","6","absorption","",""
"html-button-response","83","2460636","0.0-6.0-2.0-5.0-0.8","480a36fa86593eccb1850fd44bdef000934524f6e6fa52891b04fd2f15f63e57","arctic","swim","10953","","EE3","4","","","","swim-engagement","","","","","","","","","","","","","","5","emo-engage","",""
"html-button-response","84","2463540","0.0-6.0-2.0-5.0-0.9","480a36fa86593eccb1850fd44bdef000934524f6e6fa52891b04fd2f15f63e57","arctic","swim","2649","","E7","5","","","","swim-engagement","","","","","","","","","","","","","","6","enjoyment","",""
"html-button-response","85","2468166","0.0-6.0-2.0-5.0-0.10","480a36fa86593eccb1850fd44bdef000934524f6e6fa52891b04fd2f15f63e57","arctic","swim","4372","","MS3","6","","","","swim-engagement","","","","","","","","","","","","","","7","mental-sim","",""
"html-button-response","86","2471345","0.0-6.0-2.0-5.0-0.11","480a36fa86593eccb1850fd44bdef000934524f6e6fa52891b04fd2f15f63e57","arctic","swim","2926","","A3","3","","","","swim-engagement","","","","","","","","","","","","","","4","absorption","",""
"html-button-response","87","2477297","0.0-6.0-2.0-5.0-0.12","480a36fa86593eccb1850fd44bdef000934524f6e6fa52891b04fd2f15f63e57","arctic","swim","5698","","EE5","3","","","","swim-engagement","","","","","","","","","","","","","","4","emo-engage","",""
"html-button-response","88","2479773","0.0-6.0-2.0-5.0-0.13","480a36fa86593eccb1850fd44bdef000934524f6e6fa52891b04fd2f15f63e57","arctic","swim","2222","","E1","3","","","","swim-engagement","","","","","","","","","","","","","","4","enjoyment","",""
"html-button-response","89","2498439","0.0-6.0-2.0-5.0-0.14","480a36fa86593eccb1850fd44bdef000934524f6e6fa52891b04fd2f15f63e57","arctic","swim","18413","","MS1","5","","","","swim-engagement","","","","","","","","","","","","","","6","mental-sim","",""
"html-button-response","90","2502364","0.0-6.0-2.0-5.0-0.15","480a36fa86593eccb1850fd44bdef000934524f6e6fa52891b04fd2f15f63e57","arctic","swim","3671","","EE4","4","","","","swim-engagement","","","","","","","","","","","","","","5","emo-engage","",""
"html-button-response","91","2506769","0.0-6.0-2.0-5.0-0.16","480a36fa86593eccb1850fd44bdef000934524f6e6fa52891b04fd2f15f63e57","arctic","swim","4152","","EE1","5","","","","swim-engagement","","","","","","","","","","","","","","6","emo-engage","",""
"html-button-response","92","2509620","0.0-6.0-2.0-5.0-0.17","480a36fa86593eccb1850fd44bdef000934524f6e6fa52891b04fd2f15f63e57","arctic","swim","2595","","A5","5","","","","swim-engagement","","","","","","","","","","","","","","6","absorption","",""
"html-button-response","93","2511404","0.0-8.0","480a36fa86593eccb1850fd44bdef000934524f6e6fa52891b04fd2f15f63e57","arctic","swim","1531","","<p>Thank you for your responses.</p><p>You will now answer some demographic, hearing, and general health questions.</p>","0","","","","","","","","","","","","","","","","","","","","",""
"survey-multi-choice","94","2514344","0.0-9.0-0.0","480a36fa86593eccb1850fd44bdef000934524f6e6fa52891b04fd2f15f63e57","arctic","swim","2934","","","","","","","survey","","","","","","","","","","","","","{""Q0"":""Chrome""}","","","browser",""
"survey-text","95","2518573","0.0-9.0-1.0","480a36fa86593eccb1850fd44bdef000934524f6e6fa52891b04fd2f15f63e57","arctic","swim","3783.7000000011176","","","","","","","survey","","","","","","","","","","","","","{""AGE"":""31""}","","","age","31"
"survey-multi-choice","96","2522437","0.0-9.0-2.0","480a36fa86593eccb1850fd44bdef000934524f6e6fa52891b04fd2f15f63e57","arctic","swim","3603","","","","","","","survey","","","","","","","","","","","","","{""Q0"":""Female""}","","","gender","Female"
"survey-multi-choice","97","2526138","0.0-9.0-4.0","480a36fa86593eccb1850fd44bdef000934524f6e6fa52891b04fd2f15f63e57","arctic","swim","3443","","","","","","","survey","","","","","","","","","","","","","{""Q0"":""Right""}","","","handedness","Right"
"survey-multi-choice","98","2529999","0.0-9.0-5.0","480a36fa86593eccb1850fd44bdef000934524f6e6fa52891b04fd2f15f63e57","arctic","swim","3566","","","","","","","survey","","","","","","","","","","","","","{""Q0"":""Bachelor's Degree""}","","","education","Bachelor's Degree"
"survey-text","99","2536647","0.0-10.0-0.0","480a36fa86593eccb1850fd44bdef000934524f6e6fa52891b04fd2f15f63e57","arctic","swim","6354.5999999996275","","","","","","","survey","","","","","","","","","","","","","{""L1"":""English""}","","","first-language","English"
"survey-text","100","2561787","0.0-10.0-1.0","480a36fa86593eccb1850fd44bdef000934524f6e6fa52891b04fd2f15f63e57","arctic","swim","24857.400000000373","","","","","","","survey","","","","","","","","","","","","","{""L2name"":""French"",""L2fluency"":""6"",""L3name"":""Korean"",""L3fluency"":""6"",""L4name"":""Spanish"",""L4fluency"":""6""}","","","additional-languages","{""L2name"":""French"",""L2fluency"":""6"",""L3name"":""Korean"",""L3fluency"":""6"",""L4name"":""Spanish"",""L4fluency"":""6""}"
"survey-multi-choice","101","2565600","0.0-10.0-2.0","480a36fa86593eccb1850fd44bdef000934524f6e6fa52891b04fd2f15f63e57","arctic","swim","3551","","","","","","","survey","","","","","","","","","","","","","{""Q0"":""No""}","","","hearing-aid","No"
"survey-multi-choice","102","2567915","0.0-10.0-3.0","480a36fa86593eccb1850fd44bdef000934524f6e6fa52891b04fd2f15f63e57","arctic","swim","2055","","","","","","","survey","","","","","","","","","","","","","{""Q0"":""Sometimes""}","","","ringing-ears","Sometimes"
"survey-multi-choice","103","2570415","0.0-10.0-4.0-0.0","480a36fa86593eccb1850fd44bdef000934524f6e6fa52891b04fd2f15f63e57","arctic","swim","2232","","","","","","","survey","","","","","","","","","","","","","{""Q0"":""Both Ears""}","","","ringing-ear-loc","Both Ears"
"survey-multi-choice","104","2572579","0.0-10.0-5.0","480a36fa86593eccb1850fd44bdef000934524f6e6fa52891b04fd2f15f63e57","arctic","swim","1892","","","","","","","survey","","","","","","","","","","","","","{""Q0"":""No""}","","","neuro-disease","No"
"survey-multi-choice","105","2575831","0.0-10.0-7.0","480a36fa86593eccb1850fd44bdef000934524f6e6fa52891b04fd2f15f63e57","arctic","swim","2996","","","","","","","survey","","","","","","","","","","","","","{""Q0"":""No""}","","","take-meds","No"
"survey-text","106","2598957","0.0-10.0-9.0","480a36fa86593eccb1850fd44bdef000934524f6e6fa52891b04fd2f15f63e57","arctic","swim","22380.699999999255","","","","","","","survey","","","","","","","","","","","","","{""HC"":""I don't have any other health problem that would affect my participation in this study. Thank you.""}","","","health-concerns","I don't have any other health problem that would affect my participation in this study. Thank you."
"html-button-response","107","2602525","0.0-11.0-0.0","480a36fa86593eccb1850fd44bdef000934524f6e6fa52891b04fd2f15f63e57","arctic","swim","3314","","<p>How would you describe your musical skills/experiences?</p>","1","","","","survey","","","","","","","","","","","","","","","","music-skill","2"
"survey-multi-choice","108","2604740","0.0-11.0-1.0","480a36fa86593eccb1850fd44bdef000934524f6e6fa52891b04fd2f15f63e57","arctic","swim","1894","","","","","","","survey","","","","","","","","","","","","","{""Q0"":""Yes""}","","","music-instrument","Yes"
"survey-text","109","2607506","0.0-11.0-2.0-0.0","480a36fa86593eccb1850fd44bdef000934524f6e6fa52891b04fd2f15f63e57","arctic","swim","2502.5","","","","","","","survey","","","","","","","","","","","","","{""MEXP"":""1""}","","","music-training-yrs","1"
"html-button-response","110","2609504","0.0-12.0-0.0","480a36fa86593eccb1850fd44bdef000934524f6e6fa52891b04fd2f15f63e57","arctic","swim","1742","","<p>How would you describe your general hearing abilities?</p>","5","","","","survey","","","","","","","","","","","","","","","","ssq-01","6"
"html-button-response","111","2613699","0.0-12.0-1.0","480a36fa86593eccb1850fd44bdef000934524f6e6fa52891b04fd2f15f63e57","arctic","swim","3880","","<p>When you talk with someone at a place that strongly reverberates/echoes (e.g., in a church or train station),</br>can you understand what the person says?</p>","10","","","","survey","","","","","","","","","","","","","","","","ssq-02","10"
"html-button-response","112","2617073","0.0-12.0-2.0","480a36fa86593eccb1850fd44bdef000934524f6e6fa52891b04fd2f15f63e57","arctic","swim","3118","","<p>When you are with a group (~5 people) in a lively restaurant, can you follow the group's conversation?</p>","10","","","","survey","","","","","","","","","","","","","","","","ssq-03","10"
"html-button-response","113","2640218","0.0-12.0-3.0","480a36fa86593eccb1850fd44bdef000934524f6e6fa52891b04fd2f15f63e57","arctic","swim","22887","","<p>Based on the sound of a bus or truck, can you tell whether it is moving towards or away from you?</p>","10","","","","survey","","","","","","","","","","","","","","","","ssq-04","10"
"html-button-response","114","2643695","0.0-12.0-4.0","480a36fa86593eccb1850fd44bdef000934524f6e6fa52891b04fd2f15f63e57","arctic","swim","3221","","<p>When you are in an unknown environment, can you tell from which direction a brief sound originates?</p>","10","","","","survey","","","","","","","","","","","","","","","","ssq-05","10"
"html-button-response","115","2647607","0.0-12.0-5.0","480a36fa86593eccb1850fd44bdef000934524f6e6fa52891b04fd2f15f63e57","arctic","swim","3656","","<p>Are you able to ignore distracting sounds when you concentrate on a specific aspect of your acoustic surrounding?</p>","10","","","","survey","","","","","","","","","","","","","","","","ssq-06","10"
"fullscreen","116","2649582","0.0-13.0","480a36fa86593eccb1850fd44bdef000934524f6e6fa52891b04fd2f15f63e57","arctic","swim","","","","","","","","","true","","","","","","","","","","","","","","","",""
