"trial_type","trial_index","time_elapsed","internal_node_id","ParticipantID","firstStory","scramStory","rt","url","stimulus","button_pressed","key_press","correctRESP","correct","designation","success","letterStim","letterType","ONSET","TIMEOUT","CONDITION","Participant","ONSET_ACTUAL","RT","RESP","ACC","STORY","responses","response","type","surveyQuestion","QRESP"
"pavlovia","0","5","0.0-0.0","01d92d17ed0ea9d99d2bac6381808c7ee69318be66dd3daf29c6bf4568786f8d","swim","swim","","","","","","","","","","","","","","","","","","","","","","","","",""
"external-html","1","3345","0.0-1.0","01d92d17ed0ea9d99d2bac6381808c7ee69318be66dd3daf29c6bf4568786f8d","swim","swim","2922","consent/consent_updated.html","","","","","","","","","","","","","","","","","","","","","","",""
"html-button-response","2","4664","0.0-2.0-0.0","01d92d17ed0ea9d99d2bac6381808c7ee69318be66dd3daf29c6bf4568786f8d","swim","swim","1317","","<p>Before we begin the main task, you will complete a short volume calibration and headphone check.</p><p>Please make sure you are in a quiet listening environment, that you are wearing headphones, and that your computer's volume is turned on.<p></p>","0","","","","","","","","","","","","","","","","","","","","",""
"html-button-response","3","5680","0.0-2.0-1.0","01d92d17ed0ea9d99d2bac6381808c7ee69318be66dd3daf29c6bf4568786f8d","swim","swim","759","","<p>The volume calibration will be first.</p><p>You will hear a thirty-second noise. Please adjust your computer's volume so that this noise is being presented at a comfortable level.<p></p>","0","","","","","","","","","","","","","","","","","","","","",""
"audio-button-response","4","6928","0.0-2.0-2.0","01d92d17ed0ea9d99d2bac6381808c7ee69318be66dd3daf29c6bf4568786f8d","swim","swim","996","","audio/volumetest.mp3","0","","","","","","","","","","","","","","","","","","","","",""
"html-keyboard-response","5","9113","0.0-3.0-0.0","01d92d17ed0ea9d99d2bac6381808c7ee69318be66dd3daf29c6bf4568786f8d","swim","swim","2183","","<p>You will now complete a short headphone check.</p><p>On each trial, you will hear three tones. One of these tones will be quieter than the others. Your task is to identify whether the quiet tone occurred first, second, or third.</p><p>There are six trials in total.<p></p><p></p>(Press SPACEBAR to begin)","","32","","","","","","","","","","","","","","","","","","","",""
"html-keyboard-response","6","9881","0.0-3.0-1.0-0.0","01d92d17ed0ea9d99d2bac6381808c7ee69318be66dd3daf29c6bf4568786f8d","swim","swim","null","","<div style=""font-size:60px;"">+</div>","","null","","","","","","","","","","","","","","","","","","","",""
"audio-button-response","7","14162","0.0-3.0-1.0-1.0","01d92d17ed0ea9d99d2bac6381808c7ee69318be66dd3daf29c6bf4568786f8d","swim","swim","4277","","audio/t2_1.mp3","1","","1","1","headphone-test","","","","","","","","","","","","","","","","",""
"html-keyboard-response","8","14671","0.0-3.0-1.0-2.0","01d92d17ed0ea9d99d2bac6381808c7ee69318be66dd3daf29c6bf4568786f8d","swim","swim","null","","<p>Correct</p>","","null","","","","","","","","","","","","","","","","","","","",""
"html-keyboard-response","9","15182","0.0-3.0-1.0-0.1","01d92d17ed0ea9d99d2bac6381808c7ee69318be66dd3daf29c6bf4568786f8d","swim","swim","null","","<div style=""font-size:60px;"">+</div>","","null","","","","","","","","","","","","","","","","","","","",""
"audio-button-response","10","18887","0.0-3.0-1.0-1.1","01d92d17ed0ea9d99d2bac6381808c7ee69318be66dd3daf29c6bf4568786f8d","swim","swim","3704","","audio/t1_1.mp3","0","","0","1","headphone-test","","","","","","","","","","","","","","","","",""
"html-keyboard-response","11","19391","0.0-3.0-1.0-2.1","01d92d17ed0ea9d99d2bac6381808c7ee69318be66dd3daf29c6bf4568786f8d","swim","swim","null","","<p>Correct</p>","","null","","","","","","","","","","","","","","","","","","","",""
"html-keyboard-response","12","19892","0.0-3.0-1.0-0.2","01d92d17ed0ea9d99d2bac6381808c7ee69318be66dd3daf29c6bf4568786f8d","swim","swim","null","","<div style=""font-size:60px;"">+</div>","","null","","","","","","","","","","","","","","","","","","","",""
"audio-button-response","13","24012","0.0-3.0-1.0-1.2","01d92d17ed0ea9d99d2bac6381808c7ee69318be66dd3daf29c6bf4568786f8d","swim","swim","4119","","audio/t2_2.mp3","1","","1","1","headphone-test","","","","","","","","","","","","","","","","",""
"html-keyboard-response","14","24523","0.0-3.0-1.0-2.2","01d92d17ed0ea9d99d2bac6381808c7ee69318be66dd3daf29c6bf4568786f8d","swim","swim","null","","<p>Correct</p>","","null","","","","","","","","","","","","","","","","","","","",""
"html-keyboard-response","15","25032","0.0-3.0-1.0-0.3","01d92d17ed0ea9d99d2bac6381808c7ee69318be66dd3daf29c6bf4568786f8d","swim","swim","null","","<div style=""font-size:60px;"">+</div>","","null","","","","","","","","","","","","","","","","","","","",""
"audio-button-response","16","28869","0.0-3.0-1.0-1.3","01d92d17ed0ea9d99d2bac6381808c7ee69318be66dd3daf29c6bf4568786f8d","swim","swim","3835","","audio/t1_2.mp3","0","","0","1","headphone-test","","","","","","","","","","","","","","","","",""
"html-keyboard-response","17","29372","0.0-3.0-1.0-2.3","01d92d17ed0ea9d99d2bac6381808c7ee69318be66dd3daf29c6bf4568786f8d","swim","swim","null","","<p>Correct</p>","","null","","","","","","","","","","","","","","","","","","","",""
"html-keyboard-response","18","29882","0.0-3.0-1.0-0.4","01d92d17ed0ea9d99d2bac6381808c7ee69318be66dd3daf29c6bf4568786f8d","swim","swim","null","","<div style=""font-size:60px;"">+</div>","","null","","","","","","","","","","","","","","","","","","","",""
"audio-button-response","19","33458","0.0-3.0-1.0-1.4","01d92d17ed0ea9d99d2bac6381808c7ee69318be66dd3daf29c6bf4568786f8d","swim","swim","3575","","audio/t3_1.mp3","2","","2","1","headphone-test","","","","","","","","","","","","","","","","",""
"html-keyboard-response","20","33960","0.0-3.0-1.0-2.4","01d92d17ed0ea9d99d2bac6381808c7ee69318be66dd3daf29c6bf4568786f8d","swim","swim","null","","<p>Correct</p>","","null","","","","","","","","","","","","","","","","","","","",""
"html-keyboard-response","21","34463","0.0-3.0-1.0-0.5","01d92d17ed0ea9d99d2bac6381808c7ee69318be66dd3daf29c6bf4568786f8d","swim","swim","null","","<div style=""font-size:60px;"">+</div>","","null","","","","","","","","","","","","","","","","","","","",""
"audio-button-response","22","38135","0.0-3.0-1.0-1.5","01d92d17ed0ea9d99d2bac6381808c7ee69318be66dd3daf29c6bf4568786f8d","swim","swim","3670","","audio/t3_2.mp3","2","","2","1","headphone-test","","","","","","","","","","","","","","","","",""
"html-keyboard-response","23","38643","0.0-3.0-1.0-2.5","01d92d17ed0ea9d99d2bac6381808c7ee69318be66dd3daf29c6bf4568786f8d","swim","swim","null","","<p>Correct</p>","","null","","","","","","","","","","","","","","","","","","","",""
"fullscreen","24","40755","0.0-4.0","01d92d17ed0ea9d99d2bac6381808c7ee69318be66dd3daf29c6bf4568786f8d","swim","swim","","","","","","","","","true","","","","","","","","","","","","","","","",""
"html-button-response","25","48023","0.0-5.0-0.0","01d92d17ed0ea9d99d2bac6381808c7ee69318be66dd3daf29c6bf4568786f8d","swim","swim","7268","","<p>There are two blocks to this experiment.</p><p>In each block, you will hear a ~13.5 minute story. One of the stories will be scrambled. Please listen carefully to both stories and understand them as best you can.</p><p>After each story, you will be asked some questions to assess your comprehension.</p>","0","","","","","","","","","","","","","","","","","","","","",""
"html-button-response","26","55350","0.0-5.0-1.0","01d92d17ed0ea9d99d2bac6381808c7ee69318be66dd3daf29c6bf4568786f8d","swim","swim","7325","","<p>During each story, there will be an additional task.</p><p>A letter will occasionally appear on the screen.</br>Your job is to - as quickly as you can - decide whether the letter is lowercase or uppercase and press one of two keys on the keyboard:</p><p>If the letter is <b>lowercase</b>, press key &lt;<b>x</b>&gt;.</p><p>If the letter is <b>uppercase</b>, press key &lt;<b>m</b>&gt;.</p>","0","","","","","","","","","","","","","","","","","","","","",""
"html-keyboard-response","27","61630","0.0-5.0-2.0","01d92d17ed0ea9d99d2bac6381808c7ee69318be66dd3daf29c6bf4568786f8d","swim","swim","6279","","<p>Because we want your responses to be as quick as possible, please keep your index fingers over the keys while listening.</p><p>Each block lasts about 20 minutes.</p><p><b>Press &lt;x&gt; or &lt;m&gt; to start the first block!</b></p>","","88","","","","","","","","","","","","","","","","","","","",""
"html-keyboard-response","28","62137","0.0-7.0-0.0-0.0","01d92d17ed0ea9d99d2bac6381808c7ee69318be66dd3daf29c6bf4568786f8d","swim","swim","null","","<div style=""font-size:60px;"" tabindex=""0"">+</div>","","null","","","","","","","","","","","","","","","","","","","",""
"dual-task","null","null","null","","swim","swim","NA","","t","null","NA","88","0","swim-dual-task","","t","lowercase","14000","1","3","01d92d17ed0ea9d99d2bac6381808c7ee69318be66dd3daf29c6bf4568786f8d","14004","NA","NA","0","swim","","","","",""
"dual-task","null","null","null","","swim","swim","NA","","h","null","NA","88","0","swim-dual-task","","h","lowercase","20000","1","3","01d92d17ed0ea9d99d2bac6381808c7ee69318be66dd3daf29c6bf4568786f8d","20019","NA","NA","0","swim","","","","",""
"dual-task","null","null","null","","swim","swim","713","","b","null","88","88","1","swim-dual-task","","b","lowercase","32000","0","3","01d92d17ed0ea9d99d2bac6381808c7ee69318be66dd3daf29c6bf4568786f8d","31999","713","88","1","swim","","","","",""
"dual-task","null","null","null","","swim","swim","865","","R","null","77","77","1","swim-dual-task","","R","uppercase","44000","0","3","01d92d17ed0ea9d99d2bac6381808c7ee69318be66dd3daf29c6bf4568786f8d","43999","865","77","1","swim","","","","",""
"dual-task","null","null","null","","swim","swim","NA","","b","null","NA","88","0","swim-dual-task","","b","lowercase","56000","1","3","01d92d17ed0ea9d99d2bac6381808c7ee69318be66dd3daf29c6bf4568786f8d","56006","NA","NA","0","swim","","","","",""
"dual-task","null","null","null","","swim","swim","1248","","D","null","77","77","1","swim-dual-task","","D","uppercase","66000","0","3","01d92d17ed0ea9d99d2bac6381808c7ee69318be66dd3daf29c6bf4568786f8d","66007","1248","77","1","swim","","","","",""
"dual-task","null","null","null","","swim","swim","659","","D","null","77","77","1","swim-dual-task","","D","uppercase","80000","0","3","01d92d17ed0ea9d99d2bac6381808c7ee69318be66dd3daf29c6bf4568786f8d","80004","659","77","1","swim","","","","",""
"dual-task","null","null","null","","swim","swim","702","","N","null","77","77","1","swim-dual-task","","N","uppercase","88000","0","3","01d92d17ed0ea9d99d2bac6381808c7ee69318be66dd3daf29c6bf4568786f8d","88001","702","77","1","swim","","","","",""
"dual-task","null","null","null","","swim","swim","NA","","H","null","NA","77","0","swim-dual-task","","H","uppercase","96000","1","3","01d92d17ed0ea9d99d2bac6381808c7ee69318be66dd3daf29c6bf4568786f8d","96003","NA","NA","0","swim","","","","",""
"dual-task","null","null","null","","swim","swim","913","","N","null","77","77","1","swim-dual-task","","N","uppercase","106000","0","3","01d92d17ed0ea9d99d2bac6381808c7ee69318be66dd3daf29c6bf4568786f8d","106006","913","77","1","swim","","","","",""
"dual-task","null","null","null","","swim","swim","1551","","E","null","77","77","1","swim-dual-task","","E","uppercase","112000","0","3","01d92d17ed0ea9d99d2bac6381808c7ee69318be66dd3daf29c6bf4568786f8d","112000","1551","77","1","swim","","","","",""
"dual-task","null","null","null","","swim","swim","NA","","h","null","NA","88","0","swim-dual-task","","h","lowercase","120000","1","3","01d92d17ed0ea9d99d2bac6381808c7ee69318be66dd3daf29c6bf4568786f8d","120002","NA","NA","0","swim","","","","",""
"dual-task","null","null","null","","swim","swim","538","","B","null","77","77","1","swim-dual-task","","B","uppercase","134000","0","3","01d92d17ed0ea9d99d2bac6381808c7ee69318be66dd3daf29c6bf4568786f8d","134005","538","77","1","swim","","","","",""
"dual-task","null","null","null","","swim","swim","770","","a","null","88","88","1","swim-dual-task","","a","lowercase","144000","0","3","01d92d17ed0ea9d99d2bac6381808c7ee69318be66dd3daf29c6bf4568786f8d","144007","770","88","1","swim","","","","",""
"dual-task","null","null","null","","swim","swim","631","","r","null","88","88","1","swim-dual-task","","r","lowercase","152000","0","3","01d92d17ed0ea9d99d2bac6381808c7ee69318be66dd3daf29c6bf4568786f8d","151999","631","88","1","swim","","","","",""
"dual-task","null","null","null","","swim","swim","741","","G","null","77","77","1","swim-dual-task","","G","uppercase","164000","0","3","01d92d17ed0ea9d99d2bac6381808c7ee69318be66dd3daf29c6bf4568786f8d","164001","741","77","1","swim","","","","",""
"dual-task","null","null","null","","swim","swim","819","","B","null","77","77","1","swim-dual-task","","B","uppercase","176000","0","3","01d92d17ed0ea9d99d2bac6381808c7ee69318be66dd3daf29c6bf4568786f8d","176003","819","77","1","swim","","","","",""
"dual-task","null","null","null","","swim","swim","745","","t","null","88","88","1","swim-dual-task","","t","lowercase","188000","0","3","01d92d17ed0ea9d99d2bac6381808c7ee69318be66dd3daf29c6bf4568786f8d","188006","745","88","1","swim","","","","",""
"dual-task","null","null","null","","swim","swim","495","","A","null","77","77","1","swim-dual-task","","A","uppercase","198000","0","3","01d92d17ed0ea9d99d2bac6381808c7ee69318be66dd3daf29c6bf4568786f8d","198000","495","77","1","swim","","","","",""
"dual-task","null","null","null","","swim","swim","629","","q","null","88","88","1","swim-dual-task","","q","lowercase","208000","0","3","01d92d17ed0ea9d99d2bac6381808c7ee69318be66dd3daf29c6bf4568786f8d","208001","629","88","1","swim","","","","",""
"dual-task","null","null","null","","swim","swim","618","","R","null","77","77","1","swim-dual-task","","R","uppercase","218000","0","3","01d92d17ed0ea9d99d2bac6381808c7ee69318be66dd3daf29c6bf4568786f8d","218003","618","77","1","swim","","","","",""
"dual-task","null","null","null","","swim","swim","569","","Q","null","77","77","1","swim-dual-task","","Q","uppercase","228000","0","3","01d92d17ed0ea9d99d2bac6381808c7ee69318be66dd3daf29c6bf4568786f8d","228005","569","77","1","swim","","","","",""
"dual-task","null","null","null","","swim","swim","598","","g","null","88","88","1","swim-dual-task","","g","lowercase","240000","0","3","01d92d17ed0ea9d99d2bac6381808c7ee69318be66dd3daf29c6bf4568786f8d","240008","598","88","1","swim","","","","",""
"dual-task","null","null","null","","swim","swim","NA","","T","null","NA","77","0","swim-dual-task","","T","uppercase","252000","1","3","01d92d17ed0ea9d99d2bac6381808c7ee69318be66dd3daf29c6bf4568786f8d","252000","NA","NA","0","swim","","","","",""
"dual-task","null","null","null","","swim","swim","755","","d","null","88","88","1","swim-dual-task","","d","lowercase","260000","0","3","01d92d17ed0ea9d99d2bac6381808c7ee69318be66dd3daf29c6bf4568786f8d","260003","755","88","1","swim","","","","",""
"dual-task","null","null","null","","swim","swim","702","","A","null","77","77","1","swim-dual-task","","A","uppercase","274000","0","3","01d92d17ed0ea9d99d2bac6381808c7ee69318be66dd3daf29c6bf4568786f8d","274007","702","77","1","swim","","","","",""
"dual-task","null","null","null","","swim","swim","749","","F","null","77","77","1","swim-dual-task","","F","uppercase","284000","0","3","01d92d17ed0ea9d99d2bac6381808c7ee69318be66dd3daf29c6bf4568786f8d","284001","749","77","1","swim","","","","",""
"dual-task","null","null","null","","swim","swim","702","","B","null","77","77","1","swim-dual-task","","B","uppercase","296000","0","3","01d92d17ed0ea9d99d2bac6381808c7ee69318be66dd3daf29c6bf4568786f8d","296000","702","77","1","swim","","","","",""
"dual-task","null","null","null","","swim","swim","891","","f","null","88","88","1","swim-dual-task","","f","lowercase","310000","0","3","01d92d17ed0ea9d99d2bac6381808c7ee69318be66dd3daf29c6bf4568786f8d","310003","891","88","1","swim","","","","",""
"dual-task","null","null","null","","swim","swim","979","","T","null","77","77","1","swim-dual-task","","T","uppercase","318000","0","3","01d92d17ed0ea9d99d2bac6381808c7ee69318be66dd3daf29c6bf4568786f8d","318003","979","77","1","swim","","","","",""
"dual-task","null","null","null","","swim","swim","648","","h","null","88","88","1","swim-dual-task","","h","lowercase","328000","0","3","01d92d17ed0ea9d99d2bac6381808c7ee69318be66dd3daf29c6bf4568786f8d","328006","648","88","1","swim","","","","",""
"dual-task","null","null","null","","swim","swim","511","","R","null","77","77","1","swim-dual-task","","R","uppercase","334000","0","3","01d92d17ed0ea9d99d2bac6381808c7ee69318be66dd3daf29c6bf4568786f8d","334006","511","77","1","swim","","","","",""
"dual-task","null","null","null","","swim","swim","556","","g","null","88","88","1","swim-dual-task","","g","lowercase","344000","0","3","01d92d17ed0ea9d99d2bac6381808c7ee69318be66dd3daf29c6bf4568786f8d","344009","556","88","1","swim","","","","",""
"dual-task","null","null","null","","swim","swim","645","","F","null","77","77","1","swim-dual-task","","F","uppercase","352000","0","3","01d92d17ed0ea9d99d2bac6381808c7ee69318be66dd3daf29c6bf4568786f8d","352008","645","77","1","swim","","","","",""
"dual-task","null","null","null","","swim","swim","611","","r","null","88","88","1","swim-dual-task","","r","lowercase","366000","0","3","01d92d17ed0ea9d99d2bac6381808c7ee69318be66dd3daf29c6bf4568786f8d","366002","611","88","1","swim","","","","",""
"dual-task","null","null","null","","swim","swim","537","","t","null","88","88","1","swim-dual-task","","t","lowercase","374000","0","3","01d92d17ed0ea9d99d2bac6381808c7ee69318be66dd3daf29c6bf4568786f8d","374004","537","88","1","swim","","","","",""
"dual-task","null","null","null","","swim","swim","671","","H","null","77","77","1","swim-dual-task","","H","uppercase","382000","0","3","01d92d17ed0ea9d99d2bac6381808c7ee69318be66dd3daf29c6bf4568786f8d","382006","671","77","1","swim","","","","",""
"dual-task","null","null","null","","swim","swim","635","","t","null","88","88","1","swim-dual-task","","t","lowercase","392000","0","3","01d92d17ed0ea9d99d2bac6381808c7ee69318be66dd3daf29c6bf4568786f8d","392008","635","88","1","swim","","","","",""
"dual-task","null","null","null","","swim","swim","732","","g","null","88","88","1","swim-dual-task","","g","lowercase","400000","0","3","01d92d17ed0ea9d99d2bac6381808c7ee69318be66dd3daf29c6bf4568786f8d","400001","732","88","1","swim","","","","",""
"dual-task","null","null","null","","swim","swim","735","","D","null","88","77","0","swim-dual-task","","D","uppercase","414000","0","3","01d92d17ed0ea9d99d2bac6381808c7ee69318be66dd3daf29c6bf4568786f8d","414005","735","88","0","swim","","","","",""
"dual-task","null","null","null","","swim","swim","NA","","a","null","NA","88","0","swim-dual-task","","a","lowercase","424000","1","3","01d92d17ed0ea9d99d2bac6381808c7ee69318be66dd3daf29c6bf4568786f8d","424001","NA","NA","0","swim","","","","",""
"dual-task","null","null","null","","swim","swim","617","","n","null","88","88","1","swim-dual-task","","n","lowercase","434000","0","3","01d92d17ed0ea9d99d2bac6381808c7ee69318be66dd3daf29c6bf4568786f8d","434003","617","88","1","swim","","","","",""
"dual-task","null","null","null","","swim","swim","1225","","e","null","88","88","1","swim-dual-task","","e","lowercase","446000","0","3","01d92d17ed0ea9d99d2bac6381808c7ee69318be66dd3daf29c6bf4568786f8d","446003","1225","88","1","swim","","","","",""
"dual-task","null","null","null","","swim","swim","764","","b","null","88","88","1","swim-dual-task","","b","lowercase","456000","0","3","01d92d17ed0ea9d99d2bac6381808c7ee69318be66dd3daf29c6bf4568786f8d","456000","764","88","1","swim","","","","",""
"dual-task","null","null","null","","swim","swim","641","","b","null","88","88","1","swim-dual-task","","b","lowercase","466000","0","3","01d92d17ed0ea9d99d2bac6381808c7ee69318be66dd3daf29c6bf4568786f8d","466000","641","88","1","swim","","","","",""
"dual-task","null","null","null","","swim","swim","548","","d","null","88","88","1","swim-dual-task","","d","lowercase","478000","0","3","01d92d17ed0ea9d99d2bac6381808c7ee69318be66dd3daf29c6bf4568786f8d","478000","548","88","1","swim","","","","",""
"dual-task","null","null","null","","swim","swim","563","","G","null","77","77","1","swim-dual-task","","G","uppercase","488000","0","3","01d92d17ed0ea9d99d2bac6381808c7ee69318be66dd3daf29c6bf4568786f8d","488010","563","77","1","swim","","","","",""
"dual-task","null","null","null","","swim","swim","614","","T","null","77","77","1","swim-dual-task","","T","uppercase","498000","0","3","01d92d17ed0ea9d99d2bac6381808c7ee69318be66dd3daf29c6bf4568786f8d","498005","614","77","1","swim","","","","",""
"dual-task","null","null","null","","swim","swim","586","","E","null","77","77","1","swim-dual-task","","E","uppercase","512000","0","3","01d92d17ed0ea9d99d2bac6381808c7ee69318be66dd3daf29c6bf4568786f8d","512004","586","77","1","swim","","","","",""
"dual-task","null","null","null","","swim","swim","609","","e","null","88","88","1","swim-dual-task","","e","lowercase","518000","0","3","01d92d17ed0ea9d99d2bac6381808c7ee69318be66dd3daf29c6bf4568786f8d","518002","609","88","1","swim","","","","",""
"dual-task","null","null","null","","swim","swim","552","","A","null","77","77","1","swim-dual-task","","A","uppercase","524000","0","3","01d92d17ed0ea9d99d2bac6381808c7ee69318be66dd3daf29c6bf4568786f8d","524003","552","77","1","swim","","","","",""
"dual-task","null","null","null","","swim","swim","506","","E","null","77","77","1","swim-dual-task","","E","uppercase","536000","0","3","01d92d17ed0ea9d99d2bac6381808c7ee69318be66dd3daf29c6bf4568786f8d","536009","506","77","1","swim","","","","",""
"dual-task","null","null","null","","swim","swim","1762","","g","null","88","88","1","swim-dual-task","","g","lowercase","550000","0","3","01d92d17ed0ea9d99d2bac6381808c7ee69318be66dd3daf29c6bf4568786f8d","550009","1762","88","1","swim","","","","",""
"dual-task","null","null","null","","swim","swim","911","","n","null","88","88","1","swim-dual-task","","n","lowercase","556000","0","3","01d92d17ed0ea9d99d2bac6381808c7ee69318be66dd3daf29c6bf4568786f8d","556003","911","88","1","swim","","","","",""
"dual-task","null","null","null","","swim","swim","814","","f","null","88","88","1","swim-dual-task","","f","lowercase","562000","0","3","01d92d17ed0ea9d99d2bac6381808c7ee69318be66dd3daf29c6bf4568786f8d","562005","814","88","1","swim","","","","",""
"dual-task","null","null","null","","swim","swim","716","","A","null","77","77","1","swim-dual-task","","A","uppercase","568000","0","3","01d92d17ed0ea9d99d2bac6381808c7ee69318be66dd3daf29c6bf4568786f8d","568007","716","77","1","swim","","","","",""
"dual-task","null","null","null","","swim","swim","697","","n","null","88","88","1","swim-dual-task","","n","lowercase","580000","0","3","01d92d17ed0ea9d99d2bac6381808c7ee69318be66dd3daf29c6bf4568786f8d","580000","697","88","1","swim","","","","",""
"dual-task","null","null","null","","swim","swim","514","","R","null","77","77","1","swim-dual-task","","R","uppercase","590000","0","3","01d92d17ed0ea9d99d2bac6381808c7ee69318be66dd3daf29c6bf4568786f8d","589999","514","77","1","swim","","","","",""
"dual-task","null","null","null","","swim","swim","590","","f","null","88","88","1","swim-dual-task","","f","lowercase","604000","0","3","01d92d17ed0ea9d99d2bac6381808c7ee69318be66dd3daf29c6bf4568786f8d","604004","590","88","1","swim","","","","",""
"dual-task","null","null","null","","swim","swim","547","","D","null","77","77","1","swim-dual-task","","D","uppercase","614000","0","3","01d92d17ed0ea9d99d2bac6381808c7ee69318be66dd3daf29c6bf4568786f8d","614007","547","77","1","swim","","","","",""
"dual-task","null","null","null","","swim","swim","612","","q","null","88","88","1","swim-dual-task","","q","lowercase","624000","0","3","01d92d17ed0ea9d99d2bac6381808c7ee69318be66dd3daf29c6bf4568786f8d","624006","612","88","1","swim","","","","",""
"dual-task","null","null","null","","swim","swim","705","","Q","null","77","77","1","swim-dual-task","","Q","uppercase","632000","0","3","01d92d17ed0ea9d99d2bac6381808c7ee69318be66dd3daf29c6bf4568786f8d","632009","705","77","1","swim","","","","",""
"dual-task","null","null","null","","swim","swim","600","","h","null","88","88","1","swim-dual-task","","h","lowercase","642000","0","3","01d92d17ed0ea9d99d2bac6381808c7ee69318be66dd3daf29c6bf4568786f8d","642018","600","88","1","swim","","","","",""
"dual-task","null","null","null","","swim","swim","693","","H","null","77","77","1","swim-dual-task","","H","uppercase","648000","0","3","01d92d17ed0ea9d99d2bac6381808c7ee69318be66dd3daf29c6bf4568786f8d","648005","693","77","1","swim","","","","",""
"dual-task","null","null","null","","swim","swim","796","","q","null","88","88","1","swim-dual-task","","q","lowercase","660000","0","3","01d92d17ed0ea9d99d2bac6381808c7ee69318be66dd3daf29c6bf4568786f8d","660007","796","88","1","swim","","","","",""
"dual-task","null","null","null","","swim","swim","706","","e","null","88","88","1","swim-dual-task","","e","lowercase","670000","0","3","01d92d17ed0ea9d99d2bac6381808c7ee69318be66dd3daf29c6bf4568786f8d","670000","706","88","1","swim","","","","",""
"dual-task","null","null","null","","swim","swim","577","","e","null","88","88","1","swim-dual-task","","e","lowercase","680000","0","3","01d92d17ed0ea9d99d2bac6381808c7ee69318be66dd3daf29c6bf4568786f8d","680001","577","88","1","swim","","","","",""
"dual-task","null","null","null","","swim","swim","784","","B","null","77","77","1","swim-dual-task","","B","uppercase","692000","0","3","01d92d17ed0ea9d99d2bac6381808c7ee69318be66dd3daf29c6bf4568786f8d","692003","784","77","1","swim","","","","",""
"dual-task","null","null","null","","swim","swim","546","","T","null","88","77","0","swim-dual-task","","T","uppercase","702000","0","3","01d92d17ed0ea9d99d2bac6381808c7ee69318be66dd3daf29c6bf4568786f8d","702000","546","88","0","swim","","","","",""
"dual-task","null","null","null","","swim","swim","584","","Q","null","77","77","1","swim-dual-task","","Q","uppercase","710000","0","3","01d92d17ed0ea9d99d2bac6381808c7ee69318be66dd3daf29c6bf4568786f8d","710003","584","77","1","swim","","","","",""
"dual-task","null","null","null","","swim","swim","588","","N","null","77","77","1","swim-dual-task","","N","uppercase","718000","0","3","01d92d17ed0ea9d99d2bac6381808c7ee69318be66dd3daf29c6bf4568786f8d","718005","588","77","1","swim","","","","",""
"dual-task","null","null","null","","swim","swim","708","","r","null","88","88","1","swim-dual-task","","r","lowercase","730000","0","3","01d92d17ed0ea9d99d2bac6381808c7ee69318be66dd3daf29c6bf4568786f8d","730005","708","88","1","swim","","","","",""
"dual-task","null","null","null","","swim","swim","1895","","r","null","88","88","1","swim-dual-task","","r","lowercase","742000","0","3","01d92d17ed0ea9d99d2bac6381808c7ee69318be66dd3daf29c6bf4568786f8d","742002","1895","88","1","swim","","","","",""
"dual-task","null","null","null","","swim","swim","608","","H","null","77","77","1","swim-dual-task","","H","uppercase","748000","0","3","01d92d17ed0ea9d99d2bac6381808c7ee69318be66dd3daf29c6bf4568786f8d","748008","608","77","1","swim","","","","",""
"dual-task","null","null","null","","swim","swim","729","","q","null","88","88","1","swim-dual-task","","q","lowercase","762000","0","3","01d92d17ed0ea9d99d2bac6381808c7ee69318be66dd3daf29c6bf4568786f8d","762000","729","88","1","swim","","","","",""
"dual-task","null","null","null","","swim","swim","577","","N","null","77","77","1","swim-dual-task","","N","uppercase","772000","0","3","01d92d17ed0ea9d99d2bac6381808c7ee69318be66dd3daf29c6bf4568786f8d","772008","577","77","1","swim","","","","",""
"dual-task","null","null","null","","swim","swim","623","","Q","null","77","77","1","swim-dual-task","","Q","uppercase","784000","0","3","01d92d17ed0ea9d99d2bac6381808c7ee69318be66dd3daf29c6bf4568786f8d","784001","623","77","1","swim","","","","",""
"dual-task","null","null","null","","swim","swim","NA","","a","null","NA","88","0","swim-dual-task","","a","lowercase","792000","1","3","01d92d17ed0ea9d99d2bac6381808c7ee69318be66dd3daf29c6bf4568786f8d","792004","NA","NA","0","swim","","","","",""
"audio-keyboard-response","29","872269","0.0-7.0-0.0-1.0","01d92d17ed0ea9d99d2bac6381808c7ee69318be66dd3daf29c6bf4568786f8d","swim","swim","null","","audio/story_swim_scrambled.mp3","","null","","","","","","","","","","","","","","","","","","","",""
"html-button-response","30","875380","0.0-7.0-0.0-2.0","01d92d17ed0ea9d99d2bac6381808c7ee69318be66dd3daf29c6bf4568786f8d","swim","swim","3110","","<p>This concludes the story. Thank you for listening.</p><p>You will now answer some questions about the content of the story.</p>","0","","","","","","","","","","","","","","","","","","","","",""
"survey-multi-choice","31","878940","0.0-7.0-0.0-3.0-0.0","01d92d17ed0ea9d99d2bac6381808c7ee69318be66dd3daf29c6bf4568786f8d","swim","swim","3556","","<b>Where is the home of naval aviation?</b>","","","","0","swim-comprehension","","","","","","","","","","","","","{""Q0"":""Dallas""}","","","",""
"survey-multi-choice","32","883562","0.0-7.0-0.0-3.0-0.1","01d92d17ed0ea9d99d2bac6381808c7ee69318be66dd3daf29c6bf4568786f8d","swim","swim","4363","","<b>How did the narrator train for his swim test?</b>","","","","0","swim-comprehension","","","","","","","","","","","","","{""Q0"":""Signed up for a swim class""}","","","",""
"survey-multi-choice","33","886822","0.0-7.0-0.0-3.0-0.2","01d92d17ed0ea9d99d2bac6381808c7ee69318be66dd3daf29c6bf4568786f8d","swim","swim","3000","","<b>What gave the narrator his greatest feeling of accomplishment?</b>","","","","1","swim-comprehension","","","","","","","","","","","","","{""Q0"":""Passing the water survival course""}","","","",""
"survey-multi-choice","34","891065","0.0-7.0-0.0-3.0-0.3","01d92d17ed0ea9d99d2bac6381808c7ee69318be66dd3daf29c6bf4568786f8d","swim","swim","3984","","<b>How many astronaut candidates passed the first swim test?</b>","","","","1","swim-comprehension","","","","","","","","","","","","","{""Q0"":""All of them""}","","","",""
"survey-multi-choice","35","895135","0.0-7.0-0.0-3.0-0.4","01d92d17ed0ea9d99d2bac6381808c7ee69318be66dd3daf29c6bf4568786f8d","swim","swim","3804","","<b>What is the narrator afraid of, aside from the water?</b>","","","","1","swim-comprehension","","","","","","","","","","","","","{""Q0"":""Heights""}","","","",""
"survey-multi-choice","36","898932","0.0-7.0-0.0-3.0-0.5","01d92d17ed0ea9d99d2bac6381808c7ee69318be66dd3daf29c6bf4568786f8d","swim","swim","3534","","<b>How many times did the astronaut candidates have to complete the final exercise to pass?</b>","","","","1","swim-comprehension","","","","","","","","","","","","","{""Q0"":""Two""}","","","",""
"survey-multi-choice","37","903841","0.0-7.0-0.0-3.0-0.6","01d92d17ed0ea9d99d2bac6381808c7ee69318be66dd3daf29c6bf4568786f8d","swim","swim","4649","","<b>What were the astronaut candidates trained to do at the naval air station?</b>","","","","1","swim-comprehension","","","","","","","","","","","","","{""Q0"":""Eject out of aircraft and survive in water long enough to be rescued""}","","","",""
"survey-multi-choice","38","910937","0.0-7.0-0.0-3.0-0.7","01d92d17ed0ea9d99d2bac6381808c7ee69318be66dd3daf29c6bf4568786f8d","swim","swim","6838","","<b>How often does the narrator swim, now that he is a good swimmer?</b>","","","","1","swim-comprehension","","","","","","","","","","","","","{""Q0"":""Never swam again in his life""}","","","",""
"survey-multi-choice","39","915087","0.0-7.0-0.0-3.0-0.8","01d92d17ed0ea9d99d2bac6381808c7ee69318be66dd3daf29c6bf4568786f8d","swim","swim","3889","","<b>How many astronaut candidates reported for duty at the Johnson Space Center?</b>","","","","1","swim-comprehension","","","","","","","","","","","","","{""Q0"":""Forty-four""}","","","",""
"survey-multi-choice","40","921999","0.0-7.0-0.0-3.0-0.9","01d92d17ed0ea9d99d2bac6381808c7ee69318be66dd3daf29c6bf4568786f8d","swim","swim","6657","","<b>What was the final step of the first swim test in the pool?</b>","","","","1","swim-comprehension","","","","","","","","","","","","","{""Q0"":""Tread water with hands above the water""}","","","",""
"html-button-response","41","923510","0.0-7.0-0.0-4.0","01d92d17ed0ea9d99d2bac6381808c7ee69318be66dd3daf29c6bf4568786f8d","swim","swim","1251","","<p>Thank you for your responses.</p><p>You will now answer some questions about your impressions of the story.</p>","0","","","","","","","","","","","","","","","","","","","","",""
"html-button-response","42","925140","0.0-7.0-0.0-5.0-0.0","01d92d17ed0ea9d99d2bac6381808c7ee69318be66dd3daf29c6bf4568786f8d","swim","swim","1627","","EE2","0","","","","swim-engagement","","","","","","","","","","","","","","1","emo-engage","",""
"html-button-response","43","925790","0.0-7.0-0.0-5.0-0.1","01d92d17ed0ea9d99d2bac6381808c7ee69318be66dd3daf29c6bf4568786f8d","swim","swim","392","","A4","0","","","","swim-engagement","","","","","","","","","","","","","","1","absorption","",""
"html-button-response","44","926256","0.0-7.0-0.0-5.0-0.2","01d92d17ed0ea9d99d2bac6381808c7ee69318be66dd3daf29c6bf4568786f8d","swim","swim","209","","E1","0","","","","swim-engagement","","","","","","","","","","","","","","1","enjoyment","",""
"html-button-response","45","927417","0.0-7.0-0.0-5.0-0.3","01d92d17ed0ea9d99d2bac6381808c7ee69318be66dd3daf29c6bf4568786f8d","swim","swim","901","","E6","1","","","","swim-engagement","","","","","","","","","","","","","","2","enjoyment","",""
"html-button-response","46","928253","0.0-7.0-0.0-5.0-0.4","01d92d17ed0ea9d99d2bac6381808c7ee69318be66dd3daf29c6bf4568786f8d","swim","swim","572","","MS1","0","","","","swim-engagement","","","","","","","","","","","","","","1","mental-sim","",""
"html-button-response","47","928706","0.0-7.0-0.0-5.0-0.5","01d92d17ed0ea9d99d2bac6381808c7ee69318be66dd3daf29c6bf4568786f8d","swim","swim","199","","A5","1","","","","swim-engagement","","","","","","","","","","","","","","2","absorption","",""
"html-button-response","48","929204","0.0-7.0-0.0-5.0-0.6","01d92d17ed0ea9d99d2bac6381808c7ee69318be66dd3daf29c6bf4568786f8d","swim","swim","247","","E7","0","","","","swim-engagement","","","","","","","","","","","","","","1","enjoyment","",""
"html-button-response","49","931144","0.0-7.0-0.0-5.0-0.7","01d92d17ed0ea9d99d2bac6381808c7ee69318be66dd3daf29c6bf4568786f8d","swim","swim","1685","","A2","3","","","","swim-engagement","","","","","","","","","","","","","","4","absorption","",""
"html-button-response","50","931700","0.0-7.0-0.0-5.0-0.8","01d92d17ed0ea9d99d2bac6381808c7ee69318be66dd3daf29c6bf4568786f8d","swim","swim","300","","E10","2","","","","swim-engagement","","","","","","","","","","","","","","3","enjoyment","",""
"html-button-response","51","933348","0.0-7.0-0.0-5.0-0.9","01d92d17ed0ea9d99d2bac6381808c7ee69318be66dd3daf29c6bf4568786f8d","swim","swim","1396","","A3","3","","","","swim-engagement","","","","","","","","","","","","","","4","absorption","",""
"html-button-response","52","933799","0.0-7.0-0.0-5.0-0.10","01d92d17ed0ea9d99d2bac6381808c7ee69318be66dd3daf29c6bf4568786f8d","swim","swim","198","","EE1","2","","","","swim-engagement","","","","","","","","","","","","","","3","emo-engage","",""
"html-button-response","53","935746","0.0-7.0-0.0-5.0-0.11","01d92d17ed0ea9d99d2bac6381808c7ee69318be66dd3daf29c6bf4568786f8d","swim","swim","1686","","E8","0","","","","swim-engagement","","","","","","","","","","","","","","1","enjoyment","",""
"html-button-response","54","937327","0.0-7.0-0.0-5.0-0.12","01d92d17ed0ea9d99d2bac6381808c7ee69318be66dd3daf29c6bf4568786f8d","swim","swim","1323","","MS2","0","","","","swim-engagement","","","","","","","","","","","","","","1","mental-sim","",""
"html-button-response","55","938860","0.0-7.0-0.0-5.0-0.13","01d92d17ed0ea9d99d2bac6381808c7ee69318be66dd3daf29c6bf4568786f8d","swim","swim","1275","","EE4","0","","","","swim-engagement","","","","","","","","","","","","","","1","emo-engage","",""
"html-button-response","56","939521","0.0-7.0-0.0-5.0-0.14","01d92d17ed0ea9d99d2bac6381808c7ee69318be66dd3daf29c6bf4568786f8d","swim","swim","405","","A1","0","","","","swim-engagement","","","","","","","","","","","","","","1","absorption","",""
"html-button-response","57","940003","0.0-7.0-0.0-5.0-0.15","01d92d17ed0ea9d99d2bac6381808c7ee69318be66dd3daf29c6bf4568786f8d","swim","swim","229","","EE3","0","","","","swim-engagement","","","","","","","","","","","","","","1","emo-engage","",""
"html-button-response","58","941477","0.0-7.0-0.0-5.0-0.16","01d92d17ed0ea9d99d2bac6381808c7ee69318be66dd3daf29c6bf4568786f8d","swim","swim","1218","","EE5","0","","","","swim-engagement","","","","","","","","","","","","","","1","emo-engage","",""
"html-button-response","59","942120","0.0-7.0-0.0-5.0-0.17","01d92d17ed0ea9d99d2bac6381808c7ee69318be66dd3daf29c6bf4568786f8d","swim","swim","390","","MS3","0","","","","swim-engagement","","","","","","","","","","","","","","1","mental-sim","",""
"html-keyboard-response","60","957163","0.0-7.0-1.0","01d92d17ed0ea9d99d2bac6381808c7ee69318be66dd3daf29c6bf4568786f8d","swim","swim","14793","","<p>Thank you for your responses. You will now listen to the second story.</p><p>Remember, as you listen to the story you will see letters appear on the screen.</br>As quickly as possible, press <b>&lt;x&gt;</b> if the letter is lowercase and <b>&lt;m&gt;</b> if the letter is uppercase.</p><p>Press <b>&lt;x&gt;</b> or <b>&lt;m&gt;</b> to begin listening!</p>","","88","","","","","","","","","","","","","","","","","","","",""
"html-keyboard-response","61","957668","0.0-7.0-2.0-0.0","01d92d17ed0ea9d99d2bac6381808c7ee69318be66dd3daf29c6bf4568786f8d","swim","swim","null","","<div style=""font-size:60px;"" tabindex=""0"">+</div>","","null","","","","","","","","","","","","","","","","","","","",""
"dual-task","null","null","null","","swim","swim","750","","a","null","88","88","1","arctic-dual-task","","a","lowercase","14000","0","3","01d92d17ed0ea9d99d2bac6381808c7ee69318be66dd3daf29c6bf4568786f8d","14001","750","88","1","arctic","","","","",""
"dual-task","null","null","null","","swim","swim","NA","","R","null","NA","77","0","arctic-dual-task","","R","uppercase","28000","1","3","01d92d17ed0ea9d99d2bac6381808c7ee69318be66dd3daf29c6bf4568786f8d","28004","NA","NA","0","arctic","","","","",""
"dual-task","null","null","null","","swim","swim","680","","G","null","77","77","1","arctic-dual-task","","G","uppercase","38000","0","3","01d92d17ed0ea9d99d2bac6381808c7ee69318be66dd3daf29c6bf4568786f8d","38007","680","77","1","arctic","","","","",""
"dual-task","null","null","null","","swim","swim","597","","e","null","88","88","1","arctic-dual-task","","e","lowercase","50000","0","3","01d92d17ed0ea9d99d2bac6381808c7ee69318be66dd3daf29c6bf4568786f8d","50001","597","88","1","arctic","","","","",""
"dual-task","null","null","null","","swim","swim","758","","T","null","77","77","1","arctic-dual-task","","T","uppercase","58000","0","3","01d92d17ed0ea9d99d2bac6381808c7ee69318be66dd3daf29c6bf4568786f8d","58005","758","77","1","arctic","","","","",""
"dual-task","null","null","null","","swim","swim","697","","g","null","88","88","1","arctic-dual-task","","g","lowercase","70000","0","3","01d92d17ed0ea9d99d2bac6381808c7ee69318be66dd3daf29c6bf4568786f8d","70005","697","88","1","arctic","","","","",""
"dual-task","null","null","null","","swim","swim","637","","E","null","77","77","1","arctic-dual-task","","E","uppercase","84000","0","3","01d92d17ed0ea9d99d2bac6381808c7ee69318be66dd3daf29c6bf4568786f8d","84005","637","77","1","arctic","","","","",""
"dual-task","null","null","null","","swim","swim","527","","T","null","77","77","1","arctic-dual-task","","T","uppercase","98000","0","3","01d92d17ed0ea9d99d2bac6381808c7ee69318be66dd3daf29c6bf4568786f8d","98006","527","77","1","arctic","","","","",""
"dual-task","null","null","null","","swim","swim","583","","h","null","88","88","1","arctic-dual-task","","h","lowercase","112000","0","3","01d92d17ed0ea9d99d2bac6381808c7ee69318be66dd3daf29c6bf4568786f8d","112006","583","88","1","arctic","","","","",""
"dual-task","null","null","null","","swim","swim","868","","R","null","77","77","1","arctic-dual-task","","R","uppercase","120000","0","3","01d92d17ed0ea9d99d2bac6381808c7ee69318be66dd3daf29c6bf4568786f8d","120001","868","77","1","arctic","","","","",""
"dual-task","null","null","null","","swim","swim","978","","D","null","77","77","1","arctic-dual-task","","D","uppercase","132000","0","3","01d92d17ed0ea9d99d2bac6381808c7ee69318be66dd3daf29c6bf4568786f8d","132002","978","77","1","arctic","","","","",""
"dual-task","null","null","null","","swim","swim","1288","","d","null","88","88","1","arctic-dual-task","","d","lowercase","146000","0","3","01d92d17ed0ea9d99d2bac6381808c7ee69318be66dd3daf29c6bf4568786f8d","146005","1288","88","1","arctic","","","","",""
"dual-task","null","null","null","","swim","swim","554","","R","null","77","77","1","arctic-dual-task","","R","uppercase","154000","0","3","01d92d17ed0ea9d99d2bac6381808c7ee69318be66dd3daf29c6bf4568786f8d","154003","554","77","1","arctic","","","","",""
"dual-task","null","null","null","","swim","swim","839","","d","null","88","88","1","arctic-dual-task","","d","lowercase","164000","0","3","01d92d17ed0ea9d99d2bac6381808c7ee69318be66dd3daf29c6bf4568786f8d","164030","839","88","1","arctic","","","","",""
"dual-task","null","null","null","","swim","swim","484","","A","null","77","77","1","arctic-dual-task","","A","uppercase","178000","0","3","01d92d17ed0ea9d99d2bac6381808c7ee69318be66dd3daf29c6bf4568786f8d","178009","484","77","1","arctic","","","","",""
"dual-task","null","null","null","","swim","swim","936","","H","null","77","77","1","arctic-dual-task","","H","uppercase","186000","0","3","01d92d17ed0ea9d99d2bac6381808c7ee69318be66dd3daf29c6bf4568786f8d","186004","936","77","1","arctic","","","","",""
"dual-task","null","null","null","","swim","swim","1084","","a","null","88","88","1","arctic-dual-task","","a","lowercase","200000","0","3","01d92d17ed0ea9d99d2bac6381808c7ee69318be66dd3daf29c6bf4568786f8d","200001","1084","88","1","arctic","","","","",""
"dual-task","null","null","null","","swim","swim","604","","B","null","77","77","1","arctic-dual-task","","B","uppercase","212000","0","3","01d92d17ed0ea9d99d2bac6381808c7ee69318be66dd3daf29c6bf4568786f8d","212008","604","77","1","arctic","","","","",""
"dual-task","null","null","null","","swim","swim","488","","d","null","88","88","1","arctic-dual-task","","d","lowercase","220000","0","3","01d92d17ed0ea9d99d2bac6381808c7ee69318be66dd3daf29c6bf4568786f8d","220004","488","88","1","arctic","","","","",""
"dual-task","null","null","null","","swim","swim","598","","D","null","77","77","1","arctic-dual-task","","D","uppercase","234000","0","3","01d92d17ed0ea9d99d2bac6381808c7ee69318be66dd3daf29c6bf4568786f8d","234009","598","77","1","arctic","","","","",""
"dual-task","null","null","null","","swim","swim","597","","B","null","77","77","1","arctic-dual-task","","B","uppercase","246000","0","3","01d92d17ed0ea9d99d2bac6381808c7ee69318be66dd3daf29c6bf4568786f8d","246010","597","77","1","arctic","","","","",""
"dual-task","null","null","null","","swim","swim","926","","t","null","88","88","1","arctic-dual-task","","t","lowercase","256000","0","3","01d92d17ed0ea9d99d2bac6381808c7ee69318be66dd3daf29c6bf4568786f8d","256006","926","88","1","arctic","","","","",""
"dual-task","null","null","null","","swim","swim","615","","N","null","77","77","1","arctic-dual-task","","N","uppercase","264000","0","3","01d92d17ed0ea9d99d2bac6381808c7ee69318be66dd3daf29c6bf4568786f8d","264013","615","77","1","arctic","","","","",""
"dual-task","null","null","null","","swim","swim","599","","Q","null","77","77","1","arctic-dual-task","","Q","uppercase","274000","0","3","01d92d17ed0ea9d99d2bac6381808c7ee69318be66dd3daf29c6bf4568786f8d","274005","599","77","1","arctic","","","","",""
"dual-task","null","null","null","","swim","swim","508","","e","null","88","88","1","arctic-dual-task","","e","lowercase","286000","0","3","01d92d17ed0ea9d99d2bac6381808c7ee69318be66dd3daf29c6bf4568786f8d","286008","508","88","1","arctic","","","","",""
"dual-task","null","null","null","","swim","swim","602","","t","null","88","88","1","arctic-dual-task","","t","lowercase","296000","0","3","01d92d17ed0ea9d99d2bac6381808c7ee69318be66dd3daf29c6bf4568786f8d","296001","602","88","1","arctic","","","","",""
"dual-task","null","null","null","","swim","swim","623","","f","null","88","88","1","arctic-dual-task","","f","lowercase","306000","0","3","01d92d17ed0ea9d99d2bac6381808c7ee69318be66dd3daf29c6bf4568786f8d","306005","623","88","1","arctic","","","","",""
"dual-task","null","null","null","","swim","swim","504","","f","null","88","88","1","arctic-dual-task","","f","lowercase","314000","0","3","01d92d17ed0ea9d99d2bac6381808c7ee69318be66dd3daf29c6bf4568786f8d","314002","504","88","1","arctic","","","","",""
"dual-task","null","null","null","","swim","swim","440","","f","null","88","88","1","arctic-dual-task","","f","lowercase","326000","0","3","01d92d17ed0ea9d99d2bac6381808c7ee69318be66dd3daf29c6bf4568786f8d","326004","440","88","1","arctic","","","","",""
"dual-task","null","null","null","","swim","swim","575","","Q","null","77","77","1","arctic-dual-task","","Q","uppercase","334000","0","3","01d92d17ed0ea9d99d2bac6381808c7ee69318be66dd3daf29c6bf4568786f8d","334020","575","77","1","arctic","","","","",""
"dual-task","null","null","null","","swim","swim","674","","q","null","88","88","1","arctic-dual-task","","q","lowercase","346000","0","3","01d92d17ed0ea9d99d2bac6381808c7ee69318be66dd3daf29c6bf4568786f8d","346000","674","88","1","arctic","","","","",""
"dual-task","null","null","null","","swim","swim","NA","","R","null","NA","77","0","arctic-dual-task","","R","uppercase","356000","1","3","01d92d17ed0ea9d99d2bac6381808c7ee69318be66dd3daf29c6bf4568786f8d","356005","NA","NA","0","arctic","","","","",""
"dual-task","null","null","null","","swim","swim","860","","F","null","77","77","1","arctic-dual-task","","F","uppercase","366000","0","3","01d92d17ed0ea9d99d2bac6381808c7ee69318be66dd3daf29c6bf4568786f8d","366007","860","77","1","arctic","","","","",""
"dual-task","null","null","null","","swim","swim","NA","","F","null","NA","77","0","arctic-dual-task","","F","uppercase","376000","1","3","01d92d17ed0ea9d99d2bac6381808c7ee69318be66dd3daf29c6bf4568786f8d","376010","NA","NA","0","arctic","","","","",""
"dual-task","null","null","null","","swim","swim","569","","g","null","88","88","1","arctic-dual-task","","g","lowercase","386000","0","3","01d92d17ed0ea9d99d2bac6381808c7ee69318be66dd3daf29c6bf4568786f8d","386003","569","88","1","arctic","","","","",""
"dual-task","null","null","null","","swim","swim","592","","r","null","88","88","1","arctic-dual-task","","r","lowercase","398000","0","3","01d92d17ed0ea9d99d2bac6381808c7ee69318be66dd3daf29c6bf4568786f8d","398003","592","88","1","arctic","","","","",""
"dual-task","null","null","null","","swim","swim","684","","a","null","88","88","1","arctic-dual-task","","a","lowercase","404000","0","3","01d92d17ed0ea9d99d2bac6381808c7ee69318be66dd3daf29c6bf4568786f8d","404007","684","88","1","arctic","","","","",""
"dual-task","null","null","null","","swim","swim","879","","T","null","77","77","1","arctic-dual-task","","T","uppercase","418000","0","3","01d92d17ed0ea9d99d2bac6381808c7ee69318be66dd3daf29c6bf4568786f8d","418004","879","77","1","arctic","","","","",""
"dual-task","null","null","null","","swim","swim","1684","","h","null","88","88","1","arctic-dual-task","","h","lowercase","424000","0","3","01d92d17ed0ea9d99d2bac6381808c7ee69318be66dd3daf29c6bf4568786f8d","424007","1684","88","1","arctic","","","","",""
"dual-task","null","null","null","","swim","swim","605","","T","null","77","77","1","arctic-dual-task","","T","uppercase","436000","0","3","01d92d17ed0ea9d99d2bac6381808c7ee69318be66dd3daf29c6bf4568786f8d","436006","605","77","1","arctic","","","","",""
"dual-task","null","null","null","","swim","swim","895","","t","null","88","88","1","arctic-dual-task","","t","lowercase","446000","0","3","01d92d17ed0ea9d99d2bac6381808c7ee69318be66dd3daf29c6bf4568786f8d","446004","895","88","1","arctic","","","","",""
"dual-task","null","null","null","","swim","swim","724","","n","null","88","88","1","arctic-dual-task","","n","lowercase","452000","0","3","01d92d17ed0ea9d99d2bac6381808c7ee69318be66dd3daf29c6bf4568786f8d","452006","724","88","1","arctic","","","","",""
"dual-task","null","null","null","","swim","swim","721","","F","null","77","77","1","arctic-dual-task","","F","uppercase","460000","0","3","01d92d17ed0ea9d99d2bac6381808c7ee69318be66dd3daf29c6bf4568786f8d","460009","721","77","1","arctic","","","","",""
"dual-task","null","null","null","","swim","swim","476","","g","null","88","88","1","arctic-dual-task","","g","lowercase","468000","0","3","01d92d17ed0ea9d99d2bac6381808c7ee69318be66dd3daf29c6bf4568786f8d","468006","476","88","1","arctic","","","","",""
"dual-task","null","null","null","","swim","swim","724","","G","null","77","77","1","arctic-dual-task","","G","uppercase","474000","0","3","01d92d17ed0ea9d99d2bac6381808c7ee69318be66dd3daf29c6bf4568786f8d","474006","724","77","1","arctic","","","","",""
"dual-task","null","null","null","","swim","swim","757","","G","null","77","77","1","arctic-dual-task","","G","uppercase","484000","0","3","01d92d17ed0ea9d99d2bac6381808c7ee69318be66dd3daf29c6bf4568786f8d","484005","757","77","1","arctic","","","","",""
"dual-task","null","null","null","","swim","swim","571","","b","null","88","88","1","arctic-dual-task","","b","lowercase","498000","0","3","01d92d17ed0ea9d99d2bac6381808c7ee69318be66dd3daf29c6bf4568786f8d","498005","571","88","1","arctic","","","","",""
"dual-task","null","null","null","","swim","swim","1298","","Q","null","77","77","1","arctic-dual-task","","Q","uppercase","504000","0","3","01d92d17ed0ea9d99d2bac6381808c7ee69318be66dd3daf29c6bf4568786f8d","504017","1298","77","1","arctic","","","","",""
"dual-task","null","null","null","","swim","swim","568","","g","null","88","88","1","arctic-dual-task","","g","lowercase","512000","0","3","01d92d17ed0ea9d99d2bac6381808c7ee69318be66dd3daf29c6bf4568786f8d","512002","568","88","1","arctic","","","","",""
"dual-task","null","null","null","","swim","swim","1073","","G","null","77","77","1","arctic-dual-task","","G","uppercase","518000","0","3","01d92d17ed0ea9d99d2bac6381808c7ee69318be66dd3daf29c6bf4568786f8d","518009","1073","77","1","arctic","","","","",""
"dual-task","null","null","null","","swim","swim","727","","b","null","88","88","1","arctic-dual-task","","b","lowercase","528000","0","3","01d92d17ed0ea9d99d2bac6381808c7ee69318be66dd3daf29c6bf4568786f8d","528019","727","88","1","arctic","","","","",""
"dual-task","null","null","null","","swim","swim","1033","","e","null","88","88","1","arctic-dual-task","","e","lowercase","536000","0","3","01d92d17ed0ea9d99d2bac6381808c7ee69318be66dd3daf29c6bf4568786f8d","536009","1033","88","1","arctic","","","","",""
"dual-task","null","null","null","","swim","swim","559","","B","null","77","77","1","arctic-dual-task","","B","uppercase","548000","0","3","01d92d17ed0ea9d99d2bac6381808c7ee69318be66dd3daf29c6bf4568786f8d","548010","559","77","1","arctic","","","","",""
"dual-task","null","null","null","","swim","swim","605","","H","null","77","77","1","arctic-dual-task","","H","uppercase","556000","0","3","01d92d17ed0ea9d99d2bac6381808c7ee69318be66dd3daf29c6bf4568786f8d","556005","605","77","1","arctic","","","","",""
"dual-task","null","null","null","","swim","swim","681","","r","null","88","88","1","arctic-dual-task","","r","lowercase","568000","0","3","01d92d17ed0ea9d99d2bac6381808c7ee69318be66dd3daf29c6bf4568786f8d","568007","681","88","1","arctic","","","","",""
"dual-task","null","null","null","","swim","swim","817","","a","null","88","88","1","arctic-dual-task","","a","lowercase","576000","0","3","01d92d17ed0ea9d99d2bac6381808c7ee69318be66dd3daf29c6bf4568786f8d","576004","817","88","1","arctic","","","","",""
"dual-task","null","null","null","","swim","swim","653","","q","null","88","88","1","arctic-dual-task","","q","lowercase","584000","0","3","01d92d17ed0ea9d99d2bac6381808c7ee69318be66dd3daf29c6bf4568786f8d","584004","653","88","1","arctic","","","","",""
"dual-task","null","null","null","","swim","swim","711","","F","null","77","77","1","arctic-dual-task","","F","uppercase","592000","0","3","01d92d17ed0ea9d99d2bac6381808c7ee69318be66dd3daf29c6bf4568786f8d","592010","711","77","1","arctic","","","","",""
"dual-task","null","null","null","","swim","swim","536","","h","null","88","88","1","arctic-dual-task","","h","lowercase","600000","0","3","01d92d17ed0ea9d99d2bac6381808c7ee69318be66dd3daf29c6bf4568786f8d","600000","536","88","1","arctic","","","","",""
"dual-task","null","null","null","","swim","swim","457","","E","null","77","77","1","arctic-dual-task","","E","uppercase","614000","0","3","01d92d17ed0ea9d99d2bac6381808c7ee69318be66dd3daf29c6bf4568786f8d","614007","457","77","1","arctic","","","","",""
"dual-task","null","null","null","","swim","swim","422","","E","null","77","77","1","arctic-dual-task","","E","uppercase","622000","0","3","01d92d17ed0ea9d99d2bac6381808c7ee69318be66dd3daf29c6bf4568786f8d","622002","422","77","1","arctic","","","","",""
"dual-task","null","null","null","","swim","swim","882","","H","null","77","77","1","arctic-dual-task","","H","uppercase","628000","0","3","01d92d17ed0ea9d99d2bac6381808c7ee69318be66dd3daf29c6bf4568786f8d","628006","882","77","1","arctic","","","","",""
"dual-task","null","null","null","","swim","swim","919","","b","null","88","88","1","arctic-dual-task","","b","lowercase","636000","0","3","01d92d17ed0ea9d99d2bac6381808c7ee69318be66dd3daf29c6bf4568786f8d","636010","919","88","1","arctic","","","","",""
"dual-task","null","null","null","","swim","swim","873","","Q","null","77","77","1","arctic-dual-task","","Q","uppercase","642000","0","3","01d92d17ed0ea9d99d2bac6381808c7ee69318be66dd3daf29c6bf4568786f8d","642006","873","77","1","arctic","","","","",""
"dual-task","null","null","null","","swim","swim","452","","q","null","88","88","1","arctic-dual-task","","q","lowercase","650000","0","3","01d92d17ed0ea9d99d2bac6381808c7ee69318be66dd3daf29c6bf4568786f8d","650012","452","88","1","arctic","","","","",""
"dual-task","null","null","null","","swim","swim","680","","h","null","88","88","1","arctic-dual-task","","h","lowercase","662000","0","3","01d92d17ed0ea9d99d2bac6381808c7ee69318be66dd3daf29c6bf4568786f8d","662009","680","88","1","arctic","","","","",""
"dual-task","null","null","null","","swim","swim","643","","n","null","88","88","1","arctic-dual-task","","n","lowercase","668000","0","3","01d92d17ed0ea9d99d2bac6381808c7ee69318be66dd3daf29c6bf4568786f8d","668020","643","88","1","arctic","","","","",""
"dual-task","null","null","null","","swim","swim","NA","","n","null","NA","88","0","arctic-dual-task","","n","lowercase","674000","1","3","01d92d17ed0ea9d99d2bac6381808c7ee69318be66dd3daf29c6bf4568786f8d","674008","NA","NA","0","arctic","","","","",""
"dual-task","null","null","null","","swim","swim","622","","N","null","77","77","1","arctic-dual-task","","N","uppercase","682000","0","3","01d92d17ed0ea9d99d2bac6381808c7ee69318be66dd3daf29c6bf4568786f8d","682003","622","77","1","arctic","","","","",""
"dual-task","null","null","null","","swim","swim","718","","f","null","88","88","1","arctic-dual-task","","f","lowercase","696000","0","3","01d92d17ed0ea9d99d2bac6381808c7ee69318be66dd3daf29c6bf4568786f8d","696002","718","88","1","arctic","","","","",""
"dual-task","null","null","null","","swim","swim","748","","e","null","88","88","1","arctic-dual-task","","e","lowercase","704000","0","3","01d92d17ed0ea9d99d2bac6381808c7ee69318be66dd3daf29c6bf4568786f8d","704007","748","88","1","arctic","","","","",""
"dual-task","null","null","null","","swim","swim","485","","q","null","88","88","1","arctic-dual-task","","q","lowercase","710000","0","3","01d92d17ed0ea9d99d2bac6381808c7ee69318be66dd3daf29c6bf4568786f8d","710003","485","88","1","arctic","","","","",""
"dual-task","null","null","null","","swim","swim","533","","E","null","77","77","1","arctic-dual-task","","E","uppercase","722000","0","3","01d92d17ed0ea9d99d2bac6381808c7ee69318be66dd3daf29c6bf4568786f8d","722002","533","77","1","arctic","","","","",""
"dual-task","null","null","null","","swim","swim","651","","B","null","77","77","1","arctic-dual-task","","B","uppercase","730000","0","3","01d92d17ed0ea9d99d2bac6381808c7ee69318be66dd3daf29c6bf4568786f8d","730004","651","77","1","arctic","","","","",""
"dual-task","null","null","null","","swim","swim","546","","r","null","88","88","1","arctic-dual-task","","r","lowercase","740000","0","3","01d92d17ed0ea9d99d2bac6381808c7ee69318be66dd3daf29c6bf4568786f8d","740014","546","88","1","arctic","","","","",""
"dual-task","null","null","null","","swim","swim","564","","D","null","77","77","1","arctic-dual-task","","D","uppercase","750000","0","3","01d92d17ed0ea9d99d2bac6381808c7ee69318be66dd3daf29c6bf4568786f8d","750003","564","77","1","arctic","","","","",""
"dual-task","null","null","null","","swim","swim","543","","N","null","77","77","1","arctic-dual-task","","N","uppercase","758000","0","3","01d92d17ed0ea9d99d2bac6381808c7ee69318be66dd3daf29c6bf4568786f8d","758015","543","77","1","arctic","","","","",""
"dual-task","null","null","null","","swim","swim","489","","N","null","77","77","1","arctic-dual-task","","N","uppercase","772000","0","3","01d92d17ed0ea9d99d2bac6381808c7ee69318be66dd3daf29c6bf4568786f8d","772014","489","77","1","arctic","","","","",""
"dual-task","null","null","null","","swim","swim","773","","H","null","77","77","1","arctic-dual-task","","H","uppercase","782000","0","3","01d92d17ed0ea9d99d2bac6381808c7ee69318be66dd3daf29c6bf4568786f8d","782010","773","77","1","arctic","","","","",""
"audio-keyboard-response","62","1755743","0.0-7.0-2.0-1.0","01d92d17ed0ea9d99d2bac6381808c7ee69318be66dd3daf29c6bf4568786f8d","swim","swim","null","","audio/story_arctic.mp3","","null","","","","","","","","","","","","","","","","","","","",""
"html-button-response","63","1756717","0.0-7.0-2.0-2.0","01d92d17ed0ea9d99d2bac6381808c7ee69318be66dd3daf29c6bf4568786f8d","swim","swim","974","","<p>This concludes the story. Thank you for listening.</p><p>You will now answer some questions about the content of the story.</p>","0","","","","","","","","","","","","","","","","","","","","",""
"survey-multi-choice","64","1759551","0.0-7.0-2.0-3.0-0.0","01d92d17ed0ea9d99d2bac6381808c7ee69318be66dd3daf29c6bf4568786f8d","swim","swim","2831","","<b>Which dog on the narrator&#39;s dog team never followed instructions?</b>","","","","1","arctic-comprehension","","","","","","","","","","","","","{""Q0"":""Robert""}","","","",""
"survey-multi-choice","65","1762253","0.0-7.0-2.0-3.0-0.1","01d92d17ed0ea9d99d2bac6381808c7ee69318be66dd3daf29c6bf4568786f8d","swim","swim","2445","","<b>How many sponsorships did the narrator receive to support her expedition?</b>","","","","0","arctic-comprehension","","","","","","","","","","","","","{""Q0"":""One""}","","","",""
"survey-multi-choice","66","1767876","0.0-7.0-2.0-3.0-0.2","01d92d17ed0ea9d99d2bac6381808c7ee69318be66dd3daf29c6bf4568786f8d","swim","swim","5361","","<b>How did the narrator prepare for her expedition?</b>","","","","0","arctic-comprehension","","","","","","","","","","","","","{""Q0"":""Exercised several hours each day""}","","","",""
"survey-multi-choice","67","1770403","0.0-7.0-2.0-3.0-0.3","01d92d17ed0ea9d99d2bac6381808c7ee69318be66dd3daf29c6bf4568786f8d","swim","swim","2275","","<b>What did the narrator do for leisure while in her tent?</b>","","","","1","arctic-comprehension","","","","","","","","","","","","","{""Q0"":""Read""}","","","",""
"survey-multi-choice","68","1774073","0.0-7.0-2.0-3.0-0.4","01d92d17ed0ea9d99d2bac6381808c7ee69318be66dd3daf29c6bf4568786f8d","swim","swim","3410","","<b>What was the objective of the narrator&#39;s expedition?</b>","","","","1","arctic-comprehension","","","","","","","","","","","","","{""Q0"":""Dogsled across Arctic America""}","","","",""
"survey-multi-choice","69","1777358","0.0-7.0-2.0-3.0-0.5","01d92d17ed0ea9d99d2bac6381808c7ee69318be66dd3daf29c6bf4568786f8d","swim","swim","3023","","<b>What were the weather conditions in the Arctic like the winter of the narrator&#39;s expedition?</b>","","","","1","arctic-comprehension","","","","","","","","","","","","","{""Q0"":""There were more storms than any other winter in recorded history.""}","","","",""
"survey-multi-choice","70","1781145","0.0-7.0-2.0-3.0-0.6","01d92d17ed0ea9d99d2bac6381808c7ee69318be66dd3daf29c6bf4568786f8d","swim","swim","3527","","<b>How did the narrator&#39;s encounter with the polar bears end?</b>","","","","1","arctic-comprehension","","","","","","","","","","","","","{""Q0"":""The bears walked back to their den.""}","","","",""
"survey-multi-choice","71","1788849","0.0-7.0-2.0-3.0-0.7","01d92d17ed0ea9d99d2bac6381808c7ee69318be66dd3daf29c6bf4568786f8d","swim","swim","7447","","<b>How did the dogs respond when they saw the bears?</b>","","","","1","arctic-comprehension","","","","","","","","","","","","","{""Q0"":""Approached them""}","","","",""
"survey-multi-choice","72","1792249","0.0-7.0-2.0-3.0-0.8","01d92d17ed0ea9d99d2bac6381808c7ee69318be66dd3daf29c6bf4568786f8d","swim","swim","3139","","<b>What is the name of the narrator&#39;s neighbour?</b>","","","","1","arctic-comprehension","","","","","","","","","","","","","{""Q0"":""Dave""}","","","",""
"survey-multi-choice","73","1798842","0.0-7.0-2.0-3.0-0.9","01d92d17ed0ea9d99d2bac6381808c7ee69318be66dd3daf29c6bf4568786f8d","swim","swim","6340","","<b>How did the narrator&#39;s neighbour respond when she told him about her expedition?</b>","","","","1","arctic-comprehension","","","","","","","","","","","","","{""Q0"":""He said she was going to fail.""}","","","",""
"html-button-response","74","1799938","0.0-7.0-2.0-4.0","01d92d17ed0ea9d99d2bac6381808c7ee69318be66dd3daf29c6bf4568786f8d","swim","swim","842","","<p>Thank you for your responses.</p><p>You will now answer some questions about your impressions of the story.</p>","0","","","","","","","","","","","","","","","","","","","","",""
"html-button-response","75","1801385","0.0-7.0-2.0-5.0-0.0","01d92d17ed0ea9d99d2bac6381808c7ee69318be66dd3daf29c6bf4568786f8d","swim","swim","1446","","E6","3","","","","arctic-engagement","","","","","","","","","","","","","","4","enjoyment","",""
"html-button-response","76","1802037","0.0-7.0-2.0-5.0-0.1","01d92d17ed0ea9d99d2bac6381808c7ee69318be66dd3daf29c6bf4568786f8d","swim","swim","400","","A5","3","","","","arctic-engagement","","","","","","","","","","","","","","4","absorption","",""
"html-button-response","77","1802875","0.0-7.0-2.0-5.0-0.2","01d92d17ed0ea9d99d2bac6381808c7ee69318be66dd3daf29c6bf4568786f8d","swim","swim","577","","EE3","2","","","","arctic-engagement","","","","","","","","","","","","","","3","emo-engage","",""
"html-button-response","78","1803683","0.0-7.0-2.0-5.0-0.3","01d92d17ed0ea9d99d2bac6381808c7ee69318be66dd3daf29c6bf4568786f8d","swim","swim","556","","EE1","3","","","","arctic-engagement","","","","","","","","","","","","","","4","emo-engage","",""
"html-button-response","79","1805491","0.0-7.0-2.0-5.0-0.4","01d92d17ed0ea9d99d2bac6381808c7ee69318be66dd3daf29c6bf4568786f8d","swim","swim","1554","","EE4","2","","","","arctic-engagement","","","","","","","","","","","","","","3","emo-engage","",""
"html-button-response","80","1806153","0.0-7.0-2.0-5.0-0.5","01d92d17ed0ea9d99d2bac6381808c7ee69318be66dd3daf29c6bf4568786f8d","swim","swim","406","","E10","3","","","","arctic-engagement","","","","","","","","","","","","","","4","enjoyment","",""
"html-button-response","81","1808626","0.0-7.0-2.0-5.0-0.6","01d92d17ed0ea9d99d2bac6381808c7ee69318be66dd3daf29c6bf4568786f8d","swim","swim","2210","","MS1","1","","","","arctic-engagement","","","","","","","","","","","","","","2","mental-sim","",""
"html-button-response","82","1810809","0.0-7.0-2.0-5.0-0.7","01d92d17ed0ea9d99d2bac6381808c7ee69318be66dd3daf29c6bf4568786f8d","swim","swim","1927","","MS3","3","","","","arctic-engagement","","","","","","","","","","","","","","4","mental-sim","",""
"html-button-response","83","1812658","0.0-7.0-2.0-5.0-0.8","01d92d17ed0ea9d99d2bac6381808c7ee69318be66dd3daf29c6bf4568786f8d","swim","swim","1594","","A3","3","","","","arctic-engagement","","","","","","","","","","","","","","4","absorption","",""
"html-button-response","84","1815347","0.0-7.0-2.0-5.0-0.9","01d92d17ed0ea9d99d2bac6381808c7ee69318be66dd3daf29c6bf4568786f8d","swim","swim","2425","","A1","2","","","","arctic-engagement","","","","","","","","","","","","","","3","absorption","",""
"html-button-response","85","1817777","0.0-7.0-2.0-5.0-0.10","01d92d17ed0ea9d99d2bac6381808c7ee69318be66dd3daf29c6bf4568786f8d","swim","swim","2177","","E7","3","","","","arctic-engagement","","","","","","","","","","","","","","4","enjoyment","",""
"html-button-response","86","1820136","0.0-7.0-2.0-5.0-0.11","01d92d17ed0ea9d99d2bac6381808c7ee69318be66dd3daf29c6bf4568786f8d","swim","swim","2105","","EE5","1","","","","arctic-engagement","","","","","","","","","","","","","","2","emo-engage","",""
"html-button-response","87","1821901","0.0-7.0-2.0-5.0-0.12","01d92d17ed0ea9d99d2bac6381808c7ee69318be66dd3daf29c6bf4568786f8d","swim","swim","1511","","A4","0","","","","arctic-engagement","","","","","","","","","","","","","","1","absorption","",""
"html-button-response","88","1825447","0.0-7.0-2.0-5.0-0.13","01d92d17ed0ea9d99d2bac6381808c7ee69318be66dd3daf29c6bf4568786f8d","swim","swim","3295","","MS2","3","","","","arctic-engagement","","","","","","","","","","","","","","4","mental-sim","",""
"html-button-response","89","1827497","0.0-7.0-2.0-5.0-0.14","01d92d17ed0ea9d99d2bac6381808c7ee69318be66dd3daf29c6bf4568786f8d","swim","swim","1794","","EE2","3","","","","arctic-engagement","","","","","","","","","","","","","","4","emo-engage","",""
"html-button-response","90","1830061","0.0-7.0-2.0-5.0-0.15","01d92d17ed0ea9d99d2bac6381808c7ee69318be66dd3daf29c6bf4568786f8d","swim","swim","2307","","A2","3","","","","arctic-engagement","","","","","","","","","","","","","","4","absorption","",""
"html-button-response","91","1831813","0.0-7.0-2.0-5.0-0.16","01d92d17ed0ea9d99d2bac6381808c7ee69318be66dd3daf29c6bf4568786f8d","swim","swim","1489","","E1","3","","","","arctic-engagement","","","","","","","","","","","","","","4","enjoyment","",""
"html-button-response","92","1833909","0.0-7.0-2.0-5.0-0.17","01d92d17ed0ea9d99d2bac6381808c7ee69318be66dd3daf29c6bf4568786f8d","swim","swim","1840","","E8","1","","","","arctic-engagement","","","","","","","","","","","","","","2","enjoyment","",""
"html-button-response","93","1835031","0.0-8.0","01d92d17ed0ea9d99d2bac6381808c7ee69318be66dd3daf29c6bf4568786f8d","swim","swim","867","","<p>Thank you for your responses.</p><p>You will now answer some demographic, hearing, and general health questions.</p>","0","","","","","","","","","","","","","","","","","","","","",""
"survey-multi-choice","94","1838329","0.0-9.0-0.0","01d92d17ed0ea9d99d2bac6381808c7ee69318be66dd3daf29c6bf4568786f8d","swim","swim","3296","","","","","","","survey","","","","","","","","","","","","","{""Q0"":""Firefox""}","","","browser",""
"survey-text","95","1843895","0.0-9.0-1.0","01d92d17ed0ea9d99d2bac6381808c7ee69318be66dd3daf29c6bf4568786f8d","swim","swim","5305","","","","","","","survey","","","","","","","","","","","","","{""AGE"":""39""}","","","age","39"
"survey-multi-choice","96","1847933","0.0-9.0-2.0","01d92d17ed0ea9d99d2bac6381808c7ee69318be66dd3daf29c6bf4568786f8d","swim","swim","3784","","","","","","","survey","","","","","","","","","","","","","{""Q0"":""Male""}","","","gender","Male"
"survey-multi-choice","97","1849852","0.0-9.0-4.0","01d92d17ed0ea9d99d2bac6381808c7ee69318be66dd3daf29c6bf4568786f8d","swim","swim","1656","","","","","","","survey","","","","","","","","","","","","","{""Q0"":""Right""}","","","handedness","Right"
"survey-multi-choice","98","1851843","0.0-9.0-5.0","01d92d17ed0ea9d99d2bac6381808c7ee69318be66dd3daf29c6bf4568786f8d","swim","swim","1727","","","","","","","survey","","","","","","","","","","","","","{""Q0"":""Bachelor's Degree""}","","","education","Bachelor's Degree"
"survey-text","99","1858622","0.0-10.0-0.0","01d92d17ed0ea9d99d2bac6381808c7ee69318be66dd3daf29c6bf4568786f8d","swim","swim","6522","","","","","","","survey","","","","","","","","","","","","","{""L1"":""English""}","","","first-language","English"
"survey-text","100","1862839","0.0-10.0-1.0","01d92d17ed0ea9d99d2bac6381808c7ee69318be66dd3daf29c6bf4568786f8d","swim","swim","3954","","","","","","","survey","","","","","","","","","","","","","{""L2name"":"""",""L2fluency"":"""",""L3name"":"""",""L3fluency"":"""",""L4name"":"""",""L4fluency"":""""}","","","additional-languages","{""L2name"":"""",""L2fluency"":"""",""L3name"":"""",""L3fluency"":"""",""L4name"":"""",""L4fluency"":""""}"
"survey-multi-choice","101","1864825","0.0-10.0-2.0","01d92d17ed0ea9d99d2bac6381808c7ee69318be66dd3daf29c6bf4568786f8d","swim","swim","1731","","","","","","","survey","","","","","","","","","","","","","{""Q0"":""No""}","","","hearing-aid","No"
"survey-multi-choice","102","1866992","0.0-10.0-3.0","01d92d17ed0ea9d99d2bac6381808c7ee69318be66dd3daf29c6bf4568786f8d","swim","swim","1907","","","","","","","survey","","","","","","","","","","","","","{""Q0"":""Never""}","","","ringing-ears","Never"
"survey-multi-choice","103","1868950","0.0-10.0-5.0","01d92d17ed0ea9d99d2bac6381808c7ee69318be66dd3daf29c6bf4568786f8d","swim","swim","1702","","","","","","","survey","","","","","","","","","","","","","{""Q0"":""No""}","","","neuro-disease","No"
"survey-multi-choice","104","1872352","0.0-10.0-7.0","01d92d17ed0ea9d99d2bac6381808c7ee69318be66dd3daf29c6bf4568786f8d","swim","swim","3141","","","","","","","survey","","","","","","","","","","","","","{""Q0"":""No""}","","","take-meds","No"
"survey-text","105","1874413","0.0-10.0-9.0","01d92d17ed0ea9d99d2bac6381808c7ee69318be66dd3daf29c6bf4568786f8d","swim","swim","1777","","","","","","","survey","","","","","","","","","","","","","{""HC"":""""}","","","health-concerns",""
"html-button-response","106","1875755","0.0-11.0-0.0","01d92d17ed0ea9d99d2bac6381808c7ee69318be66dd3daf29c6bf4568786f8d","swim","swim","1087","","<p>How would you describe your musical skills/experiences?</p>","0","","","","survey","","","","","","","","","","","","","","","","music-skill","1"
"survey-multi-choice","107","1877406","0.0-11.0-1.0","01d92d17ed0ea9d99d2bac6381808c7ee69318be66dd3daf29c6bf4568786f8d","swim","swim","1394","","","","","","","survey","","","","","","","","","","","","","{""Q0"":""No""}","","","music-instrument","No"
"html-button-response","108","1878458","0.0-12.0-0.0","01d92d17ed0ea9d99d2bac6381808c7ee69318be66dd3daf29c6bf4568786f8d","swim","swim","796","","<p>How would you describe your general hearing abilities?</p>","0","","","","survey","","","","","","","","","","","","","","","","ssq-01","1"
"html-button-response","109","1882330","0.0-12.0-1.0","01d92d17ed0ea9d99d2bac6381808c7ee69318be66dd3daf29c6bf4568786f8d","swim","swim","3620","","<p>When you talk with someone at a place that strongly reverberates/echoes (e.g., in a church or train station),</br>can you understand what the person says?</p>","10","","","","survey","","","","","","","","","","","","","","","","ssq-02","10"
"html-button-response","110","1885056","0.0-12.0-2.0","01d92d17ed0ea9d99d2bac6381808c7ee69318be66dd3daf29c6bf4568786f8d","swim","swim","2473","","<p>When you are with a group (~5 people) in a lively restaurant, can you follow the group's conversation?</p>","10","","","","survey","","","","","","","","","","","","","","","","ssq-03","10"
"html-button-response","111","1885759","0.0-12.0-3.0","01d92d17ed0ea9d99d2bac6381808c7ee69318be66dd3daf29c6bf4568786f8d","swim","swim","450","","<p>Based on the sound of a bus or truck, can you tell whether it is moving towards or away from you?</p>","10","","","","survey","","","","","","","","","","","","","","","","ssq-04","10"
"html-button-response","112","1888115","0.0-12.0-4.0","01d92d17ed0ea9d99d2bac6381808c7ee69318be66dd3daf29c6bf4568786f8d","swim","swim","2097","","<p>When you are in an unknown environment, can you tell from which direction a brief sound originates?</p>","10","","","","survey","","","","","","","","","","","","","","","","ssq-05","10"
"html-button-response","113","1889111","0.0-12.0-5.0","01d92d17ed0ea9d99d2bac6381808c7ee69318be66dd3daf29c6bf4568786f8d","swim","swim","742","","<p>Are you able to ignore distracting sounds when you concentrate on a specific aspect of your acoustic surrounding?</p>","10","","","","survey","","","","","","","","","","","","","","","","ssq-06","10"
"fullscreen","114","1890381","0.0-13.0","01d92d17ed0ea9d99d2bac6381808c7ee69318be66dd3daf29c6bf4568786f8d","swim","swim","","","","","","","","","true","","","","","","","","","","","","","","","",""
