"trial_type","trial_index","time_elapsed","internal_node_id","ParticipantID","firstStory","scramStory","rt","url","stimulus","button_pressed","key_press","correctRESP","correct","designation","success","letterStim","letterType","ONSET","TIMEOUT","CONDITION","Participant","ONSET_ACTUAL","RT","RESP","ACC","STORY","responses","response","type","surveyQuestion","QRESP"
"pavlovia","0","2","0.0-0.0","01d92d17ed0ea9d99d2bac6381808c7ee69318be66dd3daf29c6bf4568786f8d","arctic","swim","","","","","","","","","","","","","","","","","","","","","","","","",""
"external-html","1","17766","0.0-1.0","01d92d17ed0ea9d99d2bac6381808c7ee69318be66dd3daf29c6bf4568786f8d","arctic","swim","17610","consent/consent_updated.html","","","","","","","","","","","","","","","","","","","","","","",""
"html-button-response","2","23187","0.0-2.0-0.0","01d92d17ed0ea9d99d2bac6381808c7ee69318be66dd3daf29c6bf4568786f8d","arctic","swim","5419","","<p>Before we begin the main task, you will complete a short volume calibration and headphone check.</p><p>Please make sure you are in a quiet listening environment, that you are wearing headphones, and that your computer's volume is turned on.<p></p>","0","","","","","","","","","","","","","","","","","","","","",""
"html-button-response","3","26176","0.0-2.0-1.0","01d92d17ed0ea9d99d2bac6381808c7ee69318be66dd3daf29c6bf4568786f8d","arctic","swim","2738","","<p>The volume calibration will be first.</p><p>You will hear a thirty-second noise. Please adjust your computer's volume so that this noise is being presented at a comfortable level.<p></p>","0","","","","","","","","","","","","","","","","","","","","",""
"audio-button-response","4","30510","0.0-2.0-2.0","01d92d17ed0ea9d99d2bac6381808c7ee69318be66dd3daf29c6bf4568786f8d","arctic","swim","4082","","audio/volumetest.mp3","0","","","","","","","","","","","","","","","","","","","","",""
"html-keyboard-response","5","40104","0.0-3.0-0.0","01d92d17ed0ea9d99d2bac6381808c7ee69318be66dd3daf29c6bf4568786f8d","arctic","swim","9592","","<p>You will now complete a short headphone check.</p><p>On each trial, you will hear three tones. One of these tones will be quieter than the others. Your task is to identify whether the quiet tone occurred first, second, or third.</p><p>There are six trials in total.<p></p><p></p>(Press SPACEBAR to begin)","","32","","","","","","","","","","","","","","","","","","","",""
"html-keyboard-response","6","40877","0.0-3.0-1.0-0.0","01d92d17ed0ea9d99d2bac6381808c7ee69318be66dd3daf29c6bf4568786f8d","arctic","swim","null","","<div style=""font-size:60px;"">+</div>","","null","","","","","","","","","","","","","","","","","","","",""
"audio-button-response","7","45664","0.0-3.0-1.0-1.0","01d92d17ed0ea9d99d2bac6381808c7ee69318be66dd3daf29c6bf4568786f8d","arctic","swim","4785","","audio/t1_1.mp3","0","","0","1","headphone-test","","","","","","","","","","","","","","","","",""
"html-keyboard-response","8","46175","0.0-3.0-1.0-2.0","01d92d17ed0ea9d99d2bac6381808c7ee69318be66dd3daf29c6bf4568786f8d","arctic","swim","null","","<p>Correct</p>","","null","","","","","","","","","","","","","","","","","","","",""
"html-keyboard-response","9","46691","0.0-3.0-1.0-0.1","01d92d17ed0ea9d99d2bac6381808c7ee69318be66dd3daf29c6bf4568786f8d","arctic","swim","null","","<div style=""font-size:60px;"">+</div>","","null","","","","","","","","","","","","","","","","","","","",""
"audio-button-response","10","51256","0.0-3.0-1.0-1.1","01d92d17ed0ea9d99d2bac6381808c7ee69318be66dd3daf29c6bf4568786f8d","arctic","swim","4565","","audio/t3_2.mp3","2","","2","1","headphone-test","","","","","","","","","","","","","","","","",""
"html-keyboard-response","11","51758","0.0-3.0-1.0-2.1","01d92d17ed0ea9d99d2bac6381808c7ee69318be66dd3daf29c6bf4568786f8d","arctic","swim","null","","<p>Correct</p>","","null","","","","","","","","","","","","","","","","","","","",""
"html-keyboard-response","12","52266","0.0-3.0-1.0-0.2","01d92d17ed0ea9d99d2bac6381808c7ee69318be66dd3daf29c6bf4568786f8d","arctic","swim","null","","<div style=""font-size:60px;"">+</div>","","null","","","","","","","","","","","","","","","","","","","",""
"audio-button-response","13","56871","0.0-3.0-1.0-1.2","01d92d17ed0ea9d99d2bac6381808c7ee69318be66dd3daf29c6bf4568786f8d","arctic","swim","4604","","audio/t3_1.mp3","2","","2","1","headphone-test","","","","","","","","","","","","","","","","",""
"html-keyboard-response","14","57372","0.0-3.0-1.0-2.2","01d92d17ed0ea9d99d2bac6381808c7ee69318be66dd3daf29c6bf4568786f8d","arctic","swim","null","","<p>Correct</p>","","null","","","","","","","","","","","","","","","","","","","",""
"html-keyboard-response","15","57877","0.0-3.0-1.0-0.3","01d92d17ed0ea9d99d2bac6381808c7ee69318be66dd3daf29c6bf4568786f8d","arctic","swim","null","","<div style=""font-size:60px;"">+</div>","","null","","","","","","","","","","","","","","","","","","","",""
"audio-button-response","16","62593","0.0-3.0-1.0-1.3","01d92d17ed0ea9d99d2bac6381808c7ee69318be66dd3daf29c6bf4568786f8d","arctic","swim","4714","","audio/t1_2.mp3","0","","0","1","headphone-test","","","","","","","","","","","","","","","","",""
"html-keyboard-response","17","63105","0.0-3.0-1.0-2.3","01d92d17ed0ea9d99d2bac6381808c7ee69318be66dd3daf29c6bf4568786f8d","arctic","swim","null","","<p>Correct</p>","","null","","","","","","","","","","","","","","","","","","","",""
"html-keyboard-response","18","63607","0.0-3.0-1.0-0.4","01d92d17ed0ea9d99d2bac6381808c7ee69318be66dd3daf29c6bf4568786f8d","arctic","swim","null","","<div style=""font-size:60px;"">+</div>","","null","","","","","","","","","","","","","","","","","","","",""
"audio-button-response","19","68112","0.0-3.0-1.0-1.4","01d92d17ed0ea9d99d2bac6381808c7ee69318be66dd3daf29c6bf4568786f8d","arctic","swim","4505","","audio/t2_2.mp3","1","","1","1","headphone-test","","","","","","","","","","","","","","","","",""
"html-keyboard-response","20","68615","0.0-3.0-1.0-2.4","01d92d17ed0ea9d99d2bac6381808c7ee69318be66dd3daf29c6bf4568786f8d","arctic","swim","null","","<p>Correct</p>","","null","","","","","","","","","","","","","","","","","","","",""
"html-keyboard-response","21","69119","0.0-3.0-1.0-0.5","01d92d17ed0ea9d99d2bac6381808c7ee69318be66dd3daf29c6bf4568786f8d","arctic","swim","null","","<div style=""font-size:60px;"">+</div>","","null","","","","","","","","","","","","","","","","","","","",""
"audio-button-response","22","73662","0.0-3.0-1.0-1.5","01d92d17ed0ea9d99d2bac6381808c7ee69318be66dd3daf29c6bf4568786f8d","arctic","swim","4541","","audio/t2_1.mp3","1","","1","1","headphone-test","","","","","","","","","","","","","","","","",""
"html-keyboard-response","23","74164","0.0-3.0-1.0-2.5","01d92d17ed0ea9d99d2bac6381808c7ee69318be66dd3daf29c6bf4568786f8d","arctic","swim","null","","<p>Correct</p>","","null","","","","","","","","","","","","","","","","","","","",""
"fullscreen","24","85296","0.0-4.0","01d92d17ed0ea9d99d2bac6381808c7ee69318be66dd3daf29c6bf4568786f8d","arctic","swim","","","","","","","","","true","","","","","","","","","","","","","","","",""
"html-button-response","25","98637","0.0-5.0-0.0","01d92d17ed0ea9d99d2bac6381808c7ee69318be66dd3daf29c6bf4568786f8d","arctic","swim","13340","","<p>There are two blocks to this experiment.</p><p>In each block, you will hear a ~13.5 minute story. One of the stories will be scrambled. Please listen carefully to both stories and understand them as best you can.</p><p>After each story, you will be asked some questions to assess your comprehension.</p>","0","","","","","","","","","","","","","","","","","","","","",""
"html-button-response","26","108677","0.0-5.0-1.0","01d92d17ed0ea9d99d2bac6381808c7ee69318be66dd3daf29c6bf4568786f8d","arctic","swim","10038","","<p>During each story, there will be an additional task.</p><p>A letter will occasionally appear on the screen.</br>Your job is to - as quickly as you can - decide whether the letter is lowercase or uppercase and press one of two keys on the keyboard:</p><p>If the letter is <b>lowercase</b>, press key &lt;<b>x</b>&gt;.</p><p>If the letter is <b>uppercase</b>, press key &lt;<b>m</b>&gt;.</p>","0","","","","","","","","","","","","","","","","","","","","",""
"html-keyboard-response","27","112165","0.0-5.0-2.0","01d92d17ed0ea9d99d2bac6381808c7ee69318be66dd3daf29c6bf4568786f8d","arctic","swim","3487","","<p>Because we want your responses to be as quick as possible, please keep your index fingers over the keys while listening.</p><p>Each block lasts about 20 minutes.</p><p><b>Press &lt;x&gt; or &lt;m&gt; to start the first block!</b></p>","","88","","","","","","","","","","","","","","","","","","","",""
"html-keyboard-response","28","112666","0.0-6.0-0.0-0.0","01d92d17ed0ea9d99d2bac6381808c7ee69318be66dd3daf29c6bf4568786f8d","arctic","swim","null","","<div style=""font-size:60px;"" tabindex=""0"">+</div>","","null","","","","","","","","","","","","","","","","","","","",""
"dual-task","null","null","null","","arctic","swim","1419.2999999523163","","h","null","88","88","1","arctic-dual-task","","h","lowercase","10000","0","1","01d92d17ed0ea9d99d2bac6381808c7ee69318be66dd3daf29c6bf4568786f8d","10003.899999976158","1419.2999999523163","88","1","arctic","","","","",""
"dual-task","null","null","null","","arctic","swim","550.2000000476837","","G","null","77","77","1","arctic-dual-task","","G","uppercase","24000","0","1","01d92d17ed0ea9d99d2bac6381808c7ee69318be66dd3daf29c6bf4568786f8d","24002.799999952316","550.2000000476837","77","1","arctic","","","","",""
"dual-task","null","null","null","","arctic","swim","858.6000000238419","","E","null","77","77","1","arctic-dual-task","","E","uppercase","34000","0","1","01d92d17ed0ea9d99d2bac6381808c7ee69318be66dd3daf29c6bf4568786f8d","34005.699999928474","858.6000000238419","77","1","arctic","","","","",""
"dual-task","null","null","null","","arctic","swim","742.1000000238419","","F","null","77","77","1","arctic-dual-task","","F","uppercase","44000","0","1","01d92d17ed0ea9d99d2bac6381808c7ee69318be66dd3daf29c6bf4568786f8d","44002.39999997616","742.1000000238419","77","1","arctic","","","","",""
"dual-task","null","null","null","","arctic","swim","1123","","d","null","88","88","1","arctic-dual-task","","d","lowercase","56000","0","1","01d92d17ed0ea9d99d2bac6381808c7ee69318be66dd3daf29c6bf4568786f8d","56001.89999997616","1123","88","1","arctic","","","","",""
"dual-task","null","null","null","","arctic","swim","1353.5","","H","null","77","77","1","arctic-dual-task","","H","uppercase","64000","0","1","01d92d17ed0ea9d99d2bac6381808c7ee69318be66dd3daf29c6bf4568786f8d","64000.5","1353.5","77","1","arctic","","","","",""
"dual-task","null","null","null","","arctic","swim","1225","","h","null","88","88","1","arctic-dual-task","","h","lowercase","76000","0","1","01d92d17ed0ea9d99d2bac6381808c7ee69318be66dd3daf29c6bf4568786f8d","76004.29999995232","1225","88","1","arctic","","","","",""
"dual-task","null","null","null","","arctic","swim","788.2999999523163","","B","null","77","77","1","arctic-dual-task","","B","uppercase","86000","0","1","01d92d17ed0ea9d99d2bac6381808c7ee69318be66dd3daf29c6bf4568786f8d","86004","788.2999999523163","77","1","arctic","","","","",""
"dual-task","null","null","null","","arctic","swim","792.2999999523163","","a","null","88","88","1","arctic-dual-task","","a","lowercase","100000","0","1","01d92d17ed0ea9d99d2bac6381808c7ee69318be66dd3daf29c6bf4568786f8d","100010.79999995232","792.2999999523163","88","1","arctic","","","","",""
"dual-task","null","null","null","","arctic","swim","1047.7999999523163","","t","null","88","88","1","arctic-dual-task","","t","lowercase","110000","0","1","01d92d17ed0ea9d99d2bac6381808c7ee69318be66dd3daf29c6bf4568786f8d","110003.29999995232","1047.7999999523163","88","1","arctic","","","","",""
"dual-task","null","null","null","","arctic","swim","934.1999999284744","","N","null","77","77","1","arctic-dual-task","","N","uppercase","122000","0","1","01d92d17ed0ea9d99d2bac6381808c7ee69318be66dd3daf29c6bf4568786f8d","122010.10000002384","934.1999999284744","77","1","arctic","","","","",""
"dual-task","null","null","null","","arctic","swim","NA","","B","null","NA","77","0","arctic-dual-task","","B","uppercase","128000","1","1","01d92d17ed0ea9d99d2bac6381808c7ee69318be66dd3daf29c6bf4568786f8d","128002.79999995232","NA","NA","0","arctic","","","","",""
"dual-task","null","null","null","","arctic","swim","NA","","F","null","NA","77","0","arctic-dual-task","","F","uppercase","140000","1","1","01d92d17ed0ea9d99d2bac6381808c7ee69318be66dd3daf29c6bf4568786f8d","140008.69999992847","NA","NA","0","arctic","","","","",""
"dual-task","null","null","null","","arctic","swim","968.2999999523163","","n","null","88","88","1","arctic-dual-task","","n","lowercase","152000","0","1","01d92d17ed0ea9d99d2bac6381808c7ee69318be66dd3daf29c6bf4568786f8d","152003","968.2999999523163","88","1","arctic","","","","",""
"dual-task","null","null","null","","arctic","swim","621.2999999523163","","F","null","77","77","1","arctic-dual-task","","F","uppercase","160000","0","1","01d92d17ed0ea9d99d2bac6381808c7ee69318be66dd3daf29c6bf4568786f8d","160000.19999992847","621.2999999523163","77","1","arctic","","","","",""
"dual-task","null","null","null","","arctic","swim","870","","H","null","77","77","1","arctic-dual-task","","H","uppercase","172000","0","1","01d92d17ed0ea9d99d2bac6381808c7ee69318be66dd3daf29c6bf4568786f8d","172002","870","77","1","arctic","","","","",""
"dual-task","null","null","null","","arctic","swim","756.7000000476837","","Q","null","77","77","1","arctic-dual-task","","Q","uppercase","180000","0","1","01d92d17ed0ea9d99d2bac6381808c7ee69318be66dd3daf29c6bf4568786f8d","180002.39999997616","756.7000000476837","77","1","arctic","","","","",""
"dual-task","null","null","null","","arctic","swim","NA","","b","null","NA","88","0","arctic-dual-task","","b","lowercase","188000","1","1","01d92d17ed0ea9d99d2bac6381808c7ee69318be66dd3daf29c6bf4568786f8d","188006.5","NA","NA","0","arctic","","","","",""
"dual-task","null","null","null","","arctic","swim","877.7999999523163","","G","null","77","77","1","arctic-dual-task","","G","uppercase","196000","0","1","01d92d17ed0ea9d99d2bac6381808c7ee69318be66dd3daf29c6bf4568786f8d","196007.89999997616","877.7999999523163","77","1","arctic","","","","",""
"dual-task","null","null","null","","arctic","swim","437.89999997615814","","q","null","88","88","1","arctic-dual-task","","q","lowercase","208000","0","1","01d92d17ed0ea9d99d2bac6381808c7ee69318be66dd3daf29c6bf4568786f8d","208011.60000002384","437.89999997615814","88","1","arctic","","","","",""
"dual-task","null","null","null","","arctic","swim","556.2999999523163","","a","null","88","88","1","arctic-dual-task","","a","lowercase","218000","0","1","01d92d17ed0ea9d99d2bac6381808c7ee69318be66dd3daf29c6bf4568786f8d","218003.29999995232","556.2999999523163","88","1","arctic","","","","",""
"dual-task","null","null","null","","arctic","swim","711.7999999523163","","A","null","77","77","1","arctic-dual-task","","A","uppercase","228000","0","1","01d92d17ed0ea9d99d2bac6381808c7ee69318be66dd3daf29c6bf4568786f8d","228008.79999995232","711.7999999523163","77","1","arctic","","","","",""
"dual-task","null","null","null","","arctic","swim","408.7000000476837","","A","null","77","77","1","arctic-dual-task","","A","uppercase","242000","0","1","01d92d17ed0ea9d99d2bac6381808c7ee69318be66dd3daf29c6bf4568786f8d","242011.10000002384","408.7000000476837","77","1","arctic","","","","",""
"dual-task","null","null","null","","arctic","swim","452.89999997615814","","q","null","88","88","1","arctic-dual-task","","q","lowercase","254000","0","1","01d92d17ed0ea9d99d2bac6381808c7ee69318be66dd3daf29c6bf4568786f8d","254013.79999995232","452.89999997615814","88","1","arctic","","","","",""
"dual-task","null","null","null","","arctic","swim","785","","G","null","77","77","1","arctic-dual-task","","G","uppercase","260000","0","1","01d92d17ed0ea9d99d2bac6381808c7ee69318be66dd3daf29c6bf4568786f8d","260013.79999995232","785","77","1","arctic","","","","",""
"dual-task","null","null","null","","arctic","swim","471.2999999523163","","D","null","77","77","1","arctic-dual-task","","D","uppercase","270000","0","1","01d92d17ed0ea9d99d2bac6381808c7ee69318be66dd3daf29c6bf4568786f8d","270000.6999999285","471.2999999523163","77","1","arctic","","","","",""
"dual-task","null","null","null","","arctic","swim","544.6000000238419","","n","null","88","88","1","arctic-dual-task","","n","lowercase","282000","0","1","01d92d17ed0ea9d99d2bac6381808c7ee69318be66dd3daf29c6bf4568786f8d","282000.1999999285","544.6000000238419","88","1","arctic","","","","",""
"dual-task","null","null","null","","arctic","swim","821.5","","f","null","88","88","1","arctic-dual-task","","f","lowercase","290000","0","1","01d92d17ed0ea9d99d2bac6381808c7ee69318be66dd3daf29c6bf4568786f8d","290015.2999999523","821.5","88","1","arctic","","","","",""
"dual-task","null","null","null","","arctic","swim","521.2000000476837","","g","null","88","88","1","arctic-dual-task","","g","lowercase","300000","0","1","01d92d17ed0ea9d99d2bac6381808c7ee69318be66dd3daf29c6bf4568786f8d","300001.6999999285","521.2000000476837","88","1","arctic","","","","",""
"dual-task","null","null","null","","arctic","swim","498.5","","r","null","88","88","1","arctic-dual-task","","r","lowercase","312000","0","1","01d92d17ed0ea9d99d2bac6381808c7ee69318be66dd3daf29c6bf4568786f8d","312001.1999999285","498.5","88","1","arctic","","","","",""
"dual-task","null","null","null","","arctic","swim","445.7000000476837","","h","null","88","88","1","arctic-dual-task","","h","lowercase","320000","0","1","01d92d17ed0ea9d99d2bac6381808c7ee69318be66dd3daf29c6bf4568786f8d","320001.6999999285","445.7000000476837","88","1","arctic","","","","",""
"dual-task","null","null","null","","arctic","swim","403.10000002384186","","R","null","77","77","1","arctic-dual-task","","R","uppercase","332000","0","1","01d92d17ed0ea9d99d2bac6381808c7ee69318be66dd3daf29c6bf4568786f8d","332013.1999999285","403.10000002384186","77","1","arctic","","","","",""
"dual-task","null","null","null","","arctic","swim","473.5","","r","null","88","88","1","arctic-dual-task","","r","lowercase","340000","0","1","01d92d17ed0ea9d99d2bac6381808c7ee69318be66dd3daf29c6bf4568786f8d","340005.39999997616","473.5","88","1","arctic","","","","",""
"dual-task","null","null","null","","arctic","swim","615.2000000476837","","e","null","88","88","1","arctic-dual-task","","e","lowercase","352000","0","1","01d92d17ed0ea9d99d2bac6381808c7ee69318be66dd3daf29c6bf4568786f8d","352015.1999999285","615.2000000476837","88","1","arctic","","","","",""
"dual-task","null","null","null","","arctic","swim","409.2999999523163","","D","null","77","77","1","arctic-dual-task","","D","uppercase","360000","0","1","01d92d17ed0ea9d99d2bac6381808c7ee69318be66dd3daf29c6bf4568786f8d","360002.1999999285","409.2999999523163","77","1","arctic","","","","",""
"dual-task","null","null","null","","arctic","swim","428.59999990463257","","H","null","77","77","1","arctic-dual-task","","H","uppercase","368000","0","1","01d92d17ed0ea9d99d2bac6381808c7ee69318be66dd3daf29c6bf4568786f8d","368014","428.59999990463257","77","1","arctic","","","","",""
"dual-task","null","null","null","","arctic","swim","472.10000002384186","","Q","null","77","77","1","arctic-dual-task","","Q","uppercase","382000","0","1","01d92d17ed0ea9d99d2bac6381808c7ee69318be66dd3daf29c6bf4568786f8d","382000.2999999523","472.10000002384186","77","1","arctic","","","","",""
"dual-task","null","null","null","","arctic","swim","439.09999990463257","","q","null","77","88","0","arctic-dual-task","","q","lowercase","396000","0","1","01d92d17ed0ea9d99d2bac6381808c7ee69318be66dd3daf29c6bf4568786f8d","396014.39999997616","439.09999990463257","77","0","arctic","","","","",""
"dual-task","null","null","null","","arctic","swim","614.5","","R","null","77","77","1","arctic-dual-task","","R","uppercase","406000","0","1","01d92d17ed0ea9d99d2bac6381808c7ee69318be66dd3daf29c6bf4568786f8d","406005.60000002384","614.5","77","1","arctic","","","","",""
"dual-task","null","null","null","","arctic","swim","543.5","","R","null","77","77","1","arctic-dual-task","","R","uppercase","414000","0","1","01d92d17ed0ea9d99d2bac6381808c7ee69318be66dd3daf29c6bf4568786f8d","414005.6999999285","543.5","77","1","arctic","","","","",""
"dual-task","null","null","null","","arctic","swim","473.7999999523163","","b","null","88","88","1","arctic-dual-task","","b","lowercase","422000","0","1","01d92d17ed0ea9d99d2bac6381808c7ee69318be66dd3daf29c6bf4568786f8d","422011.89999997616","473.7999999523163","88","1","arctic","","","","",""
"dual-task","null","null","null","","arctic","swim","508.5","","d","null","88","88","1","arctic-dual-task","","d","lowercase","432000","0","1","01d92d17ed0ea9d99d2bac6381808c7ee69318be66dd3daf29c6bf4568786f8d","432010","508.5","88","1","arctic","","","","",""
"dual-task","null","null","null","","arctic","swim","564.3999999761581","","T","null","77","77","1","arctic-dual-task","","T","uppercase","440000","0","1","01d92d17ed0ea9d99d2bac6381808c7ee69318be66dd3daf29c6bf4568786f8d","440010.60000002384","564.3999999761581","77","1","arctic","","","","",""
"dual-task","null","null","null","","arctic","swim","803.3999999761581","","e","null","88","88","1","arctic-dual-task","","e","lowercase","454000","0","1","01d92d17ed0ea9d99d2bac6381808c7ee69318be66dd3daf29c6bf4568786f8d","454009.6999999285","803.3999999761581","88","1","arctic","","","","",""
"dual-task","null","null","null","","arctic","swim","541.8999999761581","","g","null","88","88","1","arctic-dual-task","","g","lowercase","462000","0","1","01d92d17ed0ea9d99d2bac6381808c7ee69318be66dd3daf29c6bf4568786f8d","462001.2999999523","541.8999999761581","88","1","arctic","","","","",""
"dual-task","null","null","null","","arctic","swim","452.5","","f","null","88","88","1","arctic-dual-task","","f","lowercase","472000","0","1","01d92d17ed0ea9d99d2bac6381808c7ee69318be66dd3daf29c6bf4568786f8d","472009.5","452.5","88","1","arctic","","","","",""
"dual-task","null","null","null","","arctic","swim","618.1999999284744","","N","null","77","77","1","arctic-dual-task","","N","uppercase","480000","0","1","01d92d17ed0ea9d99d2bac6381808c7ee69318be66dd3daf29c6bf4568786f8d","480001.39999997616","618.1999999284744","77","1","arctic","","","","",""
"dual-task","null","null","null","","arctic","swim","537.5","","a","null","88","88","1","arctic-dual-task","","a","lowercase","486000","0","1","01d92d17ed0ea9d99d2bac6381808c7ee69318be66dd3daf29c6bf4568786f8d","486001","537.5","88","1","arctic","","","","",""
"dual-task","null","null","null","","arctic","swim","619.8999999761581","","T","null","77","77","1","arctic-dual-task","","T","uppercase","496000","0","1","01d92d17ed0ea9d99d2bac6381808c7ee69318be66dd3daf29c6bf4568786f8d","496015.7999999523","619.8999999761581","77","1","arctic","","","","",""
"dual-task","null","null","null","","arctic","swim","832","","Q","null","77","77","1","arctic-dual-task","","Q","uppercase","508000","0","1","01d92d17ed0ea9d99d2bac6381808c7ee69318be66dd3daf29c6bf4568786f8d","508006","832","77","1","arctic","","","","",""
"dual-task","null","null","null","","arctic","swim","736.7999999523163","","H","null","77","77","1","arctic-dual-task","","H","uppercase","514000","0","1","01d92d17ed0ea9d99d2bac6381808c7ee69318be66dd3daf29c6bf4568786f8d","514007.89999997616","736.7999999523163","77","1","arctic","","","","",""
"dual-task","null","null","null","","arctic","swim","523.5","","q","null","88","88","1","arctic-dual-task","","q","lowercase","520000","0","1","01d92d17ed0ea9d99d2bac6381808c7ee69318be66dd3daf29c6bf4568786f8d","520012.89999997616","523.5","88","1","arctic","","","","",""
"dual-task","null","null","null","","arctic","swim","620.0999999046326","","b","null","88","88","1","arctic-dual-task","","b","lowercase","530000","0","1","01d92d17ed0ea9d99d2bac6381808c7ee69318be66dd3daf29c6bf4568786f8d","530004","620.0999999046326","88","1","arctic","","","","",""
"dual-task","null","null","null","","arctic","swim","574.2999999523163","","T","null","77","77","1","arctic-dual-task","","T","uppercase","542000","0","1","01d92d17ed0ea9d99d2bac6381808c7ee69318be66dd3daf29c6bf4568786f8d","542001.3999999762","574.2999999523163","77","1","arctic","","","","",""
"dual-task","null","null","null","","arctic","swim","670.7999999523163","","d","null","88","88","1","arctic-dual-task","","d","lowercase","554000","0","1","01d92d17ed0ea9d99d2bac6381808c7ee69318be66dd3daf29c6bf4568786f8d","554002.8999999762","670.7999999523163","88","1","arctic","","","","",""
"dual-task","null","null","null","","arctic","swim","498.2000000476837","","f","null","88","88","1","arctic-dual-task","","f","lowercase","562000","0","1","01d92d17ed0ea9d99d2bac6381808c7ee69318be66dd3daf29c6bf4568786f8d","562002","498.2000000476837","88","1","arctic","","","","",""
"dual-task","null","null","null","","arctic","swim","524.7999999523163","","g","null","88","88","1","arctic-dual-task","","g","lowercase","570000","0","1","01d92d17ed0ea9d99d2bac6381808c7ee69318be66dd3daf29c6bf4568786f8d","570014.5","524.7999999523163","88","1","arctic","","","","",""
"dual-task","null","null","null","","arctic","swim","676","","t","null","88","88","1","arctic-dual-task","","t","lowercase","578000","0","1","01d92d17ed0ea9d99d2bac6381808c7ee69318be66dd3daf29c6bf4568786f8d","578001.3999999762","676","88","1","arctic","","","","",""
"dual-task","null","null","null","","arctic","swim","672.3000000715256","","B","null","77","77","1","arctic-dual-task","","B","uppercase","586000","0","1","01d92d17ed0ea9d99d2bac6381808c7ee69318be66dd3daf29c6bf4568786f8d","586010.6000000238","672.3000000715256","77","1","arctic","","","","",""
"dual-task","null","null","null","","arctic","swim","538","","N","null","77","77","1","arctic-dual-task","","N","uppercase","594000","0","1","01d92d17ed0ea9d99d2bac6381808c7ee69318be66dd3daf29c6bf4568786f8d","594005.6999999285","538","77","1","arctic","","","","",""
"dual-task","null","null","null","","arctic","swim","546.7999999523163","","f","null","88","88","1","arctic-dual-task","","f","lowercase","608000","0","1","01d92d17ed0ea9d99d2bac6381808c7ee69318be66dd3daf29c6bf4568786f8d","608007.8999999762","546.7999999523163","88","1","arctic","","","","",""
"dual-task","null","null","null","","arctic","swim","573.9000000953674","","E","null","77","77","1","arctic-dual-task","","E","uppercase","618000","0","1","01d92d17ed0ea9d99d2bac6381808c7ee69318be66dd3daf29c6bf4568786f8d","618005.6000000238","573.9000000953674","77","1","arctic","","","","",""
"dual-task","null","null","null","","arctic","swim","703.8999999761581","","n","null","88","88","1","arctic-dual-task","","n","lowercase","626000","0","1","01d92d17ed0ea9d99d2bac6381808c7ee69318be66dd3daf29c6bf4568786f8d","626009.1999999285","703.8999999761581","88","1","arctic","","","","",""
"dual-task","null","null","null","","arctic","swim","798.7999999523163","","B","null","77","77","1","arctic-dual-task","","B","uppercase","638000","0","1","01d92d17ed0ea9d99d2bac6381808c7ee69318be66dd3daf29c6bf4568786f8d","638000.8999999762","798.7999999523163","77","1","arctic","","","","",""
"dual-task","null","null","null","","arctic","swim","546.7000000476837","","n","null","88","88","1","arctic-dual-task","","n","lowercase","646000","0","1","01d92d17ed0ea9d99d2bac6381808c7ee69318be66dd3daf29c6bf4568786f8d","646000.1999999285","546.7000000476837","88","1","arctic","","","","",""
"dual-task","null","null","null","","arctic","swim","561.6999999284744","","E","null","77","77","1","arctic-dual-task","","E","uppercase","658000","0","1","01d92d17ed0ea9d99d2bac6381808c7ee69318be66dd3daf29c6bf4568786f8d","658007.8999999762","561.6999999284744","77","1","arctic","","","","",""
"dual-task","null","null","null","","arctic","swim","576.7000000476837","","e","null","88","88","1","arctic-dual-task","","e","lowercase","670000","0","1","01d92d17ed0ea9d99d2bac6381808c7ee69318be66dd3daf29c6bf4568786f8d","670005.6999999285","576.7000000476837","88","1","arctic","","","","",""
"dual-task","null","null","null","","arctic","swim","580.1999999284744","","g","null","88","88","1","arctic-dual-task","","g","lowercase","680000","0","1","01d92d17ed0ea9d99d2bac6381808c7ee69318be66dd3daf29c6bf4568786f8d","680001","580.1999999284744","88","1","arctic","","","","",""
"dual-task","null","null","null","","arctic","swim","640.7999999523163","","A","null","77","77","1","arctic-dual-task","","A","uppercase","688000","0","1","01d92d17ed0ea9d99d2bac6381808c7ee69318be66dd3daf29c6bf4568786f8d","688013.2999999523","640.7999999523163","77","1","arctic","","","","",""
"dual-task","null","null","null","","arctic","swim","630.1000000238419","","D","null","77","77","1","arctic-dual-task","","D","uppercase","702000","0","1","01d92d17ed0ea9d99d2bac6381808c7ee69318be66dd3daf29c6bf4568786f8d","702011.7999999523","630.1000000238419","77","1","arctic","","","","",""
"dual-task","null","null","null","","arctic","swim","657.4000000953674","","F","null","77","77","1","arctic-dual-task","","F","uppercase","716000","0","1","01d92d17ed0ea9d99d2bac6381808c7ee69318be66dd3daf29c6bf4568786f8d","716005.1000000238","657.4000000953674","77","1","arctic","","","","",""
"dual-task","null","null","null","","arctic","swim","514.5","","T","null","77","77","1","arctic-dual-task","","T","uppercase","724000","0","1","01d92d17ed0ea9d99d2bac6381808c7ee69318be66dd3daf29c6bf4568786f8d","724007.1000000238","514.5","77","1","arctic","","","","",""
"dual-task","null","null","null","","arctic","swim","765.9000000953674","","Q","null","77","77","1","arctic-dual-task","","Q","uppercase","734000","0","1","01d92d17ed0ea9d99d2bac6381808c7ee69318be66dd3daf29c6bf4568786f8d","734001.3999999762","765.9000000953674","77","1","arctic","","","","",""
"dual-task","null","null","null","","arctic","swim","910.3999999761581","","r","null","88","88","1","arctic-dual-task","","r","lowercase","744000","0","1","01d92d17ed0ea9d99d2bac6381808c7ee69318be66dd3daf29c6bf4568786f8d","744011","910.3999999761581","88","1","arctic","","","","",""
"dual-task","null","null","null","","arctic","swim","572.1000000238419","","R","null","77","77","1","arctic-dual-task","","R","uppercase","754000","0","1","01d92d17ed0ea9d99d2bac6381808c7ee69318be66dd3daf29c6bf4568786f8d","754003.1999999285","572.1000000238419","77","1","arctic","","","","",""
"dual-task","null","null","null","","arctic","swim","604","","e","null","88","88","1","arctic-dual-task","","e","lowercase","766000","0","1","01d92d17ed0ea9d99d2bac6381808c7ee69318be66dd3daf29c6bf4568786f8d","766008.3999999762","604","88","1","arctic","","","","",""
"dual-task","null","null","null","","arctic","swim","526.7999999523163","","t","null","88","88","1","arctic-dual-task","","t","lowercase","778000","0","1","01d92d17ed0ea9d99d2bac6381808c7ee69318be66dd3daf29c6bf4568786f8d","778002.3999999762","526.7999999523163","88","1","arctic","","","","",""
"dual-task","null","null","null","","arctic","swim","540.2999999523163","","N","null","77","77","1","arctic-dual-task","","N","uppercase","788000","0","1","01d92d17ed0ea9d99d2bac6381808c7ee69318be66dd3daf29c6bf4568786f8d","788000.7999999523","540.2999999523163","77","1","arctic","","","","",""
"audio-keyboard-response","29","910740","0.0-6.0-0.0-1.0","01d92d17ed0ea9d99d2bac6381808c7ee69318be66dd3daf29c6bf4568786f8d","arctic","swim","null","","audio/story_arctic.mp3","","null","","","","","","","","","","","","","","","","","","","",""
"html-button-response","30","913935","0.0-6.0-0.0-2.0","01d92d17ed0ea9d99d2bac6381808c7ee69318be66dd3daf29c6bf4568786f8d","arctic","swim","3194","","<p>This concludes the story. Thank you for listening.</p><p>You will now answer some questions about the content of the story.</p>","0","","","","","","","","","","","","","","","","","","","","",""
"survey-multi-choice","31","918923","0.0-6.0-0.0-3.0-0.0","01d92d17ed0ea9d99d2bac6381808c7ee69318be66dd3daf29c6bf4568786f8d","arctic","swim","4986","","<b>How did the narrator prepare for her expedition?</b>","","","","1","arctic-comprehension","","","","","","","","","","","","","{""Q0"":""Trained in Alaska learning how to dogsled""}","","","",""
"survey-multi-choice","32","923938","0.0-6.0-0.0-3.0-0.1","01d92d17ed0ea9d99d2bac6381808c7ee69318be66dd3daf29c6bf4568786f8d","arctic","swim","4763","","<b>What did the narrator do for leisure while in her tent?</b>","","","","1","arctic-comprehension","","","","","","","","","","","","","{""Q0"":""Read""}","","","",""
"survey-multi-choice","33","929187","0.0-6.0-0.0-3.0-0.2","01d92d17ed0ea9d99d2bac6381808c7ee69318be66dd3daf29c6bf4568786f8d","arctic","swim","4996","","<b>Which dog on the narrator&#39;s dog team never followed instructions?</b>","","","","1","arctic-comprehension","","","","","","","","","","","","","{""Q0"":""Robert""}","","","",""
"survey-multi-choice","34","932578","0.0-6.0-0.0-3.0-0.3","01d92d17ed0ea9d99d2bac6381808c7ee69318be66dd3daf29c6bf4568786f8d","arctic","swim","3140","","<b>How many sponsorships did the narrator receive to support her expedition?</b>","","","","1","arctic-comprehension","","","","","","","","","","","","","{""Q0"":""None""}","","","",""
"survey-multi-choice","35","938614","0.0-6.0-0.0-3.0-0.4","01d92d17ed0ea9d99d2bac6381808c7ee69318be66dd3daf29c6bf4568786f8d","arctic","swim","5774","","<b>How did the dogs respond when they saw the bears?</b>","","","","1","arctic-comprehension","","","","","","","","","","","","","{""Q0"":""Approached them""}","","","",""
"survey-multi-choice","36","942189","0.0-6.0-0.0-3.0-0.5","01d92d17ed0ea9d99d2bac6381808c7ee69318be66dd3daf29c6bf4568786f8d","arctic","swim","3322","","<b>What is the name of the narrator&#39;s neighbour?</b>","","","","1","arctic-comprehension","","","","","","","","","","","","","{""Q0"":""Dave""}","","","",""
"survey-multi-choice","37","947954","0.0-6.0-0.0-3.0-0.6","01d92d17ed0ea9d99d2bac6381808c7ee69318be66dd3daf29c6bf4568786f8d","arctic","swim","5511","","<b>What was the objective of the narrator&#39;s expedition?</b>","","","","1","arctic-comprehension","","","","","","","","","","","","","{""Q0"":""Dogsled across Arctic America""}","","","",""
"survey-multi-choice","38","957220","0.0-6.0-0.0-3.0-0.7","01d92d17ed0ea9d99d2bac6381808c7ee69318be66dd3daf29c6bf4568786f8d","arctic","swim","9012","","<b>How did the narrator&#39;s encounter with the polar bears end?</b>","","","","1","arctic-comprehension","","","","","","","","","","","","","{""Q0"":""The bears walked back to their den.""}","","","",""
"survey-multi-choice","39","964991","0.0-6.0-0.0-3.0-0.8","01d92d17ed0ea9d99d2bac6381808c7ee69318be66dd3daf29c6bf4568786f8d","arctic","swim","7518","","<b>How did the narrator&#39;s neighbour respond when she told him about her expedition?</b>","","","","1","arctic-comprehension","","","","","","","","","","","","","{""Q0"":""He said she was going to fail.""}","","","",""
"survey-multi-choice","40","973693","0.0-6.0-0.0-3.0-0.9","01d92d17ed0ea9d99d2bac6381808c7ee69318be66dd3daf29c6bf4568786f8d","arctic","swim","8449","","<b>What were the weather conditions in the Arctic like the winter of the narrator&#39;s expedition?</b>","","","","1","arctic-comprehension","","","","","","","","","","","","","{""Q0"":""There were more storms than any other winter in recorded history.""}","","","",""
"html-button-response","41","975995","0.0-6.0-0.0-4.0","01d92d17ed0ea9d99d2bac6381808c7ee69318be66dd3daf29c6bf4568786f8d","arctic","swim","2051","","<p>Thank you for your responses.</p><p>You will now answer some questions about your impressions of the story.</p>","0","","","","","","","","","","","","","","","","","","","","",""
"html-button-response","42","978740","0.0-6.0-0.0-5.0-0.0","01d92d17ed0ea9d99d2bac6381808c7ee69318be66dd3daf29c6bf4568786f8d","arctic","swim","2743","","A2","6","","","","arctic-engagement","","","","","","","","","","","","","","7","absorption","",""
"html-button-response","43","981872","0.0-6.0-0.0-5.0-0.1","01d92d17ed0ea9d99d2bac6381808c7ee69318be66dd3daf29c6bf4568786f8d","arctic","swim","2881","","E6","6","","","","arctic-engagement","","","","","","","","","","","","","","7","enjoyment","",""
"html-button-response","44","983974","0.0-6.0-0.0-5.0-0.2","01d92d17ed0ea9d99d2bac6381808c7ee69318be66dd3daf29c6bf4568786f8d","arctic","swim","1849","","EE3","4","","","","arctic-engagement","","","","","","","","","","","","","","5","emo-engage","",""
"html-button-response","45","985547","0.0-6.0-0.0-5.0-0.3","01d92d17ed0ea9d99d2bac6381808c7ee69318be66dd3daf29c6bf4568786f8d","arctic","swim","1321","","E10","5","","","","arctic-engagement","","","","","","","","","","","","","","6","enjoyment","",""
"html-button-response","46","989021","0.0-6.0-0.0-5.0-0.4","01d92d17ed0ea9d99d2bac6381808c7ee69318be66dd3daf29c6bf4568786f8d","arctic","swim","3222","","A3","5","","","","arctic-engagement","","","","","","","","","","","","","","6","absorption","",""
"html-button-response","47","992281","0.0-6.0-0.0-5.0-0.5","01d92d17ed0ea9d99d2bac6381808c7ee69318be66dd3daf29c6bf4568786f8d","arctic","swim","3008","","A5","3","","","","arctic-engagement","","","","","","","","","","","","","","4","absorption","",""
"html-button-response","48","997514","0.0-6.0-0.0-5.0-0.6","01d92d17ed0ea9d99d2bac6381808c7ee69318be66dd3daf29c6bf4568786f8d","arctic","swim","4981","","A4","3","","","","arctic-engagement","","","","","","","","","","","","","","4","absorption","",""
"html-button-response","49","1000388","0.0-6.0-0.0-5.0-0.7","01d92d17ed0ea9d99d2bac6381808c7ee69318be66dd3daf29c6bf4568786f8d","arctic","swim","2622","","MS3","4","","","","arctic-engagement","","","","","","","","","","","","","","5","mental-sim","",""
"html-button-response","50","1005664","0.0-6.0-0.0-5.0-0.8","01d92d17ed0ea9d99d2bac6381808c7ee69318be66dd3daf29c6bf4568786f8d","arctic","swim","5024","","EE2","4","","","","arctic-engagement","","","","","","","","","","","","","","5","emo-engage","",""
"html-button-response","51","1007744","0.0-6.0-0.0-5.0-0.9","01d92d17ed0ea9d99d2bac6381808c7ee69318be66dd3daf29c6bf4568786f8d","arctic","swim","1827","","E1","5","","","","arctic-engagement","","","","","","","","","","","","","","6","enjoyment","",""
"html-button-response","52","1019110","0.0-6.0-0.0-5.0-0.10","01d92d17ed0ea9d99d2bac6381808c7ee69318be66dd3daf29c6bf4568786f8d","arctic","swim","11113","","MS2","4","","","","arctic-engagement","","","","","","","","","","","","","","5","mental-sim","",""
"html-button-response","53","1030968","0.0-6.0-0.0-5.0-0.11","01d92d17ed0ea9d99d2bac6381808c7ee69318be66dd3daf29c6bf4568786f8d","arctic","swim","11607","","EE4","3","","","","arctic-engagement","","","","","","","","","","","","","","4","emo-engage","",""
"html-button-response","54","1033019","0.0-6.0-0.0-5.0-0.12","01d92d17ed0ea9d99d2bac6381808c7ee69318be66dd3daf29c6bf4568786f8d","arctic","swim","1799","","E7","5","","","","arctic-engagement","","","","","","","","","","","","","","6","enjoyment","",""
"html-button-response","55","1038917","0.0-6.0-0.0-5.0-0.13","01d92d17ed0ea9d99d2bac6381808c7ee69318be66dd3daf29c6bf4568786f8d","arctic","swim","5645","","A1","0","","","","arctic-engagement","","","","","","","","","","","","","","1","absorption","",""
"html-button-response","56","1041568","0.0-6.0-0.0-5.0-0.14","01d92d17ed0ea9d99d2bac6381808c7ee69318be66dd3daf29c6bf4568786f8d","arctic","swim","2398","","EE1","4","","","","arctic-engagement","","","","","","","","","","","","","","5","emo-engage","",""
"html-button-response","57","1044893","0.0-6.0-0.0-5.0-0.15","01d92d17ed0ea9d99d2bac6381808c7ee69318be66dd3daf29c6bf4568786f8d","arctic","swim","3073","","EE5","4","","","","arctic-engagement","","","","","","","","","","","","","","5","emo-engage","",""
"html-button-response","58","1050825","0.0-6.0-0.0-5.0-0.16","01d92d17ed0ea9d99d2bac6381808c7ee69318be66dd3daf29c6bf4568786f8d","arctic","swim","5681","","MS1","3","","","","arctic-engagement","","","","","","","","","","","","","","4","mental-sim","",""
"html-button-response","59","1052462","0.0-6.0-0.0-5.0-0.17","01d92d17ed0ea9d99d2bac6381808c7ee69318be66dd3daf29c6bf4568786f8d","arctic","swim","1385","","E8","4","","","","arctic-engagement","","","","","","","","","","","","","","5","enjoyment","",""
"html-keyboard-response","60","1158842","0.0-6.0-1.0","01d92d17ed0ea9d99d2bac6381808c7ee69318be66dd3daf29c6bf4568786f8d","arctic","swim","106129","","<p>Thank you for your responses. You will now listen to the second story.</p><p>Remember, as you listen to the story you will see letters appear on the screen.</br>As quickly as possible, press <b>&lt;x&gt;</b> if the letter is lowercase and <b>&lt;m&gt;</b> if the letter is uppercase.</p><p>Press <b>&lt;x&gt;</b> or <b>&lt;m&gt;</b> to begin listening!</p>","","88","","","","","","","","","","","","","","","","","","","",""
"html-keyboard-response","61","1159343","0.0-6.0-2.0-0.0","01d92d17ed0ea9d99d2bac6381808c7ee69318be66dd3daf29c6bf4568786f8d","arctic","swim","null","","<div style=""font-size:60px;"" tabindex=""0"">+</div>","","null","","","","","","","","","","","","","","","","","","","",""
"dual-task","null","null","null","","arctic","swim","593.6000000238419","","t","null","88","88","1","swim-dual-task","","t","lowercase","10000","0","1","01d92d17ed0ea9d99d2bac6381808c7ee69318be66dd3daf29c6bf4568786f8d","10006.299999952316","593.6000000238419","88","1","swim","","","","",""
"dual-task","null","null","null","","arctic","swim","621.5999999046326","","h","null","88","88","1","swim-dual-task","","h","lowercase","18000","0","1","01d92d17ed0ea9d99d2bac6381808c7ee69318be66dd3daf29c6bf4568786f8d","18014.200000047684","621.5999999046326","88","1","swim","","","","",""
"dual-task","null","null","null","","arctic","swim","823.1000000238419","","T","null","77","77","1","swim-dual-task","","T","uppercase","28000","0","1","01d92d17ed0ea9d99d2bac6381808c7ee69318be66dd3daf29c6bf4568786f8d","28006.700000047684","823.1000000238419","77","1","swim","","","","",""
"dual-task","null","null","null","","arctic","swim","545.0999999046326","","q","null","88","88","1","swim-dual-task","","q","lowercase","40000","0","1","01d92d17ed0ea9d99d2bac6381808c7ee69318be66dd3daf29c6bf4568786f8d","40006.200000047684","545.0999999046326","88","1","swim","","","","",""
"dual-task","null","null","null","","arctic","swim","525","","n","null","88","88","1","swim-dual-task","","n","lowercase","54000","0","1","01d92d17ed0ea9d99d2bac6381808c7ee69318be66dd3daf29c6bf4568786f8d","54013.60000002384","525","88","1","swim","","","","",""
"dual-task","null","null","null","","arctic","swim","982.6000000238419","","H","null","77","77","1","swim-dual-task","","H","uppercase","62000","0","1","01d92d17ed0ea9d99d2bac6381808c7ee69318be66dd3daf29c6bf4568786f8d","62000.200000047684","982.6000000238419","77","1","swim","","","","",""
"dual-task","null","null","null","","arctic","swim","601.9000000953674","","f","null","88","88","1","swim-dual-task","","f","lowercase","72000","0","1","01d92d17ed0ea9d99d2bac6381808c7ee69318be66dd3daf29c6bf4568786f8d","72009.20000004768","601.9000000953674","88","1","swim","","","","",""
"dual-task","null","null","null","","arctic","swim","554.9000000953674","","R","null","77","77","1","swim-dual-task","","R","uppercase","82000","0","1","01d92d17ed0ea9d99d2bac6381808c7ee69318be66dd3daf29c6bf4568786f8d","82010.29999995232","554.9000000953674","77","1","swim","","","","",""
"dual-task","null","null","null","","arctic","swim","659.8999999761581","","F","null","77","77","1","swim-dual-task","","F","uppercase","94000","0","1","01d92d17ed0ea9d99d2bac6381808c7ee69318be66dd3daf29c6bf4568786f8d","94011.29999995232","659.8999999761581","77","1","swim","","","","",""
"dual-task","null","null","null","","arctic","swim","888.3999999761581","","B","null","77","77","1","swim-dual-task","","B","uppercase","108000","0","1","01d92d17ed0ea9d99d2bac6381808c7ee69318be66dd3daf29c6bf4568786f8d","108009.10000002384","888.3999999761581","77","1","swim","","","","",""
"dual-task","null","null","null","","arctic","swim","758.6000000238419","","e","null","88","88","1","swim-dual-task","","e","lowercase","116000","0","1","01d92d17ed0ea9d99d2bac6381808c7ee69318be66dd3daf29c6bf4568786f8d","116010.39999997616","758.6000000238419","88","1","swim","","","","",""
"dual-task","null","null","null","","arctic","swim","556.6999999284744","","Q","null","77","77","1","swim-dual-task","","Q","uppercase","124000","0","1","01d92d17ed0ea9d99d2bac6381808c7ee69318be66dd3daf29c6bf4568786f8d","124004.70000004768","556.6999999284744","77","1","swim","","","","",""
"dual-task","null","null","null","","arctic","swim","640.7000000476837","","Q","null","77","77","1","swim-dual-task","","Q","uppercase","136000","0","1","01d92d17ed0ea9d99d2bac6381808c7ee69318be66dd3daf29c6bf4568786f8d","136009.39999997616","640.7000000476837","77","1","swim","","","","",""
"dual-task","null","null","null","","arctic","swim","655.6000000238419","","N","null","77","77","1","swim-dual-task","","N","uppercase","150000","0","1","01d92d17ed0ea9d99d2bac6381808c7ee69318be66dd3daf29c6bf4568786f8d","150004","655.6000000238419","77","1","swim","","","","",""
"dual-task","null","null","null","","arctic","swim","616.2999999523163","","b","null","88","88","1","swim-dual-task","","b","lowercase","162000","0","1","01d92d17ed0ea9d99d2bac6381808c7ee69318be66dd3daf29c6bf4568786f8d","162008","616.2999999523163","88","1","swim","","","","",""
"dual-task","null","null","null","","arctic","swim","631.6000000238419","","G","null","77","77","1","swim-dual-task","","G","uppercase","174000","0","1","01d92d17ed0ea9d99d2bac6381808c7ee69318be66dd3daf29c6bf4568786f8d","174010.10000002384","631.6000000238419","77","1","swim","","","","",""
"dual-task","null","null","null","","arctic","swim","962.9000000953674","","g","null","88","88","1","swim-dual-task","","g","lowercase","184000","0","1","01d92d17ed0ea9d99d2bac6381808c7ee69318be66dd3daf29c6bf4568786f8d","184007.70000004768","962.9000000953674","88","1","swim","","","","",""
"dual-task","null","null","null","","arctic","swim","591.7000000476837","","h","null","88","88","1","swim-dual-task","","h","lowercase","196000","0","1","01d92d17ed0ea9d99d2bac6381808c7ee69318be66dd3daf29c6bf4568786f8d","196000.5","591.7000000476837","88","1","swim","","","","",""
"dual-task","null","null","null","","arctic","swim","1170.4000000953674","","F","null","77","77","1","swim-dual-task","","F","uppercase","210000","0","1","01d92d17ed0ea9d99d2bac6381808c7ee69318be66dd3daf29c6bf4568786f8d","210005.10000002384","1170.4000000953674","77","1","swim","","","","",""
"dual-task","null","null","null","","arctic","swim","605.7999999523163","","d","null","88","88","1","swim-dual-task","","d","lowercase","220000","0","1","01d92d17ed0ea9d99d2bac6381808c7ee69318be66dd3daf29c6bf4568786f8d","220003.10000002384","605.7999999523163","88","1","swim","","","","",""
"dual-task","null","null","null","","arctic","swim","624.2000000476837","","n","null","88","88","1","swim-dual-task","","n","lowercase","230000","0","1","01d92d17ed0ea9d99d2bac6381808c7ee69318be66dd3daf29c6bf4568786f8d","230005.89999997616","624.2000000476837","88","1","swim","","","","",""
"dual-task","null","null","null","","arctic","swim","528","","g","null","88","88","1","swim-dual-task","","g","lowercase","238000","0","1","01d92d17ed0ea9d99d2bac6381808c7ee69318be66dd3daf29c6bf4568786f8d","238002.39999997616","528","88","1","swim","","","","",""
"dual-task","null","null","null","","arctic","swim","620.1999999284744","","a","null","88","88","1","swim-dual-task","","a","lowercase","246000","0","1","01d92d17ed0ea9d99d2bac6381808c7ee69318be66dd3daf29c6bf4568786f8d","246010.20000004768","620.1999999284744","88","1","swim","","","","",""
"dual-task","null","null","null","","arctic","swim","584.2999999523163","","Q","null","77","77","1","swim-dual-task","","Q","uppercase","258000","0","1","01d92d17ed0ea9d99d2bac6381808c7ee69318be66dd3daf29c6bf4568786f8d","258006.29999995232","584.2999999523163","77","1","swim","","","","",""
"dual-task","null","null","null","","arctic","swim","553.8999999761581","","R","null","77","77","1","swim-dual-task","","R","uppercase","268000","0","1","01d92d17ed0ea9d99d2bac6381808c7ee69318be66dd3daf29c6bf4568786f8d","268006.39999997616","553.8999999761581","77","1","swim","","","","",""
"dual-task","null","null","null","","arctic","swim","514.5","","r","null","88","88","1","swim-dual-task","","r","lowercase","282000","0","1","01d92d17ed0ea9d99d2bac6381808c7ee69318be66dd3daf29c6bf4568786f8d","282007.89999997616","514.5","88","1","swim","","","","",""
"dual-task","null","null","null","","arctic","swim","483.7999999523163","","e","null","88","88","1","swim-dual-task","","e","lowercase","288000","0","1","01d92d17ed0ea9d99d2bac6381808c7ee69318be66dd3daf29c6bf4568786f8d","288014.7000000477","483.7999999523163","88","1","swim","","","","",""
"dual-task","null","null","null","","arctic","swim","1022.8999999761581","","N","null","88","77","0","swim-dual-task","","N","uppercase","302000","0","1","01d92d17ed0ea9d99d2bac6381808c7ee69318be66dd3daf29c6bf4568786f8d","302012.89999997616","1022.8999999761581","88","0","swim","","","","",""
"dual-task","null","null","null","","arctic","swim","551.1000000238419","","r","null","88","88","1","swim-dual-task","","r","lowercase","312000","0","1","01d92d17ed0ea9d99d2bac6381808c7ee69318be66dd3daf29c6bf4568786f8d","312008.5","551.1000000238419","88","1","swim","","","","",""
"dual-task","null","null","null","","arctic","swim","615.4000000953674","","r","null","88","88","1","swim-dual-task","","r","lowercase","322000","0","1","01d92d17ed0ea9d99d2bac6381808c7ee69318be66dd3daf29c6bf4568786f8d","322014.2000000477","615.4000000953674","88","1","swim","","","","",""
"dual-task","null","null","null","","arctic","swim","599.1000000238419","","b","null","88","88","1","swim-dual-task","","b","lowercase","330000","0","1","01d92d17ed0ea9d99d2bac6381808c7ee69318be66dd3daf29c6bf4568786f8d","330013.5","599.1000000238419","88","1","swim","","","","",""
"dual-task","null","null","null","","arctic","swim","605.0999999046326","","E","null","77","77","1","swim-dual-task","","E","uppercase","340000","0","1","01d92d17ed0ea9d99d2bac6381808c7ee69318be66dd3daf29c6bf4568786f8d","340007.60000002384","605.0999999046326","77","1","swim","","","","",""
"dual-task","null","null","null","","arctic","swim","591.8999999761581","","b","null","88","88","1","swim-dual-task","","b","lowercase","350000","0","1","01d92d17ed0ea9d99d2bac6381808c7ee69318be66dd3daf29c6bf4568786f8d","350007.39999997616","591.8999999761581","88","1","swim","","","","",""
"dual-task","null","null","null","","arctic","swim","437.5","","q","null","88","88","1","swim-dual-task","","q","lowercase","362000","0","1","01d92d17ed0ea9d99d2bac6381808c7ee69318be66dd3daf29c6bf4568786f8d","362013.5","437.5","88","1","swim","","","","",""
"dual-task","null","null","null","","arctic","swim","746.2999999523163","","G","null","77","77","1","swim-dual-task","","G","uppercase","372000","0","1","01d92d17ed0ea9d99d2bac6381808c7ee69318be66dd3daf29c6bf4568786f8d","372003.89999997616","746.2999999523163","77","1","swim","","","","",""
"dual-task","null","null","null","","arctic","swim","571.3000000715256","","f","null","88","88","1","swim-dual-task","","f","lowercase","380000","0","1","01d92d17ed0ea9d99d2bac6381808c7ee69318be66dd3daf29c6bf4568786f8d","380008.7000000477","571.3000000715256","88","1","swim","","","","",""
"dual-task","null","null","null","","arctic","swim","555.1000000238419","","H","null","77","77","1","swim-dual-task","","H","uppercase","390000","0","1","01d92d17ed0ea9d99d2bac6381808c7ee69318be66dd3daf29c6bf4568786f8d","390002.7999999523","555.1000000238419","77","1","swim","","","","",""
"dual-task","null","null","null","","arctic","swim","599.8999999761581","","T","null","77","77","1","swim-dual-task","","T","uppercase","396000","0","1","01d92d17ed0ea9d99d2bac6381808c7ee69318be66dd3daf29c6bf4568786f8d","396012.7999999523","599.8999999761581","77","1","swim","","","","",""
"dual-task","null","null","null","","arctic","swim","1183.2000000476837","","A","null","77","77","1","swim-dual-task","","A","uppercase","406000","0","1","01d92d17ed0ea9d99d2bac6381808c7ee69318be66dd3daf29c6bf4568786f8d","406014.7999999523","1183.2000000476837","77","1","swim","","","","",""
"dual-task","null","null","null","","arctic","swim","555.4000000953674","","G","null","77","77","1","swim-dual-task","","G","uppercase","416000","0","1","01d92d17ed0ea9d99d2bac6381808c7ee69318be66dd3daf29c6bf4568786f8d","416001.2999999523","555.4000000953674","77","1","swim","","","","",""
"dual-task","null","null","null","","arctic","swim","437.2999999523163","","B","null","77","77","1","swim-dual-task","","B","uppercase","422000","0","1","01d92d17ed0ea9d99d2bac6381808c7ee69318be66dd3daf29c6bf4568786f8d","422010","437.2999999523163","77","1","swim","","","","",""
"dual-task","null","null","null","","arctic","swim","611.1000000238419","","B","null","77","77","1","swim-dual-task","","B","uppercase","428000","0","1","01d92d17ed0ea9d99d2bac6381808c7ee69318be66dd3daf29c6bf4568786f8d","428013.7000000477","611.1000000238419","77","1","swim","","","","",""
"dual-task","null","null","null","","arctic","swim","557.3999999761581","","A","null","77","77","1","swim-dual-task","","A","uppercase","438000","0","1","01d92d17ed0ea9d99d2bac6381808c7ee69318be66dd3daf29c6bf4568786f8d","438012.7999999523","557.3999999761581","77","1","swim","","","","",""
"dual-task","null","null","null","","arctic","swim","880.2999999523163","","h","null","88","88","1","swim-dual-task","","h","lowercase","444000","0","1","01d92d17ed0ea9d99d2bac6381808c7ee69318be66dd3daf29c6bf4568786f8d","444001","880.2999999523163","88","1","swim","","","","",""
"dual-task","null","null","null","","arctic","swim","1607.2000000476837","","A","null","77","77","1","swim-dual-task","","A","uppercase","452000","0","1","01d92d17ed0ea9d99d2bac6381808c7ee69318be66dd3daf29c6bf4568786f8d","452009.2999999523","1607.2000000476837","77","1","swim","","","","",""
"dual-task","null","null","null","","arctic","swim","531.1000000238419","","F","null","77","77","1","swim-dual-task","","F","uppercase","460000","0","1","01d92d17ed0ea9d99d2bac6381808c7ee69318be66dd3daf29c6bf4568786f8d","460002.89999997616","531.1000000238419","77","1","swim","","","","",""
"dual-task","null","null","null","","arctic","swim","644.1999999284744","","G","null","77","77","1","swim-dual-task","","G","uppercase","474000","0","1","01d92d17ed0ea9d99d2bac6381808c7ee69318be66dd3daf29c6bf4568786f8d","474015.10000002384","644.1999999284744","77","1","swim","","","","",""
"dual-task","null","null","null","","arctic","swim","504.40000009536743","","e","null","88","88","1","swim-dual-task","","e","lowercase","486000","0","1","01d92d17ed0ea9d99d2bac6381808c7ee69318be66dd3daf29c6bf4568786f8d","486002.2000000477","504.40000009536743","88","1","swim","","","","",""
"dual-task","null","null","null","","arctic","swim","509","","Q","null","77","77","1","swim-dual-task","","Q","uppercase","494000","0","1","01d92d17ed0ea9d99d2bac6381808c7ee69318be66dd3daf29c6bf4568786f8d","494015.10000002384","509","77","1","swim","","","","",""
"dual-task","null","null","null","","arctic","swim","1225.8999999761581","","r","null","88","88","1","swim-dual-task","","r","lowercase","508000","0","1","01d92d17ed0ea9d99d2bac6381808c7ee69318be66dd3daf29c6bf4568786f8d","508007.7999999523","1225.8999999761581","88","1","swim","","","","",""
"dual-task","null","null","null","","arctic","swim","685.9000000953674","","a","null","88","88","1","swim-dual-task","","a","lowercase","522000","0","1","01d92d17ed0ea9d99d2bac6381808c7ee69318be66dd3daf29c6bf4568786f8d","522004.7000000477","685.9000000953674","88","1","swim","","","","",""
"dual-task","null","null","null","","arctic","swim","510.10000002384186","","f","null","77","88","0","swim-dual-task","","f","lowercase","532000","0","1","01d92d17ed0ea9d99d2bac6381808c7ee69318be66dd3daf29c6bf4568786f8d","532011.8999999762","510.10000002384186","77","0","swim","","","","",""
"dual-task","null","null","null","","arctic","swim","653.8999999761581","","D","null","77","77","1","swim-dual-task","","D","uppercase","544000","0","1","01d92d17ed0ea9d99d2bac6381808c7ee69318be66dd3daf29c6bf4568786f8d","544007.7000000477","653.8999999761581","77","1","swim","","","","",""
"dual-task","null","null","null","","arctic","swim","564.1000000238419","","b","null","88","88","1","swim-dual-task","","b","lowercase","558000","0","1","01d92d17ed0ea9d99d2bac6381808c7ee69318be66dd3daf29c6bf4568786f8d","558003.8999999762","564.1000000238419","88","1","swim","","","","",""
"dual-task","null","null","null","","arctic","swim","1130.3999999761581","","g","null","88","88","1","swim-dual-task","","g","lowercase","564000","0","1","01d92d17ed0ea9d99d2bac6381808c7ee69318be66dd3daf29c6bf4568786f8d","564003.6000000238","1130.3999999761581","88","1","swim","","","","",""
"dual-task","null","null","null","","arctic","swim","564.2000000476837","","E","null","77","77","1","swim-dual-task","","E","uppercase","574000","0","1","01d92d17ed0ea9d99d2bac6381808c7ee69318be66dd3daf29c6bf4568786f8d","574010.2000000477","564.2000000476837","77","1","swim","","","","",""
"dual-task","null","null","null","","arctic","swim","796.3999999761581","","N","null","77","77","1","swim-dual-task","","N","uppercase","582000","0","1","01d92d17ed0ea9d99d2bac6381808c7ee69318be66dd3daf29c6bf4568786f8d","582002.8999999762","796.3999999761581","77","1","swim","","","","",""
"dual-task","null","null","null","","arctic","swim","928.5","","h","null","88","88","1","swim-dual-task","","h","lowercase","592000","0","1","01d92d17ed0ea9d99d2bac6381808c7ee69318be66dd3daf29c6bf4568786f8d","592002.8999999762","928.5","88","1","swim","","","","",""
"dual-task","null","null","null","","arctic","swim","566.2000000476837","","t","null","88","88","1","swim-dual-task","","t","lowercase","606000","0","1","01d92d17ed0ea9d99d2bac6381808c7ee69318be66dd3daf29c6bf4568786f8d","606009.3999999762","566.2000000476837","88","1","swim","","","","",""
"dual-task","null","null","null","","arctic","swim","1755.6000000238419","","q","null","88","88","1","swim-dual-task","","q","lowercase","612000","0","1","01d92d17ed0ea9d99d2bac6381808c7ee69318be66dd3daf29c6bf4568786f8d","612001.5","1755.6000000238419","88","1","swim","","","","",""
"dual-task","null","null","null","","arctic","swim","588.1000000238419","","B","null","77","77","1","swim-dual-task","","B","uppercase","620000","0","1","01d92d17ed0ea9d99d2bac6381808c7ee69318be66dd3daf29c6bf4568786f8d","620002.3999999762","588.1000000238419","77","1","swim","","","","",""
"dual-task","null","null","null","","arctic","swim","729.2999999523163","","t","null","88","88","1","swim-dual-task","","t","lowercase","628000","0","1","01d92d17ed0ea9d99d2bac6381808c7ee69318be66dd3daf29c6bf4568786f8d","628010.3999999762","729.2999999523163","88","1","swim","","","","",""
"dual-task","null","null","null","","arctic","swim","499","","A","null","77","77","1","swim-dual-task","","A","uppercase","636000","0","1","01d92d17ed0ea9d99d2bac6381808c7ee69318be66dd3daf29c6bf4568786f8d","636012.5","499","77","1","swim","","","","",""
"dual-task","null","null","null","","arctic","swim","441.60000002384186","","D","null","77","77","1","swim-dual-task","","D","uppercase","646000","0","1","01d92d17ed0ea9d99d2bac6381808c7ee69318be66dd3daf29c6bf4568786f8d","646003.7000000477","441.60000002384186","77","1","swim","","","","",""
"dual-task","null","null","null","","arctic","swim","474.7000000476837","","R","null","77","77","1","swim-dual-task","","R","uppercase","656000","0","1","01d92d17ed0ea9d99d2bac6381808c7ee69318be66dd3daf29c6bf4568786f8d","656004.7999999523","474.7000000476837","77","1","swim","","","","",""
"dual-task","null","null","null","","arctic","swim","592","","f","null","88","88","1","swim-dual-task","","f","lowercase","664000","0","1","01d92d17ed0ea9d99d2bac6381808c7ee69318be66dd3daf29c6bf4568786f8d","664011.6000000238","592","88","1","swim","","","","",""
"dual-task","null","null","null","","arctic","swim","567.6000000238419","","q","null","88","88","1","swim-dual-task","","q","lowercase","676000","0","1","01d92d17ed0ea9d99d2bac6381808c7ee69318be66dd3daf29c6bf4568786f8d","676010.8999999762","567.6000000238419","88","1","swim","","","","",""
"dual-task","null","null","null","","arctic","swim","510.7000000476837","","a","null","88","88","1","swim-dual-task","","a","lowercase","688000","0","1","01d92d17ed0ea9d99d2bac6381808c7ee69318be66dd3daf29c6bf4568786f8d","688006.7999999523","510.7000000476837","88","1","swim","","","","",""
"dual-task","null","null","null","","arctic","swim","600.9000000953674","","E","null","77","77","1","swim-dual-task","","E","uppercase","694000","0","1","01d92d17ed0ea9d99d2bac6381808c7ee69318be66dd3daf29c6bf4568786f8d","694004.2000000477","600.9000000953674","77","1","swim","","","","",""
"dual-task","null","null","null","","arctic","swim","490.7999999523163","","d","null","88","88","1","swim-dual-task","","d","lowercase","704000","0","1","01d92d17ed0ea9d99d2bac6381808c7ee69318be66dd3daf29c6bf4568786f8d","704002.3999999762","490.7999999523163","88","1","swim","","","","",""
"dual-task","null","null","null","","arctic","swim","618.5999999046326","","T","null","77","77","1","swim-dual-task","","T","uppercase","712000","0","1","01d92d17ed0ea9d99d2bac6381808c7ee69318be66dd3daf29c6bf4568786f8d","712009.6000000238","618.5999999046326","77","1","swim","","","","",""
"dual-task","null","null","null","","arctic","swim","562.2000000476837","","t","null","88","88","1","swim-dual-task","","t","lowercase","722000","0","1","01d92d17ed0ea9d99d2bac6381808c7ee69318be66dd3daf29c6bf4568786f8d","722004.7999999523","562.2000000476837","88","1","swim","","","","",""
"dual-task","null","null","null","","arctic","swim","541.8999999761581","","n","null","88","88","1","swim-dual-task","","n","lowercase","734000","0","1","01d92d17ed0ea9d99d2bac6381808c7ee69318be66dd3daf29c6bf4568786f8d","734015.2999999523","541.8999999761581","88","1","swim","","","","",""
"dual-task","null","null","null","","arctic","swim","633.8999999761581","","a","null","88","88","1","swim-dual-task","","a","lowercase","746000","0","1","01d92d17ed0ea9d99d2bac6381808c7ee69318be66dd3daf29c6bf4568786f8d","746006.1000000238","633.8999999761581","88","1","swim","","","","",""
"dual-task","null","null","null","","arctic","swim","518.7000000476837","","e","null","88","88","1","swim-dual-task","","e","lowercase","760000","0","1","01d92d17ed0ea9d99d2bac6381808c7ee69318be66dd3daf29c6bf4568786f8d","760005.8999999762","518.7000000476837","88","1","swim","","","","",""
"dual-task","null","null","null","","arctic","swim","530","","g","null","88","88","1","swim-dual-task","","g","lowercase","766000","0","1","01d92d17ed0ea9d99d2bac6381808c7ee69318be66dd3daf29c6bf4568786f8d","766002.3999999762","530","88","1","swim","","","","",""
"dual-task","null","null","null","","arctic","swim","921.1999999284744","","E","null","77","77","1","swim-dual-task","","E","uppercase","778000","0","1","01d92d17ed0ea9d99d2bac6381808c7ee69318be66dd3daf29c6bf4568786f8d","778009.7000000477","921.1999999284744","77","1","swim","","","","",""
"dual-task","null","null","null","","arctic","swim","580.8999999761581","","F","null","77","77","1","swim-dual-task","","F","uppercase","788000","0","1","01d92d17ed0ea9d99d2bac6381808c7ee69318be66dd3daf29c6bf4568786f8d","788001.7999999523","580.8999999761581","77","1","swim","","","","",""
"dual-task","null","null","null","","arctic","swim","492.39999997615814","","D","null","77","77","1","swim-dual-task","","D","uppercase","794000","0","1","01d92d17ed0ea9d99d2bac6381808c7ee69318be66dd3daf29c6bf4568786f8d","794000.7999999523","492.39999997615814","77","1","swim","","","","",""
"audio-keyboard-response","62","1969347","0.0-6.0-2.0-1.0","01d92d17ed0ea9d99d2bac6381808c7ee69318be66dd3daf29c6bf4568786f8d","arctic","swim","null","","audio/story_swim_scrambled.mp3","","null","","","","","","","","","","","","","","","","","","","",""
"html-button-response","63","1972628","0.0-6.0-2.0-2.0","01d92d17ed0ea9d99d2bac6381808c7ee69318be66dd3daf29c6bf4568786f8d","arctic","swim","3280","","<p>This concludes the story. Thank you for listening.</p><p>You will now answer some questions about the content of the story.</p>","0","","","","","","","","","","","","","","","","","","","","",""
"survey-multi-choice","64","1977316","0.0-6.0-2.0-3.0-0.0","01d92d17ed0ea9d99d2bac6381808c7ee69318be66dd3daf29c6bf4568786f8d","arctic","swim","4685","","<b>How many times did the astronaut candidates have to complete the final exercise to pass?</b>","","","","1","swim-comprehension","","","","","","","","","","","","","{""Q0"":""Two""}","","","",""
"survey-multi-choice","65","1985691","0.0-6.0-2.0-3.0-0.1","01d92d17ed0ea9d99d2bac6381808c7ee69318be66dd3daf29c6bf4568786f8d","arctic","swim","8122","","<b>What were the astronaut candidates trained to do at the naval air station?</b>","","","","1","swim-comprehension","","","","","","","","","","","","","{""Q0"":""Eject out of aircraft and survive in water long enough to be rescued""}","","","",""
"survey-multi-choice","66","1988731","0.0-6.0-2.0-3.0-0.2","01d92d17ed0ea9d99d2bac6381808c7ee69318be66dd3daf29c6bf4568786f8d","arctic","swim","2783","","<b>What is the narrator afraid of, aside from the water?</b>","","","","1","swim-comprehension","","","","","","","","","","","","","{""Q0"":""Heights""}","","","",""
"survey-multi-choice","67","2000000","0.0-6.0-2.0-3.0-0.3","01d92d17ed0ea9d99d2bac6381808c7ee69318be66dd3daf29c6bf4568786f8d","arctic","swim","11017","","<b>What was the final step of the first swim test in the pool?</b>","","","","1","swim-comprehension","","","","","","","","","","","","","{""Q0"":""Tread water with hands above the water""}","","","",""
"survey-multi-choice","68","2004712","0.0-6.0-2.0-3.0-0.4","01d92d17ed0ea9d99d2bac6381808c7ee69318be66dd3daf29c6bf4568786f8d","arctic","swim","4460","","<b>How did the narrator train for his swim test?</b>","","","","1","swim-comprehension","","","","","","","","","","","","","{""Q0"":""Took his kids to the pool every day""}","","","",""
"survey-multi-choice","69","2007629","0.0-6.0-2.0-3.0-0.5","01d92d17ed0ea9d99d2bac6381808c7ee69318be66dd3daf29c6bf4568786f8d","arctic","swim","2665","","<b>Where is the home of naval aviation?</b>","","","","1","swim-comprehension","","","","","","","","","","","","","{""Q0"":""Pensacola""}","","","",""
"survey-multi-choice","70","2010567","0.0-6.0-2.0-3.0-0.6","01d92d17ed0ea9d99d2bac6381808c7ee69318be66dd3daf29c6bf4568786f8d","arctic","swim","2686","","<b>How many astronaut candidates reported for duty at the Johnson Space Center?</b>","","","","1","swim-comprehension","","","","","","","","","","","","","{""Q0"":""Forty-four""}","","","",""
"survey-multi-choice","71","2018240","0.0-6.0-2.0-3.0-0.7","01d92d17ed0ea9d99d2bac6381808c7ee69318be66dd3daf29c6bf4568786f8d","arctic","swim","7420","","<b>How many astronaut candidates passed the first swim test?</b>","","","","1","swim-comprehension","","","","","","","","","","","","","{""Q0"":""All of them""}","","","",""
"survey-multi-choice","72","2025410","0.0-6.0-2.0-3.0-0.8","01d92d17ed0ea9d99d2bac6381808c7ee69318be66dd3daf29c6bf4568786f8d","arctic","swim","6917","","<b>How often does the narrator swim, now that he is a good swimmer?</b>","","","","1","swim-comprehension","","","","","","","","","","","","","{""Q0"":""Never swam again in his life""}","","","",""
"survey-multi-choice","73","2034490","0.0-6.0-2.0-3.0-0.9","01d92d17ed0ea9d99d2bac6381808c7ee69318be66dd3daf29c6bf4568786f8d","arctic","swim","8827","","<b>What gave the narrator his greatest feeling of accomplishment?</b>","","","","1","swim-comprehension","","","","","","","","","","","","","{""Q0"":""Passing the water survival course""}","","","",""
"html-button-response","74","2036127","0.0-6.0-2.0-4.0","01d92d17ed0ea9d99d2bac6381808c7ee69318be66dd3daf29c6bf4568786f8d","arctic","swim","1383","","<p>Thank you for your responses.</p><p>You will now answer some questions about your impressions of the story.</p>","0","","","","","","","","","","","","","","","","","","","","",""
"html-button-response","75","2038279","0.0-6.0-2.0-5.0-0.0","01d92d17ed0ea9d99d2bac6381808c7ee69318be66dd3daf29c6bf4568786f8d","arctic","swim","2151","","A2","5","","","","swim-engagement","","","","","","","","","","","","","","6","absorption","",""
"html-button-response","76","2040323","0.0-6.0-2.0-5.0-0.1","01d92d17ed0ea9d99d2bac6381808c7ee69318be66dd3daf29c6bf4568786f8d","arctic","swim","1794","","A1","4","","","","swim-engagement","","","","","","","","","","","","","","5","absorption","",""
"html-button-response","77","2043447","0.0-6.0-2.0-5.0-0.2","01d92d17ed0ea9d99d2bac6381808c7ee69318be66dd3daf29c6bf4568786f8d","arctic","swim","2872","","E10","0","","","","swim-engagement","","","","","","","","","","","","","","1","enjoyment","",""
"html-button-response","78","2045856","0.0-6.0-2.0-5.0-0.3","01d92d17ed0ea9d99d2bac6381808c7ee69318be66dd3daf29c6bf4568786f8d","arctic","swim","2157","","MS3","1","","","","swim-engagement","","","","","","","","","","","","","","2","mental-sim","",""
"html-button-response","79","2047771","0.0-6.0-2.0-5.0-0.4","01d92d17ed0ea9d99d2bac6381808c7ee69318be66dd3daf29c6bf4568786f8d","arctic","swim","1663","","EE2","3","","","","swim-engagement","","","","","","","","","","","","","","4","emo-engage","",""
"html-button-response","80","2049424","0.0-6.0-2.0-5.0-0.5","01d92d17ed0ea9d99d2bac6381808c7ee69318be66dd3daf29c6bf4568786f8d","arctic","swim","1400","","E6","3","","","","swim-engagement","","","","","","","","","","","","","","4","enjoyment","",""
"html-button-response","81","2051452","0.0-6.0-2.0-5.0-0.6","01d92d17ed0ea9d99d2bac6381808c7ee69318be66dd3daf29c6bf4568786f8d","arctic","swim","1778","","A4","1","","","","swim-engagement","","","","","","","","","","","","","","2","absorption","",""
"html-button-response","82","2053676","0.0-6.0-2.0-5.0-0.7","01d92d17ed0ea9d99d2bac6381808c7ee69318be66dd3daf29c6bf4568786f8d","arctic","swim","1972","","EE4","1","","","","swim-engagement","","","","","","","","","","","","","","2","emo-engage","",""
"html-button-response","83","2055385","0.0-6.0-2.0-5.0-0.8","01d92d17ed0ea9d99d2bac6381808c7ee69318be66dd3daf29c6bf4568786f8d","arctic","swim","1457","","EE5","0","","","","swim-engagement","","","","","","","","","","","","","","1","emo-engage","",""
"html-button-response","84","2056886","0.0-6.0-2.0-5.0-0.9","01d92d17ed0ea9d99d2bac6381808c7ee69318be66dd3daf29c6bf4568786f8d","arctic","swim","1251","","E8","0","","","","swim-engagement","","","","","","","","","","","","","","1","enjoyment","",""
"html-button-response","85","2059759","0.0-6.0-2.0-5.0-0.10","01d92d17ed0ea9d99d2bac6381808c7ee69318be66dd3daf29c6bf4568786f8d","arctic","swim","2607","","EE1","1","","","","swim-engagement","","","","","","","","","","","","","","2","emo-engage","",""
"html-button-response","86","2061476","0.0-6.0-2.0-5.0-0.11","01d92d17ed0ea9d99d2bac6381808c7ee69318be66dd3daf29c6bf4568786f8d","arctic","swim","1465","","MS1","1","","","","swim-engagement","","","","","","","","","","","","","","2","mental-sim","",""
"html-button-response","87","2063341","0.0-6.0-2.0-5.0-0.12","01d92d17ed0ea9d99d2bac6381808c7ee69318be66dd3daf29c6bf4568786f8d","arctic","swim","1614","","A3","0","","","","swim-engagement","","","","","","","","","","","","","","1","absorption","",""
"html-button-response","88","2065471","0.0-6.0-2.0-5.0-0.13","01d92d17ed0ea9d99d2bac6381808c7ee69318be66dd3daf29c6bf4568786f8d","arctic","swim","1879","","A5","0","","","","swim-engagement","","","","","","","","","","","","","","1","absorption","",""
"html-button-response","89","2067752","0.0-6.0-2.0-5.0-0.14","01d92d17ed0ea9d99d2bac6381808c7ee69318be66dd3daf29c6bf4568786f8d","arctic","swim","2029","","EE3","2","","","","swim-engagement","","","","","","","","","","","","","","3","emo-engage","",""
"html-button-response","90","2068917","0.0-6.0-2.0-5.0-0.15","01d92d17ed0ea9d99d2bac6381808c7ee69318be66dd3daf29c6bf4568786f8d","arctic","swim","913","","E7","1","","","","swim-engagement","","","","","","","","","","","","","","2","enjoyment","",""
"html-button-response","91","2069924","0.0-6.0-2.0-5.0-0.16","01d92d17ed0ea9d99d2bac6381808c7ee69318be66dd3daf29c6bf4568786f8d","arctic","swim","755","","E1","1","","","","swim-engagement","","","","","","","","","","","","","","2","enjoyment","",""
"html-button-response","92","2071119","0.0-6.0-2.0-5.0-0.17","01d92d17ed0ea9d99d2bac6381808c7ee69318be66dd3daf29c6bf4568786f8d","arctic","swim","944","","MS2","1","","","","swim-engagement","","","","","","","","","","","","","","2","mental-sim","",""
"html-button-response","93","2072591","0.0-8.0","01d92d17ed0ea9d99d2bac6381808c7ee69318be66dd3daf29c6bf4568786f8d","arctic","swim","1220","","<p>Thank you for your responses.</p><p>You will now answer some demographic, hearing, and general health questions.</p>","0","","","","","","","","","","","","","","","","","","","","",""
"survey-multi-choice","94","2074764","0.0-9.0-0.0","01d92d17ed0ea9d99d2bac6381808c7ee69318be66dd3daf29c6bf4568786f8d","arctic","swim","2172","","","","","","","survey","","","","","","","","","","","","","{""Q0"":""Chrome""}","","","browser",""
"survey-text","95","2078854","0.0-9.0-1.0","01d92d17ed0ea9d99d2bac6381808c7ee69318be66dd3daf29c6bf4568786f8d","arctic","swim","3837","","","","","","","survey","","","","","","","","","","","","","{""AGE"":""20""}","","","age","20"
"survey-multi-choice","96","2082078","0.0-9.0-2.0","01d92d17ed0ea9d99d2bac6381808c7ee69318be66dd3daf29c6bf4568786f8d","arctic","swim","2972","","","","","","","survey","","","","","","","","","","","","","{""Q0"":""Male""}","","","gender","Male"
"survey-multi-choice","97","2084058","0.0-9.0-4.0","01d92d17ed0ea9d99d2bac6381808c7ee69318be66dd3daf29c6bf4568786f8d","arctic","swim","1728","","","","","","","survey","","","","","","","","","","","","","{""Q0"":""Right""}","","","handedness","Right"
"survey-multi-choice","98","2088032","0.0-9.0-5.0","01d92d17ed0ea9d99d2bac6381808c7ee69318be66dd3daf29c6bf4568786f8d","arctic","swim","3720","","","","","","","survey","","","","","","","","","","","","","{""Q0"":""Some university undergraduate schooling""}","","","education","Some university undergraduate schooling"
"survey-text","99","2091392","0.0-10.0-0.0","01d92d17ed0ea9d99d2bac6381808c7ee69318be66dd3daf29c6bf4568786f8d","arctic","swim","3106.7000000476837","","","","","","","survey","","","","","","","","","","","","","{""L1"":""English""}","","","first-language","English"
"survey-text","100","2097297","0.0-10.0-1.0","01d92d17ed0ea9d99d2bac6381808c7ee69318be66dd3daf29c6bf4568786f8d","arctic","swim","5645.799999952316","","","","","","","survey","","","","","","","","","","","","","{""L2name"":"""",""L2fluency"":"""",""L3name"":"""",""L3fluency"":"""",""L4name"":"""",""L4fluency"":""""}","","","additional-languages","{""L2name"":"""",""L2fluency"":"""",""L3name"":"""",""L3fluency"":"""",""L4name"":"""",""L4fluency"":""""}"
"survey-multi-choice","101","2099527","0.0-10.0-2.0","01d92d17ed0ea9d99d2bac6381808c7ee69318be66dd3daf29c6bf4568786f8d","arctic","swim","1978","","","","","","","survey","","","","","","","","","","","","","{""Q0"":""No""}","","","hearing-aid","No"
"survey-multi-choice","102","2103122","0.0-10.0-3.0","01d92d17ed0ea9d99d2bac6381808c7ee69318be66dd3daf29c6bf4568786f8d","arctic","swim","3341","","","","","","","survey","","","","","","","","","","","","","{""Q0"":""Always""}","","","ringing-ears","Always"
"survey-multi-choice","103","2104902","0.0-10.0-4.0-0.0","01d92d17ed0ea9d99d2bac6381808c7ee69318be66dd3daf29c6bf4568786f8d","arctic","swim","1527","","","","","","","survey","","","","","","","","","","","","","{""Q0"":""Both Ears""}","","","ringing-ear-loc","Both Ears"
"survey-multi-choice","104","2108176","0.0-10.0-5.0","01d92d17ed0ea9d99d2bac6381808c7ee69318be66dd3daf29c6bf4568786f8d","arctic","swim","3023","","","","","","","survey","","","","","","","","","","","","","{""Q0"":""No""}","","","neuro-disease","No"
"survey-multi-choice","105","2110827","0.0-10.0-7.0","01d92d17ed0ea9d99d2bac6381808c7ee69318be66dd3daf29c6bf4568786f8d","arctic","swim","2400","","","","","","","survey","","","","","","","","","","","","","{""Q0"":""Yes""}","","","take-meds","Yes"
"survey-text","106","2115624","0.0-10.0-8.0-0.0","01d92d17ed0ea9d99d2bac6381808c7ee69318be66dd3daf29c6bf4568786f8d","arctic","swim","4543","","","","","","","survey","","","","","","","","","","","","","{""MED"":""Sertraline 50mg""}","","","take-meds-clarify","Sertraline 50mg"
"survey-text","107","2130388","0.0-10.0-9.0","01d92d17ed0ea9d99d2bac6381808c7ee69318be66dd3daf29c6bf4568786f8d","arctic","swim","14503.100000023842","","","","","","","survey","","","","","","","","","","","","","{""HC"":""No problems that would affect this study!""}","","","health-concerns","No problems that would affect this study!"
"html-button-response","108","2133154","0.0-11.0-0.0","01d92d17ed0ea9d99d2bac6381808c7ee69318be66dd3daf29c6bf4568786f8d","arctic","swim","2515","","<p>How would you describe your musical skills/experiences?</p>","4","","","","survey","","","","","","","","","","","","","","","","music-skill","5"
"survey-multi-choice","109","2137050","0.0-11.0-1.0","01d92d17ed0ea9d99d2bac6381808c7ee69318be66dd3daf29c6bf4568786f8d","arctic","swim","3643","","","","","","","survey","","","","","","","","","","","","","{""Q0"":""No""}","","","music-instrument","No"
"html-button-response","110","2138672","0.0-12.0-0.0","01d92d17ed0ea9d99d2bac6381808c7ee69318be66dd3daf29c6bf4568786f8d","arctic","swim","1370","","<p>How would you describe your general hearing abilities?</p>","4","","","","survey","","","","","","","","","","","","","","","","ssq-01","5"
"html-button-response","111","2142767","0.0-12.0-1.0","01d92d17ed0ea9d99d2bac6381808c7ee69318be66dd3daf29c6bf4568786f8d","arctic","swim","3843","","<p>When you talk with someone at a place that strongly reverberates/echoes (e.g., in a church or train station),</br>can you understand what the person says?</p>","9","","","","survey","","","","","","","","","","","","","","","","ssq-02","9"
"html-button-response","112","2145326","0.0-12.0-2.0","01d92d17ed0ea9d99d2bac6381808c7ee69318be66dd3daf29c6bf4568786f8d","arctic","swim","2307","","<p>When you are with a group (~5 people) in a lively restaurant, can you follow the group's conversation?</p>","9","","","","survey","","","","","","","","","","","","","","","","ssq-03","9"
"html-button-response","113","2147899","0.0-12.0-3.0","01d92d17ed0ea9d99d2bac6381808c7ee69318be66dd3daf29c6bf4568786f8d","arctic","swim","2320","","<p>Based on the sound of a bus or truck, can you tell whether it is moving towards or away from you?</p>","9","","","","survey","","","","","","","","","","","","","","","","ssq-04","9"
"html-button-response","114","2151845","0.0-12.0-4.0","01d92d17ed0ea9d99d2bac6381808c7ee69318be66dd3daf29c6bf4568786f8d","arctic","swim","3693","","<p>When you are in an unknown environment, can you tell from which direction a brief sound originates?</p>","9","","","","survey","","","","","","","","","","","","","","","","ssq-05","9"
"html-button-response","115","2156406","0.0-12.0-5.0","01d92d17ed0ea9d99d2bac6381808c7ee69318be66dd3daf29c6bf4568786f8d","arctic","swim","4308","","<p>Are you able to ignore distracting sounds when you concentrate on a specific aspect of your acoustic surrounding?</p>","7","","","","survey","","","","","","","","","","","","","","","","ssq-06","7"
"fullscreen","116","2157658","0.0-13.0","01d92d17ed0ea9d99d2bac6381808c7ee69318be66dd3daf29c6bf4568786f8d","arctic","swim","","","","","","","","","true","","","","","","","","","","","","","","","",""
