"trial_type","trial_index","time_elapsed","internal_node_id","ParticipantID","firstStory","scramStory","rt","url","stimulus","button_pressed","key_press","correctRESP","correct","designation","success","letterStim","letterType","ONSET","TIMEOUT","CONDITION","Participant","ONSET_ACTUAL","RT","RESP","ACC","STORY","responses","response","type","surveyQuestion","QRESP"
"pavlovia","0","2","0.0-0.0","01d92d17ed0ea9d99d2bac6381808c7ee69318be66dd3daf29c6bf4568786f8d","arctic","arctic","","","","","","","","","","","","","","","","","","","","","","","","",""
"external-html","1","6421","0.0-1.0","01d92d17ed0ea9d99d2bac6381808c7ee69318be66dd3daf29c6bf4568786f8d","arctic","arctic","6290","consent/consent_updated.html","","","","","","","","","","","","","","","","","","","","","","",""
"html-button-response","2","29926","0.0-2.0-0.0","01d92d17ed0ea9d99d2bac6381808c7ee69318be66dd3daf29c6bf4568786f8d","arctic","arctic","23504","","<p>Before we begin the main task, you will complete a short volume calibration and headphone check.</p><p>Please make sure you are in a quiet listening environment, that you are wearing headphones, and that your computer's volume is turned on.<p></p>","0","","","","","","","","","","","","","","","","","","","","",""
"html-button-response","3","36449","0.0-2.0-1.0","01d92d17ed0ea9d99d2bac6381808c7ee69318be66dd3daf29c6bf4568786f8d","arctic","arctic","6272","","<p>The volume calibration will be first.</p><p>You will hear a thirty-second noise. Please adjust your computer's volume so that this noise is being presented at a comfortable level.<p></p>","0","","","","","","","","","","","","","","","","","","","","",""
"audio-button-response","4","40898","0.0-2.0-2.0","01d92d17ed0ea9d99d2bac6381808c7ee69318be66dd3daf29c6bf4568786f8d","arctic","arctic","4186","","audio/volumetest.mp3","0","","","","","","","","","","","","","","","","","","","","",""
"html-keyboard-response","5","45745","0.0-3.0-0.0","01d92d17ed0ea9d99d2bac6381808c7ee69318be66dd3daf29c6bf4568786f8d","arctic","arctic","4847","","<p>You will now complete a short headphone check.</p><p>On each trial, you will hear three tones. One of these tones will be quieter than the others. Your task is to identify whether the quiet tone occurred first, second, or third.</p><p>There are six trials in total.<p></p><p></p>(Press SPACEBAR to begin)","","32","","","","","","","","","","","","","","","","","","","",""
"html-keyboard-response","6","46518","0.0-3.0-1.0-0.0","01d92d17ed0ea9d99d2bac6381808c7ee69318be66dd3daf29c6bf4568786f8d","arctic","arctic","null","","<div style=""font-size:60px;"">+</div>","","null","","","","","","","","","","","","","","","","","","","",""
"audio-button-response","7","51030","0.0-3.0-1.0-1.0","01d92d17ed0ea9d99d2bac6381808c7ee69318be66dd3daf29c6bf4568786f8d","arctic","arctic","4511","","audio/t1_1.mp3","0","","0","1","headphone-test","","","","","","","","","","","","","","","","",""
"html-keyboard-response","8","51531","0.0-3.0-1.0-2.0","01d92d17ed0ea9d99d2bac6381808c7ee69318be66dd3daf29c6bf4568786f8d","arctic","arctic","null","","<p>Correct</p>","","null","","","","","","","","","","","","","","","","","","","",""
"html-keyboard-response","9","52040","0.0-3.0-1.0-0.1","01d92d17ed0ea9d99d2bac6381808c7ee69318be66dd3daf29c6bf4568786f8d","arctic","arctic","null","","<div style=""font-size:60px;"">+</div>","","null","","","","","","","","","","","","","","","","","","","",""
"audio-button-response","10","56016","0.0-3.0-1.0-1.1","01d92d17ed0ea9d99d2bac6381808c7ee69318be66dd3daf29c6bf4568786f8d","arctic","arctic","3975","","audio/t3_1.mp3","2","","2","1","headphone-test","","","","","","","","","","","","","","","","",""
"html-keyboard-response","11","56518","0.0-3.0-1.0-2.1","01d92d17ed0ea9d99d2bac6381808c7ee69318be66dd3daf29c6bf4568786f8d","arctic","arctic","null","","<p>Correct</p>","","null","","","","","","","","","","","","","","","","","","","",""
"html-keyboard-response","12","57029","0.0-3.0-1.0-0.2","01d92d17ed0ea9d99d2bac6381808c7ee69318be66dd3daf29c6bf4568786f8d","arctic","arctic","null","","<div style=""font-size:60px;"">+</div>","","null","","","","","","","","","","","","","","","","","","","",""
"audio-button-response","13","60828","0.0-3.0-1.0-1.2","01d92d17ed0ea9d99d2bac6381808c7ee69318be66dd3daf29c6bf4568786f8d","arctic","arctic","3797","","audio/t1_2.mp3","0","","0","1","headphone-test","","","","","","","","","","","","","","","","",""
"html-keyboard-response","14","61329","0.0-3.0-1.0-2.2","01d92d17ed0ea9d99d2bac6381808c7ee69318be66dd3daf29c6bf4568786f8d","arctic","arctic","null","","<p>Correct</p>","","null","","","","","","","","","","","","","","","","","","","",""
"html-keyboard-response","15","61829","0.0-3.0-1.0-0.3","01d92d17ed0ea9d99d2bac6381808c7ee69318be66dd3daf29c6bf4568786f8d","arctic","arctic","null","","<div style=""font-size:60px;"">+</div>","","null","","","","","","","","","","","","","","","","","","","",""
"audio-button-response","16","65617","0.0-3.0-1.0-1.3","01d92d17ed0ea9d99d2bac6381808c7ee69318be66dd3daf29c6bf4568786f8d","arctic","arctic","3786","","audio/t3_2.mp3","2","","2","1","headphone-test","","","","","","","","","","","","","","","","",""
"html-keyboard-response","17","66117","0.0-3.0-1.0-2.3","01d92d17ed0ea9d99d2bac6381808c7ee69318be66dd3daf29c6bf4568786f8d","arctic","arctic","null","","<p>Correct</p>","","null","","","","","","","","","","","","","","","","","","","",""
"html-keyboard-response","18","66620","0.0-3.0-1.0-0.4","01d92d17ed0ea9d99d2bac6381808c7ee69318be66dd3daf29c6bf4568786f8d","arctic","arctic","null","","<div style=""font-size:60px;"">+</div>","","null","","","","","","","","","","","","","","","","","","","",""
"audio-button-response","19","70327","0.0-3.0-1.0-1.4","01d92d17ed0ea9d99d2bac6381808c7ee69318be66dd3daf29c6bf4568786f8d","arctic","arctic","3706","","audio/t2_1.mp3","1","","1","1","headphone-test","","","","","","","","","","","","","","","","",""
"html-keyboard-response","20","70842","0.0-3.0-1.0-2.4","01d92d17ed0ea9d99d2bac6381808c7ee69318be66dd3daf29c6bf4568786f8d","arctic","arctic","null","","<p>Correct</p>","","null","","","","","","","","","","","","","","","","","","","",""
"html-keyboard-response","21","71343","0.0-3.0-1.0-0.5","01d92d17ed0ea9d99d2bac6381808c7ee69318be66dd3daf29c6bf4568786f8d","arctic","arctic","null","","<div style=""font-size:60px;"">+</div>","","null","","","","","","","","","","","","","","","","","","","",""
"audio-button-response","22","74796","0.0-3.0-1.0-1.5","01d92d17ed0ea9d99d2bac6381808c7ee69318be66dd3daf29c6bf4568786f8d","arctic","arctic","3452","","audio/t2_2.mp3","1","","1","1","headphone-test","","","","","","","","","","","","","","","","",""
"html-keyboard-response","23","75298","0.0-3.0-1.0-2.5","01d92d17ed0ea9d99d2bac6381808c7ee69318be66dd3daf29c6bf4568786f8d","arctic","arctic","null","","<p>Correct</p>","","null","","","","","","","","","","","","","","","","","","","",""
"fullscreen","24","77867","0.0-4.0","01d92d17ed0ea9d99d2bac6381808c7ee69318be66dd3daf29c6bf4568786f8d","arctic","arctic","","","","","","","","","true","","","","","","","","","","","","","","","",""
"html-button-response","25","85402","0.0-5.0-0.0","01d92d17ed0ea9d99d2bac6381808c7ee69318be66dd3daf29c6bf4568786f8d","arctic","arctic","7534","","<p>There are two blocks to this experiment.</p><p>In each block, you will hear a ~13.5 minute story. One of the stories will be scrambled. Please listen carefully to both stories and understand them as best you can.</p><p>After each story, you will be asked some questions to assess your comprehension.</p>","0","","","","","","","","","","","","","","","","","","","","",""
"html-button-response","26","250965","0.0-5.0-1.0","01d92d17ed0ea9d99d2bac6381808c7ee69318be66dd3daf29c6bf4568786f8d","arctic","arctic","165562","","<p>During each story, there will be an additional task.</p><p>A letter will occasionally appear on the screen.</br>Your job is to - as quickly as you can - decide whether the letter is lowercase or uppercase and press one of two keys on the keyboard:</p><p>If the letter is <b>lowercase</b>, press key &lt;<b>x</b>&gt;.</p><p>If the letter is <b>uppercase</b>, press key &lt;<b>m</b>&gt;.</p>","0","","","","","","","","","","","","","","","","","","","","",""
"html-keyboard-response","27","257614","0.0-5.0-2.0","01d92d17ed0ea9d99d2bac6381808c7ee69318be66dd3daf29c6bf4568786f8d","arctic","arctic","6648","","<p>Because we want your responses to be as quick as possible, please keep your index fingers over the keys while listening.</p><p>Each block lasts about 20 minutes.</p><p><b>Press &lt;x&gt; or &lt;m&gt; to start the first block!</b></p>","","88","","","","","","","","","","","","","","","","","","","",""
"html-keyboard-response","28","258116","0.0-6.0-0.0-0.0","01d92d17ed0ea9d99d2bac6381808c7ee69318be66dd3daf29c6bf4568786f8d","arctic","arctic","null","","<div style=""font-size:60px;"" tabindex=""0"">+</div>","","null","","","","","","","","","","","","","","","","","","","",""
"dual-task","null","null","null","","arctic","arctic","893","","g","null","88","88","1","arctic-dual-task","","g","lowercase","10000","0","1","01d92d17ed0ea9d99d2bac6381808c7ee69318be66dd3daf29c6bf4568786f8d","10009.199999928474","893","88","1","arctic","","","","",""
"dual-task","null","null","null","","arctic","arctic","688.8000000715256","","H","null","77","77","1","arctic-dual-task","","H","uppercase","24000","0","1","01d92d17ed0ea9d99d2bac6381808c7ee69318be66dd3daf29c6bf4568786f8d","24014.199999928474","688.8000000715256","77","1","arctic","","","","",""
"dual-task","null","null","null","","arctic","arctic","614.8000000715256","","A","null","77","77","1","arctic-dual-task","","A","uppercase","34000","0","1","01d92d17ed0ea9d99d2bac6381808c7ee69318be66dd3daf29c6bf4568786f8d","34014.5","614.8000000715256","77","1","arctic","","","","",""
"dual-task","null","null","null","","arctic","arctic","532","","T","null","77","77","1","arctic-dual-task","","T","uppercase","44000","0","1","01d92d17ed0ea9d99d2bac6381808c7ee69318be66dd3daf29c6bf4568786f8d","44007.799999952316","532","77","1","arctic","","","","",""
"dual-task","null","null","null","","arctic","arctic","535.2999999523163","","A","null","77","77","1","arctic-dual-task","","A","uppercase","56000","0","1","01d92d17ed0ea9d99d2bac6381808c7ee69318be66dd3daf29c6bf4568786f8d","56001.199999928474","535.2999999523163","77","1","arctic","","","","",""
"dual-task","null","null","null","","arctic","arctic","477.90000009536743","","N","null","77","77","1","arctic-dual-task","","N","uppercase","64000","0","1","01d92d17ed0ea9d99d2bac6381808c7ee69318be66dd3daf29c6bf4568786f8d","64002.89999997616","477.90000009536743","77","1","arctic","","","","",""
"dual-task","null","null","null","","arctic","arctic","470.2000000476837","","F","null","77","77","1","arctic-dual-task","","F","uppercase","76000","0","1","01d92d17ed0ea9d99d2bac6381808c7ee69318be66dd3daf29c6bf4568786f8d","76010.09999990463","470.2000000476837","77","1","arctic","","","","",""
"dual-task","null","null","null","","arctic","arctic","471.90000009536743","","e","null","88","88","1","arctic-dual-task","","e","lowercase","86000","0","1","01d92d17ed0ea9d99d2bac6381808c7ee69318be66dd3daf29c6bf4568786f8d","86007","471.90000009536743","88","1","arctic","","","","",""
"dual-task","null","null","null","","arctic","arctic","617.3000000715256","","T","null","77","77","1","arctic-dual-task","","T","uppercase","100000","0","1","01d92d17ed0ea9d99d2bac6381808c7ee69318be66dd3daf29c6bf4568786f8d","100000","617.3000000715256","77","1","arctic","","","","",""
"dual-task","null","null","null","","arctic","arctic","498.10000002384186","","n","null","88","88","1","arctic-dual-task","","n","lowercase","110000","0","1","01d92d17ed0ea9d99d2bac6381808c7ee69318be66dd3daf29c6bf4568786f8d","110008.59999990463","498.10000002384186","88","1","arctic","","","","",""
"dual-task","null","null","null","","arctic","arctic","438.3000000715256","","D","null","77","77","1","arctic-dual-task","","D","uppercase","122000","0","1","01d92d17ed0ea9d99d2bac6381808c7ee69318be66dd3daf29c6bf4568786f8d","122024.39999997616","438.3000000715256","77","1","arctic","","","","",""
"dual-task","null","null","null","","arctic","arctic","554.8999999761581","","r","null","88","88","1","arctic-dual-task","","r","lowercase","128000","0","1","01d92d17ed0ea9d99d2bac6381808c7ee69318be66dd3daf29c6bf4568786f8d","128000.19999992847","554.8999999761581","88","1","arctic","","","","",""
"dual-task","null","null","null","","arctic","arctic","474","","A","null","77","77","1","arctic-dual-task","","A","uppercase","140000","0","1","01d92d17ed0ea9d99d2bac6381808c7ee69318be66dd3daf29c6bf4568786f8d","140005.19999992847","474","77","1","arctic","","","","",""
"dual-task","null","null","null","","arctic","arctic","574.3999999761581","","d","null","88","88","1","arctic-dual-task","","d","lowercase","152000","0","1","01d92d17ed0ea9d99d2bac6381808c7ee69318be66dd3daf29c6bf4568786f8d","152003","574.3999999761581","88","1","arctic","","","","",""
"dual-task","null","null","null","","arctic","arctic","534.6000000238419","","n","null","88","88","1","arctic-dual-task","","n","lowercase","160000","0","1","01d92d17ed0ea9d99d2bac6381808c7ee69318be66dd3daf29c6bf4568786f8d","160007.59999990463","534.6000000238419","88","1","arctic","","","","",""
"dual-task","null","null","null","","arctic","arctic","463.89999997615814","","q","null","88","88","1","arctic-dual-task","","q","lowercase","172000","0","1","01d92d17ed0ea9d99d2bac6381808c7ee69318be66dd3daf29c6bf4568786f8d","172009.19999992847","463.89999997615814","88","1","arctic","","","","",""
"dual-task","null","null","null","","arctic","arctic","532.2999999523163","","b","null","88","88","1","arctic-dual-task","","b","lowercase","180000","0","1","01d92d17ed0ea9d99d2bac6381808c7ee69318be66dd3daf29c6bf4568786f8d","179999.79999995232","532.2999999523163","88","1","arctic","","","","",""
"dual-task","null","null","null","","arctic","arctic","487.10000002384186","","f","null","88","88","1","arctic-dual-task","","f","lowercase","188000","0","1","01d92d17ed0ea9d99d2bac6381808c7ee69318be66dd3daf29c6bf4568786f8d","188005.39999997616","487.10000002384186","88","1","arctic","","","","",""
"dual-task","null","null","null","","arctic","arctic","643.1000000238419","","g","null","88","88","1","arctic-dual-task","","g","lowercase","196000","0","1","01d92d17ed0ea9d99d2bac6381808c7ee69318be66dd3daf29c6bf4568786f8d","196008.79999995232","643.1000000238419","88","1","arctic","","","","",""
"dual-task","null","null","null","","arctic","arctic","473.60000002384186","","B","null","77","77","1","arctic-dual-task","","B","uppercase","208000","0","1","01d92d17ed0ea9d99d2bac6381808c7ee69318be66dd3daf29c6bf4568786f8d","208004.29999995232","473.60000002384186","77","1","arctic","","","","",""
"dual-task","null","null","null","","arctic","arctic","365.90000009536743","","e","null","88","88","1","arctic-dual-task","","e","lowercase","218000","0","1","01d92d17ed0ea9d99d2bac6381808c7ee69318be66dd3daf29c6bf4568786f8d","218004.79999995232","365.90000009536743","88","1","arctic","","","","",""
"dual-task","null","null","null","","arctic","arctic","490.60000002384186","","B","null","77","77","1","arctic-dual-task","","B","uppercase","228000","0","1","01d92d17ed0ea9d99d2bac6381808c7ee69318be66dd3daf29c6bf4568786f8d","228007.19999992847","490.60000002384186","77","1","arctic","","","","",""
"dual-task","null","null","null","","arctic","arctic","488.8000000715256","","T","null","77","77","1","arctic-dual-task","","T","uppercase","242000","0","1","01d92d17ed0ea9d99d2bac6381808c7ee69318be66dd3daf29c6bf4568786f8d","242006.59999990463","488.8000000715256","77","1","arctic","","","","",""
"dual-task","null","null","null","","arctic","arctic","464.2999999523163","","R","null","77","77","1","arctic-dual-task","","R","uppercase","254000","0","1","01d92d17ed0ea9d99d2bac6381808c7ee69318be66dd3daf29c6bf4568786f8d","254014.29999995232","464.2999999523163","77","1","arctic","","","","",""
"dual-task","null","null","null","","arctic","arctic","702.3999999761581","","Q","null","77","77","1","arctic-dual-task","","Q","uppercase","260000","0","1","01d92d17ed0ea9d99d2bac6381808c7ee69318be66dd3daf29c6bf4568786f8d","260002.69999992847","702.3999999761581","77","1","arctic","","","","",""
"dual-task","null","null","null","","arctic","arctic","529.5","","f","null","88","88","1","arctic-dual-task","","f","lowercase","270000","0","1","01d92d17ed0ea9d99d2bac6381808c7ee69318be66dd3daf29c6bf4568786f8d","270013.5","529.5","88","1","arctic","","","","",""
"dual-task","null","null","null","","arctic","arctic","488.3000000715256","","n","null","88","88","1","arctic-dual-task","","n","lowercase","282000","0","1","01d92d17ed0ea9d99d2bac6381808c7ee69318be66dd3daf29c6bf4568786f8d","282016.5","488.3000000715256","88","1","arctic","","","","",""
"dual-task","null","null","null","","arctic","arctic","423.5","","r","null","88","88","1","arctic-dual-task","","r","lowercase","290000","0","1","01d92d17ed0ea9d99d2bac6381808c7ee69318be66dd3daf29c6bf4568786f8d","290007.1999999285","423.5","88","1","arctic","","","","",""
"dual-task","null","null","null","","arctic","arctic","413.2000000476837","","G","null","77","77","1","arctic-dual-task","","G","uppercase","300000","0","1","01d92d17ed0ea9d99d2bac6381808c7ee69318be66dd3daf29c6bf4568786f8d","300003.7999999523","413.2000000476837","77","1","arctic","","","","",""
"dual-task","null","null","null","","arctic","arctic","518.2000000476837","","h","null","88","88","1","arctic-dual-task","","h","lowercase","312000","0","1","01d92d17ed0ea9d99d2bac6381808c7ee69318be66dd3daf29c6bf4568786f8d","312002.59999990463","518.2000000476837","88","1","arctic","","","","",""
"dual-task","null","null","null","","arctic","arctic","485.39999997615814","","B","null","77","77","1","arctic-dual-task","","B","uppercase","320000","0","1","01d92d17ed0ea9d99d2bac6381808c7ee69318be66dd3daf29c6bf4568786f8d","320005.1999999285","485.39999997615814","77","1","arctic","","","","",""
"dual-task","null","null","null","","arctic","arctic","453.10000002384186","","d","null","88","88","1","arctic-dual-task","","d","lowercase","332000","0","1","01d92d17ed0ea9d99d2bac6381808c7ee69318be66dd3daf29c6bf4568786f8d","332011.59999990463","453.10000002384186","88","1","arctic","","","","",""
"dual-task","null","null","null","","arctic","arctic","502.7000000476837","","N","null","77","77","1","arctic-dual-task","","N","uppercase","340000","0","1","01d92d17ed0ea9d99d2bac6381808c7ee69318be66dd3daf29c6bf4568786f8d","340009.59999990463","502.7000000476837","77","1","arctic","","","","",""
"dual-task","null","null","null","","arctic","arctic","482.6999999284744","","G","null","77","77","1","arctic-dual-task","","G","uppercase","352000","0","1","01d92d17ed0ea9d99d2bac6381808c7ee69318be66dd3daf29c6bf4568786f8d","352012.1999999285","482.6999999284744","77","1","arctic","","","","",""
"dual-task","null","null","null","","arctic","arctic","498.2000000476837","","t","null","88","88","1","arctic-dual-task","","t","lowercase","360000","0","1","01d92d17ed0ea9d99d2bac6381808c7ee69318be66dd3daf29c6bf4568786f8d","360003.89999997616","498.2000000476837","88","1","arctic","","","","",""
"dual-task","null","null","null","","arctic","arctic","458.60000002384186","","h","null","88","88","1","arctic-dual-task","","h","lowercase","368000","0","1","01d92d17ed0ea9d99d2bac6381808c7ee69318be66dd3daf29c6bf4568786f8d","368007.5","458.60000002384186","88","1","arctic","","","","",""
"dual-task","null","null","null","","arctic","arctic","461.60000002384186","","F","null","77","77","1","arctic-dual-task","","F","uppercase","382000","0","1","01d92d17ed0ea9d99d2bac6381808c7ee69318be66dd3daf29c6bf4568786f8d","382006.59999990463","461.60000002384186","77","1","arctic","","","","",""
"dual-task","null","null","null","","arctic","arctic","617.6000000238419","","b","null","88","88","1","arctic-dual-task","","b","lowercase","396000","0","1","01d92d17ed0ea9d99d2bac6381808c7ee69318be66dd3daf29c6bf4568786f8d","396009.6999999285","617.6000000238419","88","1","arctic","","","","",""
"dual-task","null","null","null","","arctic","arctic","673.3999999761581","","H","null","77","77","1","arctic-dual-task","","H","uppercase","406000","0","1","01d92d17ed0ea9d99d2bac6381808c7ee69318be66dd3daf29c6bf4568786f8d","406007.1999999285","673.3999999761581","77","1","arctic","","","","",""
"dual-task","null","null","null","","arctic","arctic","586.6000000238419","","g","null","88","88","1","arctic-dual-task","","g","lowercase","414000","0","1","01d92d17ed0ea9d99d2bac6381808c7ee69318be66dd3daf29c6bf4568786f8d","414004","586.6000000238419","88","1","arctic","","","","",""
"dual-task","null","null","null","","arctic","arctic","564.2999999523163","","e","null","88","88","1","arctic-dual-task","","e","lowercase","422000","0","1","01d92d17ed0ea9d99d2bac6381808c7ee69318be66dd3daf29c6bf4568786f8d","422009.2999999523","564.2999999523163","88","1","arctic","","","","",""
"dual-task","null","null","null","","arctic","arctic","422.40000009536743","","a","null","88","88","1","arctic-dual-task","","a","lowercase","432000","0","1","01d92d17ed0ea9d99d2bac6381808c7ee69318be66dd3daf29c6bf4568786f8d","432009","422.40000009536743","88","1","arctic","","","","",""
"dual-task","null","null","null","","arctic","arctic","474.89999997615814","","a","null","88","88","1","arctic-dual-task","","a","lowercase","440000","0","1","01d92d17ed0ea9d99d2bac6381808c7ee69318be66dd3daf29c6bf4568786f8d","440010","474.89999997615814","88","1","arctic","","","","",""
"dual-task","null","null","null","","arctic","arctic","481.5","","t","null","88","88","1","arctic-dual-task","","t","lowercase","454000","0","1","01d92d17ed0ea9d99d2bac6381808c7ee69318be66dd3daf29c6bf4568786f8d","454001.59999990463","481.5","88","1","arctic","","","","",""
"dual-task","null","null","null","","arctic","arctic","476.3000000715256","","H","null","77","77","1","arctic-dual-task","","H","uppercase","462000","0","1","01d92d17ed0ea9d99d2bac6381808c7ee69318be66dd3daf29c6bf4568786f8d","462009.5","476.3000000715256","77","1","arctic","","","","",""
"dual-task","null","null","null","","arctic","arctic","500.59999990463257","","n","null","88","88","1","arctic-dual-task","","n","lowercase","472000","0","1","01d92d17ed0ea9d99d2bac6381808c7ee69318be66dd3daf29c6bf4568786f8d","472015.1999999285","500.59999990463257","88","1","arctic","","","","",""
"dual-task","null","null","null","","arctic","arctic","621","","g","null","88","88","1","arctic-dual-task","","g","lowercase","480000","0","1","01d92d17ed0ea9d99d2bac6381808c7ee69318be66dd3daf29c6bf4568786f8d","480000.7999999523","621","88","1","arctic","","","","",""
"dual-task","null","null","null","","arctic","arctic","448.5","","R","null","77","77","1","arctic-dual-task","","R","uppercase","486000","0","1","01d92d17ed0ea9d99d2bac6381808c7ee69318be66dd3daf29c6bf4568786f8d","486003.1999999285","448.5","77","1","arctic","","","","",""
"dual-task","null","null","null","","arctic","arctic","428.60000002384186","","D","null","77","77","1","arctic-dual-task","","D","uppercase","496000","0","1","01d92d17ed0ea9d99d2bac6381808c7ee69318be66dd3daf29c6bf4568786f8d","496002.5","428.60000002384186","77","1","arctic","","","","",""
"dual-task","null","null","null","","arctic","arctic","633.6999999284744","","r","null","88","88","1","arctic-dual-task","","r","lowercase","508000","0","1","01d92d17ed0ea9d99d2bac6381808c7ee69318be66dd3daf29c6bf4568786f8d","508007.89999997616","633.6999999284744","88","1","arctic","","","","",""
"dual-task","null","null","null","","arctic","arctic","540.1000000238419","","f","null","88","88","1","arctic-dual-task","","f","lowercase","514000","0","1","01d92d17ed0ea9d99d2bac6381808c7ee69318be66dd3daf29c6bf4568786f8d","514008","540.1000000238419","88","1","arctic","","","","",""
"dual-task","null","null","null","","arctic","arctic","523","","D","null","77","77","1","arctic-dual-task","","D","uppercase","520000","0","1","01d92d17ed0ea9d99d2bac6381808c7ee69318be66dd3daf29c6bf4568786f8d","520007.1999999285","523","77","1","arctic","","","","",""
"dual-task","null","null","null","","arctic","arctic","530.8999999761581","","D","null","77","77","1","arctic-dual-task","","D","uppercase","530000","0","1","01d92d17ed0ea9d99d2bac6381808c7ee69318be66dd3daf29c6bf4568786f8d","530006.5","530.8999999761581","77","1","arctic","","","","",""
"dual-task","null","null","null","","arctic","arctic","447.6999999284744","","F","null","77","77","1","arctic-dual-task","","F","uppercase","542000","0","1","01d92d17ed0ea9d99d2bac6381808c7ee69318be66dd3daf29c6bf4568786f8d","542014.8999999762","447.6999999284744","77","1","arctic","","","","",""
"dual-task","null","null","null","","arctic","arctic","518.9000000953674","","b","null","88","88","1","arctic-dual-task","","b","lowercase","554000","0","1","01d92d17ed0ea9d99d2bac6381808c7ee69318be66dd3daf29c6bf4568786f8d","554013.5999999046","518.9000000953674","88","1","arctic","","","","",""
"dual-task","null","null","null","","arctic","arctic","481.89999997615814","","e","null","88","88","1","arctic-dual-task","","e","lowercase","562000","0","1","01d92d17ed0ea9d99d2bac6381808c7ee69318be66dd3daf29c6bf4568786f8d","562009.5999999046","481.89999997615814","88","1","arctic","","","","",""
"dual-task","null","null","null","","arctic","arctic","477","","Q","null","77","77","1","arctic-dual-task","","Q","uppercase","570000","0","1","01d92d17ed0ea9d99d2bac6381808c7ee69318be66dd3daf29c6bf4568786f8d","570000.6999999285","477","77","1","arctic","","","","",""
"dual-task","null","null","null","","arctic","arctic","477.3000000715256","","E","null","77","77","1","arctic-dual-task","","E","uppercase","578000","0","1","01d92d17ed0ea9d99d2bac6381808c7ee69318be66dd3daf29c6bf4568786f8d","578008.5","477.3000000715256","77","1","arctic","","","","",""
"dual-task","null","null","null","","arctic","arctic","455.7000000476837","","R","null","77","77","1","arctic-dual-task","","R","uppercase","586000","0","1","01d92d17ed0ea9d99d2bac6381808c7ee69318be66dd3daf29c6bf4568786f8d","586010.5999999046","455.7000000476837","77","1","arctic","","","","",""
"dual-task","null","null","null","","arctic","arctic","427.10000002384186","","B","null","77","77","1","arctic-dual-task","","B","uppercase","594000","0","1","01d92d17ed0ea9d99d2bac6381808c7ee69318be66dd3daf29c6bf4568786f8d","594016","427.10000002384186","77","1","arctic","","","","",""
"dual-task","null","null","null","","arctic","arctic","432.10000002384186","","F","null","77","77","1","arctic-dual-task","","F","uppercase","608000","0","1","01d92d17ed0ea9d99d2bac6381808c7ee69318be66dd3daf29c6bf4568786f8d","608015.0999999046","432.10000002384186","77","1","arctic","","","","",""
"dual-task","null","null","null","","arctic","arctic","440.60000002384186","","h","null","88","88","1","arctic-dual-task","","h","lowercase","618000","0","1","01d92d17ed0ea9d99d2bac6381808c7ee69318be66dd3daf29c6bf4568786f8d","618003.6999999285","440.60000002384186","88","1","arctic","","","","",""
"dual-task","null","null","null","","arctic","arctic","456.90000009536743","","Q","null","77","77","1","arctic-dual-task","","Q","uppercase","626000","0","1","01d92d17ed0ea9d99d2bac6381808c7ee69318be66dd3daf29c6bf4568786f8d","626016","456.90000009536743","77","1","arctic","","","","",""
"dual-task","null","null","null","","arctic","arctic","395.39999997615814","","H","null","77","77","1","arctic-dual-task","","H","uppercase","638000","0","1","01d92d17ed0ea9d99d2bac6381808c7ee69318be66dd3daf29c6bf4568786f8d","638008.3999999762","395.39999997615814","77","1","arctic","","","","",""
"dual-task","null","null","null","","arctic","arctic","467.39999997615814","","a","null","88","88","1","arctic-dual-task","","a","lowercase","646000","0","1","01d92d17ed0ea9d99d2bac6381808c7ee69318be66dd3daf29c6bf4568786f8d","646008.5","467.39999997615814","88","1","arctic","","","","",""
"dual-task","null","null","null","","arctic","arctic","517.5","","r","null","88","88","1","arctic-dual-task","","r","lowercase","658000","0","1","01d92d17ed0ea9d99d2bac6381808c7ee69318be66dd3daf29c6bf4568786f8d","658006.7999999523","517.5","88","1","arctic","","","","",""
"dual-task","null","null","null","","arctic","arctic","509.89999997615814","","T","null","77","77","1","arctic-dual-task","","T","uppercase","670000","0","1","01d92d17ed0ea9d99d2bac6381808c7ee69318be66dd3daf29c6bf4568786f8d","670012.1999999285","509.89999997615814","77","1","arctic","","","","",""
"dual-task","null","null","null","","arctic","arctic","702.1999999284744","","t","null","88","88","1","arctic-dual-task","","t","lowercase","680000","0","1","01d92d17ed0ea9d99d2bac6381808c7ee69318be66dd3daf29c6bf4568786f8d","680006.0999999046","702.1999999284744","88","1","arctic","","","","",""
"dual-task","null","null","null","","arctic","arctic","572.5","","q","null","88","88","1","arctic-dual-task","","q","lowercase","688000","0","1","01d92d17ed0ea9d99d2bac6381808c7ee69318be66dd3daf29c6bf4568786f8d","688011.1999999285","572.5","88","1","arctic","","","","",""
"dual-task","null","null","null","","arctic","arctic","482.40000009536743","","N","null","77","77","1","arctic-dual-task","","N","uppercase","702000","0","1","01d92d17ed0ea9d99d2bac6381808c7ee69318be66dd3daf29c6bf4568786f8d","702002","482.40000009536743","77","1","arctic","","","","",""
"dual-task","null","null","null","","arctic","arctic","417.5","","q","null","88","88","1","arctic-dual-task","","q","lowercase","716000","0","1","01d92d17ed0ea9d99d2bac6381808c7ee69318be66dd3daf29c6bf4568786f8d","716010.3999999762","417.5","88","1","arctic","","","","",""
"dual-task","null","null","null","","arctic","arctic","652.3999999761581","","Q","null","77","77","1","arctic-dual-task","","Q","uppercase","724000","0","1","01d92d17ed0ea9d99d2bac6381808c7ee69318be66dd3daf29c6bf4568786f8d","724008.2999999523","652.3999999761581","77","1","arctic","","","","",""
"dual-task","null","null","null","","arctic","arctic","451.39999997615814","","h","null","88","88","1","arctic-dual-task","","h","lowercase","734000","0","1","01d92d17ed0ea9d99d2bac6381808c7ee69318be66dd3daf29c6bf4568786f8d","734011.6999999285","451.39999997615814","88","1","arctic","","","","",""
"dual-task","null","null","null","","arctic","arctic","435.2999999523163","","G","null","77","77","1","arctic-dual-task","","G","uppercase","744000","0","1","01d92d17ed0ea9d99d2bac6381808c7ee69318be66dd3daf29c6bf4568786f8d","744002.2999999523","435.2999999523163","77","1","arctic","","","","",""
"dual-task","null","null","null","","arctic","arctic","467.59999990463257","","E","null","77","77","1","arctic-dual-task","","E","uppercase","754000","0","1","01d92d17ed0ea9d99d2bac6381808c7ee69318be66dd3daf29c6bf4568786f8d","754006.3999999762","467.59999990463257","77","1","arctic","","","","",""
"dual-task","null","null","null","","arctic","arctic","412.40000009536743","","A","null","77","77","1","arctic-dual-task","","A","uppercase","766000","0","1","01d92d17ed0ea9d99d2bac6381808c7ee69318be66dd3daf29c6bf4568786f8d","766006.5999999046","412.40000009536743","77","1","arctic","","","","",""
"dual-task","null","null","null","","arctic","arctic","520.5","","d","null","88","88","1","arctic-dual-task","","d","lowercase","778000","0","1","01d92d17ed0ea9d99d2bac6381808c7ee69318be66dd3daf29c6bf4568786f8d","778003.8999999762","520.5","88","1","arctic","","","","",""
"dual-task","null","null","null","","arctic","arctic","515.5","","t","null","88","88","1","arctic-dual-task","","t","lowercase","788000","0","1","01d92d17ed0ea9d99d2bac6381808c7ee69318be66dd3daf29c6bf4568786f8d","788004.0999999046","515.5","88","1","arctic","","","","",""
"audio-keyboard-response","29","1056355","0.0-6.0-0.0-1.0","01d92d17ed0ea9d99d2bac6381808c7ee69318be66dd3daf29c6bf4568786f8d","arctic","arctic","null","","audio/story_arctic_scrambled.mp3","","null","","","","","","","","","","","","","","","","","","","",""
"html-button-response","30","1060872","0.0-6.0-0.0-2.0","01d92d17ed0ea9d99d2bac6381808c7ee69318be66dd3daf29c6bf4568786f8d","arctic","arctic","4515","","<p>This concludes the story. Thank you for listening.</p><p>You will now answer some questions about the content of the story.</p>","0","","","","","","","","","","","","","","","","","","","","",""
"survey-multi-choice","31","1077087","0.0-6.0-0.0-3.0-0.0","01d92d17ed0ea9d99d2bac6381808c7ee69318be66dd3daf29c6bf4568786f8d","arctic","arctic","16211","","<b>What were the weather conditions in the Arctic like the winter of the narrator&#39;s expedition?</b>","","","","1","arctic-comprehension","","","","","","","","","","","","","{""Q0"":""There were more storms than any other winter in recorded history.""}","","","",""
"survey-multi-choice","32","1081565","0.0-6.0-0.0-3.0-0.1","01d92d17ed0ea9d99d2bac6381808c7ee69318be66dd3daf29c6bf4568786f8d","arctic","arctic","4216","","<b>Which dog on the narrator&#39;s dog team never followed instructions?</b>","","","","1","arctic-comprehension","","","","","","","","","","","","","{""Q0"":""Robert""}","","","",""
"survey-multi-choice","33","1084676","0.0-6.0-0.0-3.0-0.2","01d92d17ed0ea9d99d2bac6381808c7ee69318be66dd3daf29c6bf4568786f8d","arctic","arctic","2850","","<b>What is the name of the narrator&#39;s neighbour?</b>","","","","1","arctic-comprehension","","","","","","","","","","","","","{""Q0"":""Dave""}","","","",""
"survey-multi-choice","34","1092431","0.0-6.0-0.0-3.0-0.3","01d92d17ed0ea9d99d2bac6381808c7ee69318be66dd3daf29c6bf4568786f8d","arctic","arctic","7491","","<b>What was the objective of the narrator&#39;s expedition?</b>","","","","1","arctic-comprehension","","","","","","","","","","","","","{""Q0"":""Dogsled across Arctic America""}","","","",""
"survey-multi-choice","35","1099054","0.0-6.0-0.0-3.0-0.4","01d92d17ed0ea9d99d2bac6381808c7ee69318be66dd3daf29c6bf4568786f8d","arctic","arctic","6370","","<b>What did the narrator do for leisure while in her tent?</b>","","","","1","arctic-comprehension","","","","","","","","","","","","","{""Q0"":""Read""}","","","",""
"survey-multi-choice","36","1103944","0.0-6.0-0.0-3.0-0.5","01d92d17ed0ea9d99d2bac6381808c7ee69318be66dd3daf29c6bf4568786f8d","arctic","arctic","4637","","<b>How many sponsorships did the narrator receive to support her expedition?</b>","","","","1","arctic-comprehension","","","","","","","","","","","","","{""Q0"":""None""}","","","",""
"survey-multi-choice","37","1113462","0.0-6.0-0.0-3.0-0.6","01d92d17ed0ea9d99d2bac6381808c7ee69318be66dd3daf29c6bf4568786f8d","arctic","arctic","9265","","<b>How did the narrator&#39;s neighbour respond when she told him about her expedition?</b>","","","","1","arctic-comprehension","","","","","","","","","","","","","{""Q0"":""He said she was going to fail.""}","","","",""
"survey-multi-choice","38","1120444","0.0-6.0-0.0-3.0-0.7","01d92d17ed0ea9d99d2bac6381808c7ee69318be66dd3daf29c6bf4568786f8d","arctic","arctic","6728","","<b>How did the narrator&#39;s encounter with the polar bears end?</b>","","","","1","arctic-comprehension","","","","","","","","","","","","","{""Q0"":""The bears walked back to their den.""}","","","",""
"survey-multi-choice","39","1128409","0.0-6.0-0.0-3.0-0.8","01d92d17ed0ea9d99d2bac6381808c7ee69318be66dd3daf29c6bf4568786f8d","arctic","arctic","7709","","<b>How did the narrator prepare for her expedition?</b>","","","","1","arctic-comprehension","","","","","","","","","","","","","{""Q0"":""Trained in Alaska learning how to dogsled""}","","","",""
"survey-multi-choice","40","1133757","0.0-6.0-0.0-3.0-0.9","01d92d17ed0ea9d99d2bac6381808c7ee69318be66dd3daf29c6bf4568786f8d","arctic","arctic","5093","","<b>How did the dogs respond when they saw the bears?</b>","","","","1","arctic-comprehension","","","","","","","","","","","","","{""Q0"":""Approached them""}","","","",""
"html-button-response","41","1136329","0.0-6.0-0.0-4.0","01d92d17ed0ea9d99d2bac6381808c7ee69318be66dd3daf29c6bf4568786f8d","arctic","arctic","2319","","<p>Thank you for your responses.</p><p>You will now answer some questions about your impressions of the story.</p>","0","","","","","","","","","","","","","","","","","","","","",""
"html-button-response","42","1139066","0.0-6.0-0.0-5.0-0.0","01d92d17ed0ea9d99d2bac6381808c7ee69318be66dd3daf29c6bf4568786f8d","arctic","arctic","2737","","E6","1","","","","arctic-engagement","","","","","","","","","","","","","","2","enjoyment","",""
"html-button-response","43","1141594","0.0-6.0-0.0-5.0-0.1","01d92d17ed0ea9d99d2bac6381808c7ee69318be66dd3daf29c6bf4568786f8d","arctic","arctic","2277","","EE4","0","","","","arctic-engagement","","","","","","","","","","","","","","1","emo-engage","",""
"html-button-response","44","1143356","0.0-6.0-0.0-5.0-0.2","01d92d17ed0ea9d99d2bac6381808c7ee69318be66dd3daf29c6bf4568786f8d","arctic","arctic","1508","","E1","1","","","","arctic-engagement","","","","","","","","","","","","","","2","enjoyment","",""
"html-button-response","45","1146535","0.0-6.0-0.0-5.0-0.3","01d92d17ed0ea9d99d2bac6381808c7ee69318be66dd3daf29c6bf4568786f8d","arctic","arctic","2927","","MS1","5","","","","arctic-engagement","","","","","","","","","","","","","","6","mental-sim","",""
"html-button-response","46","1148411","0.0-6.0-0.0-5.0-0.4","01d92d17ed0ea9d99d2bac6381808c7ee69318be66dd3daf29c6bf4568786f8d","arctic","arctic","1622","","A3","2","","","","arctic-engagement","","","","","","","","","","","","","","3","absorption","",""
"html-button-response","47","1150564","0.0-6.0-0.0-5.0-0.5","01d92d17ed0ea9d99d2bac6381808c7ee69318be66dd3daf29c6bf4568786f8d","arctic","arctic","1895","","E8","0","","","","arctic-engagement","","","","","","","","","","","","","","1","enjoyment","",""
"html-button-response","48","1153571","0.0-6.0-0.0-5.0-0.6","01d92d17ed0ea9d99d2bac6381808c7ee69318be66dd3daf29c6bf4568786f8d","arctic","arctic","2757","","A4","0","","","","arctic-engagement","","","","","","","","","","","","","","1","absorption","",""
"html-button-response","49","1155671","0.0-6.0-0.0-5.0-0.7","01d92d17ed0ea9d99d2bac6381808c7ee69318be66dd3daf29c6bf4568786f8d","arctic","arctic","1848","","EE5","0","","","","arctic-engagement","","","","","","","","","","","","","","1","emo-engage","",""
"html-button-response","50","1157320","0.0-6.0-0.0-5.0-0.8","01d92d17ed0ea9d99d2bac6381808c7ee69318be66dd3daf29c6bf4568786f8d","arctic","arctic","1398","","EE3","0","","","","arctic-engagement","","","","","","","","","","","","","","1","emo-engage","",""
"html-button-response","51","1160261","0.0-6.0-0.0-5.0-0.9","01d92d17ed0ea9d99d2bac6381808c7ee69318be66dd3daf29c6bf4568786f8d","arctic","arctic","2690","","A2","6","","","","arctic-engagement","","","","","","","","","","","","","","7","absorption","",""
"html-button-response","52","1163584","0.0-6.0-0.0-5.0-0.10","01d92d17ed0ea9d99d2bac6381808c7ee69318be66dd3daf29c6bf4568786f8d","arctic","arctic","3070","","A1","0","","","","arctic-engagement","","","","","","","","","","","","","","1","absorption","",""
"html-button-response","53","1165939","0.0-6.0-0.0-5.0-0.11","01d92d17ed0ea9d99d2bac6381808c7ee69318be66dd3daf29c6bf4568786f8d","arctic","arctic","2103","","E10","1","","","","arctic-engagement","","","","","","","","","","","","","","2","enjoyment","",""
"html-button-response","54","1168399","0.0-6.0-0.0-5.0-0.12","01d92d17ed0ea9d99d2bac6381808c7ee69318be66dd3daf29c6bf4568786f8d","arctic","arctic","2207","","E7","1","","","","arctic-engagement","","","","","","","","","","","","","","2","enjoyment","",""
"html-button-response","55","1172388","0.0-6.0-0.0-5.0-0.13","01d92d17ed0ea9d99d2bac6381808c7ee69318be66dd3daf29c6bf4568786f8d","arctic","arctic","3737","","EE1","1","","","","arctic-engagement","","","","","","","","","","","","","","2","emo-engage","",""
"html-button-response","56","1176558","0.0-6.0-0.0-5.0-0.14","01d92d17ed0ea9d99d2bac6381808c7ee69318be66dd3daf29c6bf4568786f8d","arctic","arctic","3886","","MS2","2","","","","arctic-engagement","","","","","","","","","","","","","","3","mental-sim","",""
"html-button-response","57","1180429","0.0-6.0-0.0-5.0-0.15","01d92d17ed0ea9d99d2bac6381808c7ee69318be66dd3daf29c6bf4568786f8d","arctic","arctic","3618","","MS3","4","","","","arctic-engagement","","","","","","","","","","","","","","5","mental-sim","",""
"html-button-response","58","1184223","0.0-6.0-0.0-5.0-0.16","01d92d17ed0ea9d99d2bac6381808c7ee69318be66dd3daf29c6bf4568786f8d","arctic","arctic","3540","","A5","0","","","","arctic-engagement","","","","","","","","","","","","","","1","absorption","",""
"html-button-response","59","1185739","0.0-6.0-0.0-5.0-0.17","01d92d17ed0ea9d99d2bac6381808c7ee69318be66dd3daf29c6bf4568786f8d","arctic","arctic","1263","","EE2","0","","","","arctic-engagement","","","","","","","","","","","","","","1","emo-engage","",""
"html-keyboard-response","60","1223619","0.0-6.0-1.0","01d92d17ed0ea9d99d2bac6381808c7ee69318be66dd3daf29c6bf4568786f8d","arctic","arctic","37629","","<p>Thank you for your responses. You will now listen to the second story.</p><p>Remember, as you listen to the story you will see letters appear on the screen.</br>As quickly as possible, press <b>&lt;x&gt;</b> if the letter is lowercase and <b>&lt;m&gt;</b> if the letter is uppercase.</p><p>Press <b>&lt;x&gt;</b> or <b>&lt;m&gt;</b> to begin listening!</p>","","88","","","","","","","","","","","","","","","","","","","",""
"html-keyboard-response","61","1224140","0.0-6.0-2.0-0.0","01d92d17ed0ea9d99d2bac6381808c7ee69318be66dd3daf29c6bf4568786f8d","arctic","arctic","null","","<div style=""font-size:60px;"" tabindex=""0"">+</div>","","null","","","","","","","","","","","","","","","","","","","",""
"dual-task","null","null","null","","arctic","arctic","624.5","","B","null","77","77","1","swim-dual-task","","B","uppercase","10000","0","1","01d92d17ed0ea9d99d2bac6381808c7ee69318be66dd3daf29c6bf4568786f8d","10012.399999976158","624.5","77","1","swim","","","","",""
"dual-task","null","null","null","","arctic","arctic","404.7000000476837","","n","null","88","88","1","swim-dual-task","","n","lowercase","18000","0","1","01d92d17ed0ea9d99d2bac6381808c7ee69318be66dd3daf29c6bf4568786f8d","18003.199999928474","404.7000000476837","88","1","swim","","","","",""
"dual-task","null","null","null","","arctic","arctic","424.59999990463257","","Q","null","77","77","1","swim-dual-task","","Q","uppercase","28000","0","1","01d92d17ed0ea9d99d2bac6381808c7ee69318be66dd3daf29c6bf4568786f8d","28014.799999952316","424.59999990463257","77","1","swim","","","","",""
"dual-task","null","null","null","","arctic","arctic","425","","H","null","77","77","1","swim-dual-task","","H","uppercase","40000","0","1","01d92d17ed0ea9d99d2bac6381808c7ee69318be66dd3daf29c6bf4568786f8d","40001.10000002384","425","77","1","swim","","","","",""
"dual-task","null","null","null","","arctic","arctic","464.2999999523163","","A","null","77","77","1","swim-dual-task","","A","uppercase","54000","0","1","01d92d17ed0ea9d99d2bac6381808c7ee69318be66dd3daf29c6bf4568786f8d","54002.5","464.2999999523163","77","1","swim","","","","",""
"dual-task","null","null","null","","arctic","arctic","509.3000000715256","","a","null","88","88","1","swim-dual-task","","a","lowercase","62000","0","1","01d92d17ed0ea9d99d2bac6381808c7ee69318be66dd3daf29c6bf4568786f8d","62001.10000002384","509.3000000715256","88","1","swim","","","","",""
"dual-task","null","null","null","","arctic","arctic","637","","b","null","88","88","1","swim-dual-task","","b","lowercase","72000","0","1","01d92d17ed0ea9d99d2bac6381808c7ee69318be66dd3daf29c6bf4568786f8d","72005.89999997616","637","88","1","swim","","","","",""
"dual-task","null","null","null","","arctic","arctic","441.7000000476837","","G","null","77","77","1","swim-dual-task","","G","uppercase","82000","0","1","01d92d17ed0ea9d99d2bac6381808c7ee69318be66dd3daf29c6bf4568786f8d","82003.60000002384","441.7000000476837","77","1","swim","","","","",""
"dual-task","null","null","null","","arctic","arctic","436.2000000476837","","E","null","77","77","1","swim-dual-task","","E","uppercase","94000","0","1","01d92d17ed0ea9d99d2bac6381808c7ee69318be66dd3daf29c6bf4568786f8d","94005.60000002384","436.2000000476837","77","1","swim","","","","",""
"dual-task","null","null","null","","arctic","arctic","480.89999997615814","","D","null","77","77","1","swim-dual-task","","D","uppercase","108000","0","1","01d92d17ed0ea9d99d2bac6381808c7ee69318be66dd3daf29c6bf4568786f8d","108005.19999992847","480.89999997615814","77","1","swim","","","","",""
"dual-task","null","null","null","","arctic","arctic","423","","F","null","77","77","1","swim-dual-task","","F","uppercase","116000","0","1","01d92d17ed0ea9d99d2bac6381808c7ee69318be66dd3daf29c6bf4568786f8d","116004.19999992847","423","77","1","swim","","","","",""
"dual-task","null","null","null","","arctic","arctic","408.7000000476837","","Q","null","77","77","1","swim-dual-task","","Q","uppercase","124000","0","1","01d92d17ed0ea9d99d2bac6381808c7ee69318be66dd3daf29c6bf4568786f8d","124008.60000002384","408.7000000476837","77","1","swim","","","","",""
"dual-task","null","null","null","","arctic","arctic","497.60000002384186","","H","null","77","77","1","swim-dual-task","","H","uppercase","136000","0","1","01d92d17ed0ea9d99d2bac6381808c7ee69318be66dd3daf29c6bf4568786f8d","136009.19999992847","497.60000002384186","77","1","swim","","","","",""
"dual-task","null","null","null","","arctic","arctic","437.39999997615814","","q","null","77","88","0","swim-dual-task","","q","lowercase","150000","0","1","01d92d17ed0ea9d99d2bac6381808c7ee69318be66dd3daf29c6bf4568786f8d","150004.29999995232","437.39999997615814","77","0","swim","","","","",""
"dual-task","null","null","null","","arctic","arctic","614.5","","N","null","77","77","1","swim-dual-task","","N","uppercase","162000","0","1","01d92d17ed0ea9d99d2bac6381808c7ee69318be66dd3daf29c6bf4568786f8d","162015","614.5","77","1","swim","","","","",""
"dual-task","null","null","null","","arctic","arctic","477.2000000476837","","Q","null","77","77","1","swim-dual-task","","Q","uppercase","174000","0","1","01d92d17ed0ea9d99d2bac6381808c7ee69318be66dd3daf29c6bf4568786f8d","174015","477.2000000476837","77","1","swim","","","","",""
"dual-task","null","null","null","","arctic","arctic","452.90000009536743","","t","null","88","88","1","swim-dual-task","","t","lowercase","184000","0","1","01d92d17ed0ea9d99d2bac6381808c7ee69318be66dd3daf29c6bf4568786f8d","184010.79999995232","452.90000009536743","88","1","swim","","","","",""
"dual-task","null","null","null","","arctic","arctic","437.5","","a","null","88","88","1","swim-dual-task","","a","lowercase","196000","0","1","01d92d17ed0ea9d99d2bac6381808c7ee69318be66dd3daf29c6bf4568786f8d","196009.19999992847","437.5","88","1","swim","","","","",""
"dual-task","null","null","null","","arctic","arctic","521.6999999284744","","f","null","88","88","1","swim-dual-task","","f","lowercase","210000","0","1","01d92d17ed0ea9d99d2bac6381808c7ee69318be66dd3daf29c6bf4568786f8d","210015","521.6999999284744","88","1","swim","","","","",""
"dual-task","null","null","null","","arctic","arctic","523.6999999284744","","G","null","77","77","1","swim-dual-task","","G","uppercase","220000","0","1","01d92d17ed0ea9d99d2bac6381808c7ee69318be66dd3daf29c6bf4568786f8d","220009.5","523.6999999284744","77","1","swim","","","","",""
"dual-task","null","null","null","","arctic","arctic","519.1000000238419","","f","null","88","88","1","swim-dual-task","","f","lowercase","230000","0","1","01d92d17ed0ea9d99d2bac6381808c7ee69318be66dd3daf29c6bf4568786f8d","230000.60000002384","519.1000000238419","88","1","swim","","","","",""
"dual-task","null","null","null","","arctic","arctic","525.5","","n","null","88","88","1","swim-dual-task","","n","lowercase","238000","0","1","01d92d17ed0ea9d99d2bac6381808c7ee69318be66dd3daf29c6bf4568786f8d","238015.89999997616","525.5","88","1","swim","","","","",""
"dual-task","null","null","null","","arctic","arctic","688.7999999523163","","h","null","88","88","1","swim-dual-task","","h","lowercase","246000","0","1","01d92d17ed0ea9d99d2bac6381808c7ee69318be66dd3daf29c6bf4568786f8d","246010.39999997616","688.7999999523163","88","1","swim","","","","",""
"dual-task","null","null","null","","arctic","arctic","418.7999999523163","","g","null","88","88","1","swim-dual-task","","g","lowercase","258000","0","1","01d92d17ed0ea9d99d2bac6381808c7ee69318be66dd3daf29c6bf4568786f8d","258005.5","418.7999999523163","88","1","swim","","","","",""
"dual-task","null","null","null","","arctic","arctic","520","","T","null","77","77","1","swim-dual-task","","T","uppercase","268000","0","1","01d92d17ed0ea9d99d2bac6381808c7ee69318be66dd3daf29c6bf4568786f8d","268006.60000002384","520","77","1","swim","","","","",""
"dual-task","null","null","null","","arctic","arctic","557.6999999284744","","B","null","77","77","1","swim-dual-task","","B","uppercase","282000","0","1","01d92d17ed0ea9d99d2bac6381808c7ee69318be66dd3daf29c6bf4568786f8d","282006.7999999523","557.6999999284744","77","1","swim","","","","",""
"dual-task","null","null","null","","arctic","arctic","479.3000000715256","","B","null","77","77","1","swim-dual-task","","B","uppercase","288000","0","1","01d92d17ed0ea9d99d2bac6381808c7ee69318be66dd3daf29c6bf4568786f8d","288012.1999999285","479.3000000715256","77","1","swim","","","","",""
"dual-task","null","null","null","","arctic","arctic","401.1999999284744","","H","null","77","77","1","swim-dual-task","","H","uppercase","302000","0","1","01d92d17ed0ea9d99d2bac6381808c7ee69318be66dd3daf29c6bf4568786f8d","302001","401.1999999284744","77","1","swim","","","","",""
"dual-task","null","null","null","","arctic","arctic","428.60000002384186","","D","null","77","77","1","swim-dual-task","","D","uppercase","312000","0","1","01d92d17ed0ea9d99d2bac6381808c7ee69318be66dd3daf29c6bf4568786f8d","312013.60000002384","428.60000002384186","77","1","swim","","","","",""
"dual-task","null","null","null","","arctic","arctic","669.9000000953674","","E","null","77","77","1","swim-dual-task","","E","uppercase","322000","0","1","01d92d17ed0ea9d99d2bac6381808c7ee69318be66dd3daf29c6bf4568786f8d","322012.1999999285","669.9000000953674","77","1","swim","","","","",""
"dual-task","null","null","null","","arctic","arctic","541.5","","g","null","88","88","1","swim-dual-task","","g","lowercase","330000","0","1","01d92d17ed0ea9d99d2bac6381808c7ee69318be66dd3daf29c6bf4568786f8d","330006.1999999285","541.5","88","1","swim","","","","",""
"dual-task","null","null","null","","arctic","arctic","468.7000000476837","","T","null","77","77","1","swim-dual-task","","T","uppercase","340000","0","1","01d92d17ed0ea9d99d2bac6381808c7ee69318be66dd3daf29c6bf4568786f8d","340005.1999999285","468.7000000476837","77","1","swim","","","","",""
"dual-task","null","null","null","","arctic","arctic","431.2999999523163","","a","null","88","88","1","swim-dual-task","","a","lowercase","350000","0","1","01d92d17ed0ea9d99d2bac6381808c7ee69318be66dd3daf29c6bf4568786f8d","350004.5","431.2999999523163","88","1","swim","","","","",""
"dual-task","null","null","null","","arctic","arctic","436.5","","q","null","88","88","1","swim-dual-task","","q","lowercase","362000","0","1","01d92d17ed0ea9d99d2bac6381808c7ee69318be66dd3daf29c6bf4568786f8d","362004.2999999523","436.5","88","1","swim","","","","",""
"dual-task","null","null","null","","arctic","arctic","390.6999999284744","","b","null","88","88","1","swim-dual-task","","b","lowercase","372000","0","1","01d92d17ed0ea9d99d2bac6381808c7ee69318be66dd3daf29c6bf4568786f8d","372014.2999999523","390.6999999284744","88","1","swim","","","","",""
"dual-task","null","null","null","","arctic","arctic","435.8000000715256","","r","null","88","88","1","swim-dual-task","","r","lowercase","380000","0","1","01d92d17ed0ea9d99d2bac6381808c7ee69318be66dd3daf29c6bf4568786f8d","380012.10000002384","435.8000000715256","88","1","swim","","","","",""
"dual-task","null","null","null","","arctic","arctic","495.90000009536743","","f","null","88","88","1","swim-dual-task","","f","lowercase","390000","0","1","01d92d17ed0ea9d99d2bac6381808c7ee69318be66dd3daf29c6bf4568786f8d","390012.39999997616","495.90000009536743","88","1","swim","","","","",""
"dual-task","null","null","null","","arctic","arctic","511.3000000715256","","E","null","77","77","1","swim-dual-task","","E","uppercase","396000","0","1","01d92d17ed0ea9d99d2bac6381808c7ee69318be66dd3daf29c6bf4568786f8d","396010.5","511.3000000715256","77","1","swim","","","","",""
"dual-task","null","null","null","","arctic","arctic","423.2000000476837","","h","null","88","88","1","swim-dual-task","","h","lowercase","406000","0","1","01d92d17ed0ea9d99d2bac6381808c7ee69318be66dd3daf29c6bf4568786f8d","406008.39999997616","423.2000000476837","88","1","swim","","","","",""
"dual-task","null","null","null","","arctic","arctic","436.1999999284744","","E","null","88","77","0","swim-dual-task","","E","uppercase","416000","0","1","01d92d17ed0ea9d99d2bac6381808c7ee69318be66dd3daf29c6bf4568786f8d","416002","436.1999999284744","88","0","swim","","","","",""
"dual-task","null","null","null","","arctic","arctic","605.2000000476837","","F","null","77","77","1","swim-dual-task","","F","uppercase","422000","0","1","01d92d17ed0ea9d99d2bac6381808c7ee69318be66dd3daf29c6bf4568786f8d","422008.2999999523","605.2000000476837","77","1","swim","","","","",""
"dual-task","null","null","null","","arctic","arctic","760.7000000476837","","q","null","88","88","1","swim-dual-task","","q","lowercase","428000","0","1","01d92d17ed0ea9d99d2bac6381808c7ee69318be66dd3daf29c6bf4568786f8d","428011.1999999285","760.7000000476837","88","1","swim","","","","",""
"dual-task","null","null","null","","arctic","arctic","474.5","","T","null","77","77","1","swim-dual-task","","T","uppercase","438000","0","1","01d92d17ed0ea9d99d2bac6381808c7ee69318be66dd3daf29c6bf4568786f8d","438009.10000002384","474.5","77","1","swim","","","","",""
"dual-task","null","null","null","","arctic","arctic","474.1999999284744","","f","null","88","88","1","swim-dual-task","","f","lowercase","444000","0","1","01d92d17ed0ea9d99d2bac6381808c7ee69318be66dd3daf29c6bf4568786f8d","444003.89999997616","474.1999999284744","88","1","swim","","","","",""
"dual-task","null","null","null","","arctic","arctic","504.7999999523163","","G","null","77","77","1","swim-dual-task","","G","uppercase","452000","0","1","01d92d17ed0ea9d99d2bac6381808c7ee69318be66dd3daf29c6bf4568786f8d","452031.39999997616","504.7999999523163","77","1","swim","","","","",""
"dual-task","null","null","null","","arctic","arctic","496.60000002384186","","A","null","77","77","1","swim-dual-task","","A","uppercase","460000","0","1","01d92d17ed0ea9d99d2bac6381808c7ee69318be66dd3daf29c6bf4568786f8d","460019.1999999285","496.60000002384186","77","1","swim","","","","",""
"dual-task","null","null","null","","arctic","arctic","426.60000002384186","","F","null","77","77","1","swim-dual-task","","F","uppercase","474000","0","1","01d92d17ed0ea9d99d2bac6381808c7ee69318be66dd3daf29c6bf4568786f8d","474011.10000002384","426.60000002384186","77","1","swim","","","","",""
"dual-task","null","null","null","","arctic","arctic","529.4000000953674","","h","null","88","88","1","swim-dual-task","","h","lowercase","486000","0","1","01d92d17ed0ea9d99d2bac6381808c7ee69318be66dd3daf29c6bf4568786f8d","486015.1999999285","529.4000000953674","88","1","swim","","","","",""
"dual-task","null","null","null","","arctic","arctic","520.7000000476837","","d","null","88","88","1","swim-dual-task","","d","lowercase","494000","0","1","01d92d17ed0ea9d99d2bac6381808c7ee69318be66dd3daf29c6bf4568786f8d","494004.1999999285","520.7000000476837","88","1","swim","","","","",""
"dual-task","null","null","null","","arctic","arctic","479.1999999284744","","d","null","88","88","1","swim-dual-task","","d","lowercase","508000","0","1","01d92d17ed0ea9d99d2bac6381808c7ee69318be66dd3daf29c6bf4568786f8d","508012","479.1999999284744","88","1","swim","","","","",""
"dual-task","null","null","null","","arctic","arctic","425.89999997615814","","e","null","88","88","1","swim-dual-task","","e","lowercase","522000","0","1","01d92d17ed0ea9d99d2bac6381808c7ee69318be66dd3daf29c6bf4568786f8d","522010.60000002384","425.89999997615814","88","1","swim","","","","",""
"dual-task","null","null","null","","arctic","arctic","513.5","","A","null","77","77","1","swim-dual-task","","A","uppercase","532000","0","1","01d92d17ed0ea9d99d2bac6381808c7ee69318be66dd3daf29c6bf4568786f8d","532011.5","513.5","77","1","swim","","","","",""
"dual-task","null","null","null","","arctic","arctic","459.39999997615814","","b","null","88","88","1","swim-dual-task","","b","lowercase","544000","0","1","01d92d17ed0ea9d99d2bac6381808c7ee69318be66dd3daf29c6bf4568786f8d","544002","459.39999997615814","88","1","swim","","","","",""
"dual-task","null","null","null","","arctic","arctic","444.1999999284744","","r","null","88","88","1","swim-dual-task","","r","lowercase","558000","0","1","01d92d17ed0ea9d99d2bac6381808c7ee69318be66dd3daf29c6bf4568786f8d","558006","444.1999999284744","88","1","swim","","","","",""
"dual-task","null","null","null","","arctic","arctic","571","","R","null","77","77","1","swim-dual-task","","R","uppercase","564000","0","1","01d92d17ed0ea9d99d2bac6381808c7ee69318be66dd3daf29c6bf4568786f8d","564009.8999999762","571","77","1","swim","","","","",""
"dual-task","null","null","null","","arctic","arctic","629.8000000715256","","e","null","88","88","1","swim-dual-task","","e","lowercase","574000","0","1","01d92d17ed0ea9d99d2bac6381808c7ee69318be66dd3daf29c6bf4568786f8d","574009.6999999285","629.8000000715256","88","1","swim","","","","",""
"dual-task","null","null","null","","arctic","arctic","552","","g","null","88","88","1","swim-dual-task","","g","lowercase","582000","0","1","01d92d17ed0ea9d99d2bac6381808c7ee69318be66dd3daf29c6bf4568786f8d","582005.2999999523","552","88","1","swim","","","","",""
"dual-task","null","null","null","","arctic","arctic","428.2999999523163","","b","null","88","88","1","swim-dual-task","","b","lowercase","592000","0","1","01d92d17ed0ea9d99d2bac6381808c7ee69318be66dd3daf29c6bf4568786f8d","592005","428.2999999523163","88","1","swim","","","","",""
"dual-task","null","null","null","","arctic","arctic","476.89999997615814","","D","null","77","77","1","swim-dual-task","","D","uppercase","606000","0","1","01d92d17ed0ea9d99d2bac6381808c7ee69318be66dd3daf29c6bf4568786f8d","606005.5","476.89999997615814","77","1","swim","","","","",""
"dual-task","null","null","null","","arctic","arctic","624.3999999761581","","R","null","77","77","1","swim-dual-task","","R","uppercase","612000","0","1","01d92d17ed0ea9d99d2bac6381808c7ee69318be66dd3daf29c6bf4568786f8d","612004.7999999523","624.3999999761581","77","1","swim","","","","",""
"dual-task","null","null","null","","arctic","arctic","498.40000009536743","","R","null","77","77","1","swim-dual-task","","R","uppercase","620000","0","1","01d92d17ed0ea9d99d2bac6381808c7ee69318be66dd3daf29c6bf4568786f8d","620016.1000000238","498.40000009536743","77","1","swim","","","","",""
"dual-task","null","null","null","","arctic","arctic","436.89999997615814","","n","null","88","88","1","swim-dual-task","","n","lowercase","628000","0","1","01d92d17ed0ea9d99d2bac6381808c7ee69318be66dd3daf29c6bf4568786f8d","628009.6999999285","436.89999997615814","88","1","swim","","","","",""
"dual-task","null","null","null","","arctic","arctic","486.10000002384186","","F","null","77","77","1","swim-dual-task","","F","uppercase","636000","0","1","01d92d17ed0ea9d99d2bac6381808c7ee69318be66dd3daf29c6bf4568786f8d","636009.1000000238","486.10000002384186","77","1","swim","","","","",""
"dual-task","null","null","null","","arctic","arctic","465.60000002384186","","g","null","88","88","1","swim-dual-task","","g","lowercase","646000","0","1","01d92d17ed0ea9d99d2bac6381808c7ee69318be66dd3daf29c6bf4568786f8d","646011.5","465.60000002384186","88","1","swim","","","","",""
"dual-task","null","null","null","","arctic","arctic","551.6000000238419","","T","null","77","77","1","swim-dual-task","","T","uppercase","656000","0","1","01d92d17ed0ea9d99d2bac6381808c7ee69318be66dd3daf29c6bf4568786f8d","656008.8999999762","551.6000000238419","77","1","swim","","","","",""
"dual-task","null","null","null","","arctic","arctic","496.7999999523163","","e","null","88","88","1","swim-dual-task","","e","lowercase","664000","0","1","01d92d17ed0ea9d99d2bac6381808c7ee69318be66dd3daf29c6bf4568786f8d","664008.3999999762","496.7999999523163","88","1","swim","","","","",""
"dual-task","null","null","null","","arctic","arctic","711.0999999046326","","N","null","77","77","1","swim-dual-task","","N","uppercase","676000","0","1","01d92d17ed0ea9d99d2bac6381808c7ee69318be66dd3daf29c6bf4568786f8d","676010.8999999762","711.0999999046326","77","1","swim","","","","",""
"dual-task","null","null","null","","arctic","arctic","547.5","","n","null","88","88","1","swim-dual-task","","n","lowercase","688000","0","1","01d92d17ed0ea9d99d2bac6381808c7ee69318be66dd3daf29c6bf4568786f8d","688010.2999999523","547.5","88","1","swim","","","","",""
"dual-task","null","null","null","","arctic","arctic","655","","D","null","77","77","1","swim-dual-task","","D","uppercase","694000","0","1","01d92d17ed0ea9d99d2bac6381808c7ee69318be66dd3daf29c6bf4568786f8d","694009.6000000238","655","77","1","swim","","","","",""
"dual-task","null","null","null","","arctic","arctic","480.2000000476837","","t","null","88","88","1","swim-dual-task","","t","lowercase","704000","0","1","01d92d17ed0ea9d99d2bac6381808c7ee69318be66dd3daf29c6bf4568786f8d","704010.1000000238","480.2000000476837","88","1","swim","","","","",""
"dual-task","null","null","null","","arctic","arctic","622","","t","null","88","88","1","swim-dual-task","","t","lowercase","712000","0","1","01d92d17ed0ea9d99d2bac6381808c7ee69318be66dd3daf29c6bf4568786f8d","712013.6999999285","622","88","1","swim","","","","",""
"dual-task","null","null","null","","arctic","arctic","451.1999999284744","","B","null","77","77","1","swim-dual-task","","B","uppercase","722000","0","1","01d92d17ed0ea9d99d2bac6381808c7ee69318be66dd3daf29c6bf4568786f8d","722011.1000000238","451.1999999284744","77","1","swim","","","","",""
"dual-task","null","null","null","","arctic","arctic","419.7999999523163","","t","null","88","88","1","swim-dual-task","","t","lowercase","734000","0","1","01d92d17ed0ea9d99d2bac6381808c7ee69318be66dd3daf29c6bf4568786f8d","734000.2999999523","419.7999999523163","88","1","swim","","","","",""
"dual-task","null","null","null","","arctic","arctic","501.59999990463257","","d","null","88","88","1","swim-dual-task","","d","lowercase","746000","0","1","01d92d17ed0ea9d99d2bac6381808c7ee69318be66dd3daf29c6bf4568786f8d","746006.7999999523","501.59999990463257","88","1","swim","","","","",""
"dual-task","null","null","null","","arctic","arctic","436.8000000715256","","H","null","77","77","1","swim-dual-task","","H","uppercase","760000","0","1","01d92d17ed0ea9d99d2bac6381808c7ee69318be66dd3daf29c6bf4568786f8d","760001.1000000238","436.8000000715256","77","1","swim","","","","",""
"dual-task","null","null","null","","arctic","arctic","542.1000000238419","","q","null","88","88","1","swim-dual-task","","q","lowercase","766000","0","1","01d92d17ed0ea9d99d2bac6381808c7ee69318be66dd3daf29c6bf4568786f8d","766012.3999999762","542.1000000238419","88","1","swim","","","","",""
"dual-task","null","null","null","","arctic","arctic","449.6999999284744","","N","null","77","77","1","swim-dual-task","","N","uppercase","778000","0","1","01d92d17ed0ea9d99d2bac6381808c7ee69318be66dd3daf29c6bf4568786f8d","778015.3999999762","449.6999999284744","77","1","swim","","","","",""
"dual-task","null","null","null","","arctic","arctic","434.89999997615814","","G","null","77","77","1","swim-dual-task","","G","uppercase","788000","0","1","01d92d17ed0ea9d99d2bac6381808c7ee69318be66dd3daf29c6bf4568786f8d","788003.7999999523","434.89999997615814","77","1","swim","","","","",""
"dual-task","null","null","null","","arctic","arctic","540.6000000238419","","a","null","88","88","1","swim-dual-task","","a","lowercase","794000","0","1","01d92d17ed0ea9d99d2bac6381808c7ee69318be66dd3daf29c6bf4568786f8d","794014.6000000238","540.6000000238419","88","1","swim","","","","",""
"audio-keyboard-response","62","2034412","0.0-6.0-2.0-1.0","01d92d17ed0ea9d99d2bac6381808c7ee69318be66dd3daf29c6bf4568786f8d","arctic","arctic","null","","audio/story_swim.mp3","","null","","","","","","","","","","","","","","","","","","","",""
"html-button-response","63","2038238","0.0-6.0-2.0-2.0","01d92d17ed0ea9d99d2bac6381808c7ee69318be66dd3daf29c6bf4568786f8d","arctic","arctic","3825","","<p>This concludes the story. Thank you for listening.</p><p>You will now answer some questions about the content of the story.</p>","0","","","","","","","","","","","","","","","","","","","","",""
"survey-multi-choice","64","2044260","0.0-6.0-2.0-3.0-0.0","01d92d17ed0ea9d99d2bac6381808c7ee69318be66dd3daf29c6bf4568786f8d","arctic","arctic","6021","","<b>What gave the narrator his greatest feeling of accomplishment?</b>","","","","1","swim-comprehension","","","","","","","","","","","","","{""Q0"":""Passing the water survival course""}","","","",""
"survey-multi-choice","65","2050853","0.0-6.0-2.0-3.0-0.1","01d92d17ed0ea9d99d2bac6381808c7ee69318be66dd3daf29c6bf4568786f8d","arctic","arctic","6326","","<b>How many times did the astronaut candidates have to complete the final exercise to pass?</b>","","","","1","swim-comprehension","","","","","","","","","","","","","{""Q0"":""Two""}","","","",""
"survey-multi-choice","66","2055038","0.0-6.0-2.0-3.0-0.2","01d92d17ed0ea9d99d2bac6381808c7ee69318be66dd3daf29c6bf4568786f8d","arctic","arctic","3930","","<b>How many astronaut candidates reported for duty at the Johnson Space Center?</b>","","","","1","swim-comprehension","","","","","","","","","","","","","{""Q0"":""Forty-four""}","","","",""
"survey-multi-choice","67","2059245","0.0-6.0-2.0-3.0-0.3","01d92d17ed0ea9d99d2bac6381808c7ee69318be66dd3daf29c6bf4568786f8d","arctic","arctic","3953","","<b>Where is the home of naval aviation?</b>","","","","1","swim-comprehension","","","","","","","","","","","","","{""Q0"":""Pensacola""}","","","",""
"survey-multi-choice","68","2064375","0.0-6.0-2.0-3.0-0.4","01d92d17ed0ea9d99d2bac6381808c7ee69318be66dd3daf29c6bf4568786f8d","arctic","arctic","4867","","<b>How many astronaut candidates passed the first swim test?</b>","","","","1","swim-comprehension","","","","","","","","","","","","","{""Q0"":""All of them""}","","","",""
"survey-multi-choice","69","2070562","0.0-6.0-2.0-3.0-0.5","01d92d17ed0ea9d99d2bac6381808c7ee69318be66dd3daf29c6bf4568786f8d","arctic","arctic","5933","","<b>What was the final step of the first swim test in the pool?</b>","","","","1","swim-comprehension","","","","","","","","","","","","","{""Q0"":""Tread water with hands above the water""}","","","",""
"survey-multi-choice","70","2081475","0.0-6.0-2.0-3.0-0.6","01d92d17ed0ea9d99d2bac6381808c7ee69318be66dd3daf29c6bf4568786f8d","arctic","arctic","10658","","<b>What were the astronaut candidates trained to do at the naval air station?</b>","","","","1","swim-comprehension","","","","","","","","","","","","","{""Q0"":""Eject out of aircraft and survive in water long enough to be rescued""}","","","",""
"survey-multi-choice","71","2086515","0.0-6.0-2.0-3.0-0.7","01d92d17ed0ea9d99d2bac6381808c7ee69318be66dd3daf29c6bf4568786f8d","arctic","arctic","4784","","<b>How often does the narrator swim, now that he is a good swimmer?</b>","","","","1","swim-comprehension","","","","","","","","","","","","","{""Q0"":""Never swam again in his life""}","","","",""
"survey-multi-choice","72","2092695","0.0-6.0-2.0-3.0-0.8","01d92d17ed0ea9d99d2bac6381808c7ee69318be66dd3daf29c6bf4568786f8d","arctic","arctic","5924","","<b>How did the narrator train for his swim test?</b>","","","","1","swim-comprehension","","","","","","","","","","","","","{""Q0"":""Took his kids to the pool every day""}","","","",""
"survey-multi-choice","73","2097293","0.0-6.0-2.0-3.0-0.9","01d92d17ed0ea9d99d2bac6381808c7ee69318be66dd3daf29c6bf4568786f8d","arctic","arctic","4344","","<b>What is the narrator afraid of, aside from the water?</b>","","","","1","swim-comprehension","","","","","","","","","","","","","{""Q0"":""Heights""}","","","",""
"html-button-response","74","2098957","0.0-6.0-2.0-4.0","01d92d17ed0ea9d99d2bac6381808c7ee69318be66dd3daf29c6bf4568786f8d","arctic","arctic","1412","","<p>Thank you for your responses.</p><p>You will now answer some questions about your impressions of the story.</p>","0","","","","","","","","","","","","","","","","","","","","",""
"html-button-response","75","2101725","0.0-6.0-2.0-5.0-0.0","01d92d17ed0ea9d99d2bac6381808c7ee69318be66dd3daf29c6bf4568786f8d","arctic","arctic","2767","","E10","1","","","","swim-engagement","","","","","","","","","","","","","","2","enjoyment","",""
"html-button-response","76","2104291","0.0-6.0-2.0-5.0-0.1","01d92d17ed0ea9d99d2bac6381808c7ee69318be66dd3daf29c6bf4568786f8d","arctic","arctic","2304","","MS3","5","","","","swim-engagement","","","","","","","","","","","","","","6","mental-sim","",""
"html-button-response","77","2106503","0.0-6.0-2.0-5.0-0.2","01d92d17ed0ea9d99d2bac6381808c7ee69318be66dd3daf29c6bf4568786f8d","arctic","arctic","1960","","A3","2","","","","swim-engagement","","","","","","","","","","","","","","3","absorption","",""
"html-button-response","78","2108505","0.0-6.0-2.0-5.0-0.3","01d92d17ed0ea9d99d2bac6381808c7ee69318be66dd3daf29c6bf4568786f8d","arctic","arctic","1749","","E6","1","","","","swim-engagement","","","","","","","","","","","","","","2","enjoyment","",""
"html-button-response","79","2111752","0.0-6.0-2.0-5.0-0.4","01d92d17ed0ea9d99d2bac6381808c7ee69318be66dd3daf29c6bf4568786f8d","arctic","arctic","2994","","A2","6","","","","swim-engagement","","","","","","","","","","","","","","7","absorption","",""
"html-button-response","80","2114699","0.0-6.0-2.0-5.0-0.5","01d92d17ed0ea9d99d2bac6381808c7ee69318be66dd3daf29c6bf4568786f8d","arctic","arctic","2695","","A1","0","","","","swim-engagement","","","","","","","","","","","","","","1","absorption","",""
"html-button-response","81","2118443","0.0-6.0-2.0-5.0-0.6","01d92d17ed0ea9d99d2bac6381808c7ee69318be66dd3daf29c6bf4568786f8d","arctic","arctic","3475","","EE1","2","","","","swim-engagement","","","","","","","","","","","","","","3","emo-engage","",""
"html-button-response","82","2120572","0.0-6.0-2.0-5.0-0.7","01d92d17ed0ea9d99d2bac6381808c7ee69318be66dd3daf29c6bf4568786f8d","arctic","arctic","1878","","E1","1","","","","swim-engagement","","","","","","","","","","","","","","2","enjoyment","",""
"html-button-response","83","2123439","0.0-6.0-2.0-5.0-0.8","01d92d17ed0ea9d99d2bac6381808c7ee69318be66dd3daf29c6bf4568786f8d","arctic","arctic","2613","","MS1","5","","","","swim-engagement","","","","","","","","","","","","","","6","mental-sim","",""
"html-button-response","84","2125778","0.0-6.0-2.0-5.0-0.9","01d92d17ed0ea9d99d2bac6381808c7ee69318be66dd3daf29c6bf4568786f8d","arctic","arctic","2087","","EE2","0","","","","swim-engagement","","","","","","","","","","","","","","1","emo-engage","",""
"html-button-response","85","2129820","0.0-6.0-2.0-5.0-0.10","01d92d17ed0ea9d99d2bac6381808c7ee69318be66dd3daf29c6bf4568786f8d","arctic","arctic","3790","","A4","1","","","","swim-engagement","","","","","","","","","","","","","","2","absorption","",""
"html-button-response","86","2134230","0.0-6.0-2.0-5.0-0.11","01d92d17ed0ea9d99d2bac6381808c7ee69318be66dd3daf29c6bf4568786f8d","arctic","arctic","4148","","A5","0","","","","swim-engagement","","","","","","","","","","","","","","1","absorption","",""
"html-button-response","87","2136675","0.0-6.0-2.0-5.0-0.12","01d92d17ed0ea9d99d2bac6381808c7ee69318be66dd3daf29c6bf4568786f8d","arctic","arctic","2193","","EE3","0","","","","swim-engagement","","","","","","","","","","","","","","1","emo-engage","",""
"html-button-response","88","2138318","0.0-6.0-2.0-5.0-0.13","01d92d17ed0ea9d99d2bac6381808c7ee69318be66dd3daf29c6bf4568786f8d","arctic","arctic","1388","","E8","0","","","","swim-engagement","","","","","","","","","","","","","","1","enjoyment","",""
"html-button-response","89","2143485","0.0-6.0-2.0-5.0-0.14","01d92d17ed0ea9d99d2bac6381808c7ee69318be66dd3daf29c6bf4568786f8d","arctic","arctic","4914","","MS2","5","","","","swim-engagement","","","","","","","","","","","","","","6","mental-sim","",""
"html-button-response","90","2146831","0.0-6.0-2.0-5.0-0.15","01d92d17ed0ea9d99d2bac6381808c7ee69318be66dd3daf29c6bf4568786f8d","arctic","arctic","3094","","EE4","0","","","","swim-engagement","","","","","","","","","","","","","","1","emo-engage","",""
"html-button-response","91","2149163","0.0-6.0-2.0-5.0-0.16","01d92d17ed0ea9d99d2bac6381808c7ee69318be66dd3daf29c6bf4568786f8d","arctic","arctic","2079","","E7","2","","","","swim-engagement","","","","","","","","","","","","","","3","enjoyment","",""
"html-button-response","92","2151292","0.0-6.0-2.0-5.0-0.17","01d92d17ed0ea9d99d2bac6381808c7ee69318be66dd3daf29c6bf4568786f8d","arctic","arctic","1878","","EE5","0","","","","swim-engagement","","","","","","","","","","","","","","1","emo-engage","",""
"html-button-response","93","2152966","0.0-8.0","01d92d17ed0ea9d99d2bac6381808c7ee69318be66dd3daf29c6bf4568786f8d","arctic","arctic","1422","","<p>Thank you for your responses.</p><p>You will now answer some demographic, hearing, and general health questions.</p>","0","","","","","","","","","","","","","","","","","","","","",""
"survey-multi-choice","94","2156603","0.0-9.0-0.0","01d92d17ed0ea9d99d2bac6381808c7ee69318be66dd3daf29c6bf4568786f8d","arctic","arctic","3635","","","","","","","survey","","","","","","","","","","","","","{""Q0"":""Chrome""}","","","browser",""
"survey-text","95","2160053","0.0-9.0-1.0","01d92d17ed0ea9d99d2bac6381808c7ee69318be66dd3daf29c6bf4568786f8d","arctic","arctic","3194.5","","","","","","","survey","","","","","","","","","","","","","{""AGE"":""39""}","","","age","39"
"survey-multi-choice","96","2162536","0.0-9.0-2.0","01d92d17ed0ea9d99d2bac6381808c7ee69318be66dd3daf29c6bf4568786f8d","arctic","arctic","2230","","","","","","","survey","","","","","","","","","","","","","{""Q0"":""Male""}","","","gender","Male"
"survey-multi-choice","97","2164433","0.0-9.0-4.0","01d92d17ed0ea9d99d2bac6381808c7ee69318be66dd3daf29c6bf4568786f8d","arctic","arctic","1644","","","","","","","survey","","","","","","","","","","","","","{""Q0"":""Right""}","","","handedness","Right"
"survey-multi-choice","98","2167538","0.0-9.0-5.0","01d92d17ed0ea9d99d2bac6381808c7ee69318be66dd3daf29c6bf4568786f8d","arctic","arctic","2852","","","","","","","survey","","","","","","","","","","","","","{""Q0"":""Bachelor's Degree""}","","","education","Bachelor's Degree"
"survey-text","99","2171363","0.0-10.0-0.0","01d92d17ed0ea9d99d2bac6381808c7ee69318be66dd3daf29c6bf4568786f8d","arctic","arctic","3570.6999999284744","","","","","","","survey","","","","","","","","","","","","","{""L1"":""English""}","","","first-language","English"
"survey-text","100","2181526","0.0-10.0-1.0","01d92d17ed0ea9d99d2bac6381808c7ee69318be66dd3daf29c6bf4568786f8d","arctic","arctic","9906.600000023842","","","","","","","survey","","","","","","","","","","","","","{""L2name"":""Spanish"",""L2fluency"":""5"",""L3name"":"""",""L3fluency"":"""",""L4name"":"""",""L4fluency"":""""}","","","additional-languages","{""L2name"":""Spanish"",""L2fluency"":""5"",""L3name"":"""",""L3fluency"":"""",""L4name"":"""",""L4fluency"":""""}"
"survey-multi-choice","101","2183887","0.0-10.0-2.0","01d92d17ed0ea9d99d2bac6381808c7ee69318be66dd3daf29c6bf4568786f8d","arctic","arctic","2108","","","","","","","survey","","","","","","","","","","","","","{""Q0"":""No""}","","","hearing-aid","No"
"survey-multi-choice","102","2186903","0.0-10.0-3.0","01d92d17ed0ea9d99d2bac6381808c7ee69318be66dd3daf29c6bf4568786f8d","arctic","arctic","2760","","","","","","","survey","","","","","","","","","","","","","{""Q0"":""Never""}","","","ringing-ears","Never"
"survey-multi-choice","103","2189430","0.0-10.0-5.0","01d92d17ed0ea9d99d2bac6381808c7ee69318be66dd3daf29c6bf4568786f8d","arctic","arctic","2273","","","","","","","survey","","","","","","","","","","","","","{""Q0"":""No""}","","","neuro-disease","No"
"survey-multi-choice","104","2193218","0.0-10.0-7.0","01d92d17ed0ea9d99d2bac6381808c7ee69318be66dd3daf29c6bf4568786f8d","arctic","arctic","3535","","","","","","","survey","","","","","","","","","","","","","{""Q0"":""No""}","","","take-meds","No"
"survey-text","105","2196046","0.0-10.0-9.0","01d92d17ed0ea9d99d2bac6381808c7ee69318be66dd3daf29c6bf4568786f8d","arctic","arctic","2567.2000000476837","","","","","","","survey","","","","","","","","","","","","","{""HC"":""""}","","","health-concerns",""
"html-button-response","106","2199901","0.0-11.0-0.0","01d92d17ed0ea9d99d2bac6381808c7ee69318be66dd3daf29c6bf4568786f8d","arctic","arctic","3601","","<p>How would you describe your musical skills/experiences?</p>","2","","","","survey","","","","","","","","","","","","","","","","music-skill","3"
"survey-multi-choice","107","2202045","0.0-11.0-1.0","01d92d17ed0ea9d99d2bac6381808c7ee69318be66dd3daf29c6bf4568786f8d","arctic","arctic","1889","","","","","","","survey","","","","","","","","","","","","","{""Q0"":""Yes""}","","","music-instrument","Yes"
"survey-text","108","2206919","0.0-11.0-2.0-0.0","01d92d17ed0ea9d99d2bac6381808c7ee69318be66dd3daf29c6bf4568786f8d","arctic","arctic","4620.899999976158","","","","","","","survey","","","","","","","","","","","","","{""MEXP"":""14""}","","","music-training-yrs","14"
"html-button-response","109","2209725","0.0-12.0-0.0","01d92d17ed0ea9d99d2bac6381808c7ee69318be66dd3daf29c6bf4568786f8d","arctic","arctic","2554","","<p>How would you describe your general hearing abilities?</p>","5","","","","survey","","","","","","","","","","","","","","","","ssq-01","6"
"html-button-response","110","2215013","0.0-12.0-1.0","01d92d17ed0ea9d99d2bac6381808c7ee69318be66dd3daf29c6bf4568786f8d","arctic","arctic","5035","","<p>When you talk with someone at a place that strongly reverberates/echoes (e.g., in a church or train station),</br>can you understand what the person says?</p>","10","","","","survey","","","","","","","","","","","","","","","","ssq-02","10"
"html-button-response","111","2217526","0.0-12.0-2.0","01d92d17ed0ea9d99d2bac6381808c7ee69318be66dd3daf29c6bf4568786f8d","arctic","arctic","2260","","<p>When you are with a group (~5 people) in a lively restaurant, can you follow the group's conversation?</p>","10","","","","survey","","","","","","","","","","","","","","","","ssq-03","10"
"html-button-response","112","2223870","0.0-12.0-3.0","01d92d17ed0ea9d99d2bac6381808c7ee69318be66dd3daf29c6bf4568786f8d","arctic","arctic","6092","","<p>Based on the sound of a bus or truck, can you tell whether it is moving towards or away from you?</p>","9","","","","survey","","","","","","","","","","","","","","","","ssq-04","9"
"html-button-response","113","2228865","0.0-12.0-4.0","01d92d17ed0ea9d99d2bac6381808c7ee69318be66dd3daf29c6bf4568786f8d","arctic","arctic","4732","","<p>When you are in an unknown environment, can you tell from which direction a brief sound originates?</p>","8","","","","survey","","","","","","","","","","","","","","","","ssq-05","8"
"html-button-response","114","2232983","0.0-12.0-5.0","01d92d17ed0ea9d99d2bac6381808c7ee69318be66dd3daf29c6bf4568786f8d","arctic","arctic","3866","","<p>Are you able to ignore distracting sounds when you concentrate on a specific aspect of your acoustic surrounding?</p>","9","","","","survey","","","","","","","","","","","","","","","","ssq-06","9"
"fullscreen","115","2234236","0.0-13.0","01d92d17ed0ea9d99d2bac6381808c7ee69318be66dd3daf29c6bf4568786f8d","arctic","arctic","","","","","","","","","true","","","","","","","","","","","","","","","",""
