"trial_type","trial_index","time_elapsed","internal_node_id","ParticipantID","firstStory","scramStory","rt","url","stimulus","button_pressed","key_press","correctRESP","correct","designation","success","letterStim","letterType","ONSET","TIMEOUT","CONDITION","Participant","ONSET_ACTUAL","RT","RESP","ACC","STORY","responses","response","type","surveyQuestion","QRESP"
"pavlovia","0","4","0.0-0.0","01d92d17ed0ea9d99d2bac6381808c7ee69318be66dd3daf29c6bf4568786f8d","arctic","arctic","","","","","","","","","","","","","","","","","","","","","","","","",""
"external-html","1","1501","0.0-1.0","01d92d17ed0ea9d99d2bac6381808c7ee69318be66dd3daf29c6bf4568786f8d","arctic","arctic","1466","consent/consent_updated.html","","","","","","","","","","","","","","","","","","","","","","",""
"html-button-response","2","2283","0.0-2.0-0.0","01d92d17ed0ea9d99d2bac6381808c7ee69318be66dd3daf29c6bf4568786f8d","arctic","arctic","781","","<p>Before we begin the main task, you will complete a short volume calibration and headphone check.</p><p>Please make sure you are in a quiet listening environment, that you are wearing headphones, and that your computer's volume is turned on.<p></p>","0","","","","","","","","","","","","","","","","","","","","",""
"html-button-response","3","2931","0.0-2.0-1.0","01d92d17ed0ea9d99d2bac6381808c7ee69318be66dd3daf29c6bf4568786f8d","arctic","arctic","390","","<p>The volume calibration will be first.</p><p>You will hear a thirty-second noise. Please adjust your computer's volume so that this noise is being presented at a comfortable level.<p></p>","0","","","","","","","","","","","","","","","","","","","","",""
"audio-button-response","4","3715","0.0-2.0-2.0","01d92d17ed0ea9d99d2bac6381808c7ee69318be66dd3daf29c6bf4568786f8d","arctic","arctic","528","","audio/volumetest.mp3","0","","","","","","","","","","","","","","","","","","","","",""
"html-keyboard-response","5","5069","0.0-3.0-0.0","01d92d17ed0ea9d99d2bac6381808c7ee69318be66dd3daf29c6bf4568786f8d","arctic","arctic","1353","","<p>You will now complete a short headphone check.</p><p>On each trial, you will hear three tones. One of these tones will be quieter than the others. Your task is to identify whether the quiet tone occurred first, second, or third.</p><p>There are six trials in total.<p></p><p></p>(Press SPACEBAR to begin)","","32","","","","","","","","","","","","","","","","","","","",""
"html-keyboard-response","6","5821","0.0-3.0-1.0-0.0","01d92d17ed0ea9d99d2bac6381808c7ee69318be66dd3daf29c6bf4568786f8d","arctic","arctic","null","","<div style=""font-size:60px;"">+</div>","","null","","","","","","","","","","","","","","","","","","","",""
"audio-button-response","7","10253","0.0-3.0-1.0-1.0","01d92d17ed0ea9d99d2bac6381808c7ee69318be66dd3daf29c6bf4568786f8d","arctic","arctic","4430","","audio/t1_2.mp3","0","","0","1","headphone-test","","","","","","","","","","","","","","","","",""
"html-keyboard-response","8","10764","0.0-3.0-1.0-2.0","01d92d17ed0ea9d99d2bac6381808c7ee69318be66dd3daf29c6bf4568786f8d","arctic","arctic","null","","<p>Correct</p>","","null","","","","","","","","","","","","","","","","","","","",""
"html-keyboard-response","9","11269","0.0-3.0-1.0-0.1","01d92d17ed0ea9d99d2bac6381808c7ee69318be66dd3daf29c6bf4568786f8d","arctic","arctic","null","","<div style=""font-size:60px;"">+</div>","","null","","","","","","","","","","","","","","","","","","","",""
"audio-button-response","10","15701","0.0-3.0-1.0-1.1","01d92d17ed0ea9d99d2bac6381808c7ee69318be66dd3daf29c6bf4568786f8d","arctic","arctic","4431","","audio/t2_1.mp3","1","","1","1","headphone-test","","","","","","","","","","","","","","","","",""
"html-keyboard-response","11","16209","0.0-3.0-1.0-2.1","01d92d17ed0ea9d99d2bac6381808c7ee69318be66dd3daf29c6bf4568786f8d","arctic","arctic","null","","<p>Correct</p>","","null","","","","","","","","","","","","","","","","","","","",""
"html-keyboard-response","12","16716","0.0-3.0-1.0-0.2","01d92d17ed0ea9d99d2bac6381808c7ee69318be66dd3daf29c6bf4568786f8d","arctic","arctic","null","","<div style=""font-size:60px;"">+</div>","","null","","","","","","","","","","","","","","","","","","","",""
"audio-button-response","13","21573","0.0-3.0-1.0-1.2","01d92d17ed0ea9d99d2bac6381808c7ee69318be66dd3daf29c6bf4568786f8d","arctic","arctic","4855","","audio/t3_2.mp3","2","","2","1","headphone-test","","","","","","","","","","","","","","","","",""
"html-keyboard-response","14","22082","0.0-3.0-1.0-2.2","01d92d17ed0ea9d99d2bac6381808c7ee69318be66dd3daf29c6bf4568786f8d","arctic","arctic","null","","<p>Correct</p>","","null","","","","","","","","","","","","","","","","","","","",""
"html-keyboard-response","15","22583","0.0-3.0-1.0-0.3","01d92d17ed0ea9d99d2bac6381808c7ee69318be66dd3daf29c6bf4568786f8d","arctic","arctic","null","","<div style=""font-size:60px;"">+</div>","","null","","","","","","","","","","","","","","","","","","","",""
"audio-button-response","16","27197","0.0-3.0-1.0-1.3","01d92d17ed0ea9d99d2bac6381808c7ee69318be66dd3daf29c6bf4568786f8d","arctic","arctic","4613","","audio/t2_2.mp3","0","","1","0","headphone-test","","","","","","","","","","","","","","","","",""
"html-keyboard-response","17","27699","0.0-3.0-1.0-2.3","01d92d17ed0ea9d99d2bac6381808c7ee69318be66dd3daf29c6bf4568786f8d","arctic","arctic","null","","<p>Incorrect</p>","","null","","","","","","","","","","","","","","","","","","","",""
"html-keyboard-response","18","28204","0.0-3.0-1.0-0.4","01d92d17ed0ea9d99d2bac6381808c7ee69318be66dd3daf29c6bf4568786f8d","arctic","arctic","null","","<div style=""font-size:60px;"">+</div>","","null","","","","","","","","","","","","","","","","","","","",""
"audio-button-response","19","32685","0.0-3.0-1.0-1.4","01d92d17ed0ea9d99d2bac6381808c7ee69318be66dd3daf29c6bf4568786f8d","arctic","arctic","4480","","audio/t3_1.mp3","2","","2","1","headphone-test","","","","","","","","","","","","","","","","",""
"html-keyboard-response","20","33187","0.0-3.0-1.0-2.4","01d92d17ed0ea9d99d2bac6381808c7ee69318be66dd3daf29c6bf4568786f8d","arctic","arctic","null","","<p>Correct</p>","","null","","","","","","","","","","","","","","","","","","","",""
"html-keyboard-response","21","33691","0.0-3.0-1.0-0.5","01d92d17ed0ea9d99d2bac6381808c7ee69318be66dd3daf29c6bf4568786f8d","arctic","arctic","null","","<div style=""font-size:60px;"">+</div>","","null","","","","","","","","","","","","","","","","","","","",""
"audio-button-response","22","38420","0.0-3.0-1.0-1.5","01d92d17ed0ea9d99d2bac6381808c7ee69318be66dd3daf29c6bf4568786f8d","arctic","arctic","4726","","audio/t1_1.mp3","2","","0","0","headphone-test","","","","","","","","","","","","","","","","",""
"html-keyboard-response","23","38924","0.0-3.0-1.0-2.5","01d92d17ed0ea9d99d2bac6381808c7ee69318be66dd3daf29c6bf4568786f8d","arctic","arctic","null","","<p>Incorrect</p>","","null","","","","","","","","","","","","","","","","","","","",""
"fullscreen","24","41732","0.0-4.0","01d92d17ed0ea9d99d2bac6381808c7ee69318be66dd3daf29c6bf4568786f8d","arctic","arctic","","","","","","","","","true","","","","","","","","","","","","","","","",""
"html-button-response","25","109133","0.0-5.0-0.0","01d92d17ed0ea9d99d2bac6381808c7ee69318be66dd3daf29c6bf4568786f8d","arctic","arctic","67400","","<p>There are two blocks to this experiment.</p><p>In each block, you will hear a ~13.5 minute story. One of the stories will be scrambled. Please listen carefully to both stories and understand them as best you can.</p><p>After each story, you will be asked some questions to assess your comprehension.</p>","0","","","","","","","","","","","","","","","","","","","","",""
"html-button-response","26","127284","0.0-5.0-1.0","01d92d17ed0ea9d99d2bac6381808c7ee69318be66dd3daf29c6bf4568786f8d","arctic","arctic","18150","","<p>During each story, there will be an additional task.</p><p>A letter will occasionally appear on the screen.</br>Your job is to - as quickly as you can - decide whether the letter is lowercase or uppercase and press one of two keys on the keyboard:</p><p>If the letter is <b>lowercase</b>, press key &lt;<b>x</b>&gt;.</p><p>If the letter is <b>uppercase</b>, press key &lt;<b>m</b>&gt;.</p>","0","","","","","","","","","","","","","","","","","","","","",""
"html-keyboard-response","27","133669","0.0-5.0-2.0","01d92d17ed0ea9d99d2bac6381808c7ee69318be66dd3daf29c6bf4568786f8d","arctic","arctic","6385","","<p>Because we want your responses to be as quick as possible, please keep your index fingers over the keys while listening.</p><p>Each block lasts about 20 minutes.</p><p><b>Press &lt;x&gt; or &lt;m&gt; to start the first block!</b></p>","","88","","","","","","","","","","","","","","","","","","","",""
"html-keyboard-response","28","134171","0.0-6.0-0.0-0.0","01d92d17ed0ea9d99d2bac6381808c7ee69318be66dd3daf29c6bf4568786f8d","arctic","arctic","null","","<div style=""font-size:60px;"" tabindex=""0"">+</div>","","null","","","","","","","","","","","","","","","","","","","",""
"dual-task","null","null","null","","arctic","arctic","603.1000003814697","","F","null","77","77","1","arctic-dual-task","","F","uppercase","18000","0","5","01d92d17ed0ea9d99d2bac6381808c7ee69318be66dd3daf29c6bf4568786f8d","18004.099999904633","603.1000003814697","77","1","arctic","","","","",""
"dual-task","null","null","null","","arctic","arctic","537.7000002861023","","a","null","88","88","1","arctic-dual-task","","a","lowercase","32000","0","5","01d92d17ed0ea9d99d2bac6381808c7ee69318be66dd3daf29c6bf4568786f8d","32005.299999713898","537.7000002861023","88","1","arctic","","","","",""
"dual-task","null","null","null","","arctic","arctic","597.4000000953674","","t","null","88","88","1","arctic-dual-task","","t","lowercase","42000","0","5","01d92d17ed0ea9d99d2bac6381808c7ee69318be66dd3daf29c6bf4568786f8d","42008.5","597.4000000953674","88","1","arctic","","","","",""
"dual-task","null","null","null","","arctic","arctic","560.3000001907349","","H","null","77","77","1","arctic-dual-task","","H","uppercase","56000","0","5","01d92d17ed0ea9d99d2bac6381808c7ee69318be66dd3daf29c6bf4568786f8d","56006","560.3000001907349","77","1","arctic","","","","",""
"dual-task","null","null","null","","arctic","arctic","546.0999999046326","","f","null","88","88","1","arctic-dual-task","","f","lowercase","68000","0","5","01d92d17ed0ea9d99d2bac6381808c7ee69318be66dd3daf29c6bf4568786f8d","68004","546.0999999046326","88","1","arctic","","","","",""
"dual-task","null","null","null","","arctic","arctic","461.2999997138977","","r","null","88","88","1","arctic-dual-task","","r","lowercase","82000","0","5","01d92d17ed0ea9d99d2bac6381808c7ee69318be66dd3daf29c6bf4568786f8d","81999.69999980927","461.2999997138977","88","1","arctic","","","","",""
"dual-task","null","null","null","","arctic","arctic","389","","R","null","88","77","0","arctic-dual-task","","R","uppercase","88000","0","5","01d92d17ed0ea9d99d2bac6381808c7ee69318be66dd3daf29c6bf4568786f8d","87999.5","389","88","0","arctic","","","","",""
"dual-task","null","null","null","","arctic","arctic","525.6999998092651","","N","null","77","77","1","arctic-dual-task","","N","uppercase","100000","0","5","01d92d17ed0ea9d99d2bac6381808c7ee69318be66dd3daf29c6bf4568786f8d","99999.2999997139","525.6999998092651","77","1","arctic","","","","",""
"dual-task","null","null","null","","arctic","arctic","516.5","","R","null","77","77","1","arctic-dual-task","","R","uppercase","108000","0","5","01d92d17ed0ea9d99d2bac6381808c7ee69318be66dd3daf29c6bf4568786f8d","107999.19999980927","516.5","77","1","arctic","","","","",""
"dual-task","null","null","null","","arctic","arctic","492.90000009536743","","h","null","88","88","1","arctic-dual-task","","h","lowercase","116000","0","5","01d92d17ed0ea9d99d2bac6381808c7ee69318be66dd3daf29c6bf4568786f8d","115999.19999980927","492.90000009536743","88","1","arctic","","","","",""
"dual-task","null","null","null","","arctic","arctic","458.7999997138977","","q","null","88","88","1","arctic-dual-task","","q","lowercase","124000","0","5","01d92d17ed0ea9d99d2bac6381808c7ee69318be66dd3daf29c6bf4568786f8d","124008.2999997139","458.7999997138977","88","1","arctic","","","","",""
"dual-task","null","null","null","","arctic","arctic","522.5999999046326","","F","null","77","77","1","arctic-dual-task","","F","uppercase","134000","0","5","01d92d17ed0ea9d99d2bac6381808c7ee69318be66dd3daf29c6bf4568786f8d","134001","522.5999999046326","77","1","arctic","","","","",""
"dual-task","null","null","null","","arctic","arctic","453.7999997138977","","H","null","77","77","1","arctic-dual-task","","H","uppercase","144000","0","5","01d92d17ed0ea9d99d2bac6381808c7ee69318be66dd3daf29c6bf4568786f8d","144004.90000009537","453.7999997138977","77","1","arctic","","","","",""
"dual-task","null","null","null","","arctic","arctic","530.1999998092651","","T","null","77","77","1","arctic-dual-task","","T","uppercase","150000","0","5","01d92d17ed0ea9d99d2bac6381808c7ee69318be66dd3daf29c6bf4568786f8d","150000.7999997139","530.1999998092651","77","1","arctic","","","","",""
"dual-task","null","null","null","","arctic","arctic","512.5","","Q","null","77","77","1","arctic-dual-task","","Q","uppercase","160000","0","5","01d92d17ed0ea9d99d2bac6381808c7ee69318be66dd3daf29c6bf4568786f8d","160001.90000009537","512.5","77","1","arctic","","","","",""
"dual-task","null","null","null","","arctic","arctic","557.7999997138977","","A","null","77","77","1","arctic-dual-task","","A","uppercase","170000","0","5","01d92d17ed0ea9d99d2bac6381808c7ee69318be66dd3daf29c6bf4568786f8d","170004.40000009537","557.7999997138977","77","1","arctic","","","","",""
"dual-task","null","null","null","","arctic","arctic","1326.2999997138977","","N","null","77","77","1","arctic-dual-task","","N","uppercase","176000","0","5","01d92d17ed0ea9d99d2bac6381808c7ee69318be66dd3daf29c6bf4568786f8d","176003.40000009537","1326.2999997138977","77","1","arctic","","","","",""
"dual-task","null","null","null","","arctic","arctic","553.4000000953674","","a","null","88","88","1","arctic-dual-task","","a","lowercase","188000","0","5","01d92d17ed0ea9d99d2bac6381808c7ee69318be66dd3daf29c6bf4568786f8d","188000.19999980927","553.4000000953674","88","1","arctic","","","","",""
"dual-task","null","null","null","","arctic","arctic","525.9000000953674","","A","null","77","77","1","arctic-dual-task","","A","uppercase","194000","0","5","01d92d17ed0ea9d99d2bac6381808c7ee69318be66dd3daf29c6bf4568786f8d","194003.19999980927","525.9000000953674","77","1","arctic","","","","",""
"dual-task","null","null","null","","arctic","arctic","387.2999997138977","","G","null","77","77","1","arctic-dual-task","","G","uppercase","204000","0","5","01d92d17ed0ea9d99d2bac6381808c7ee69318be66dd3daf29c6bf4568786f8d","204006","387.2999997138977","77","1","arctic","","","","",""
"dual-task","null","null","null","","arctic","arctic","492.2999997138977","","n","null","88","88","1","arctic-dual-task","","n","lowercase","214000","0","5","01d92d17ed0ea9d99d2bac6381808c7ee69318be66dd3daf29c6bf4568786f8d","214004.7999997139","492.2999997138977","88","1","arctic","","","","",""
"dual-task","null","null","null","","arctic","arctic","500.2000002861023","","t","null","88","88","1","arctic-dual-task","","t","lowercase","224000","0","5","01d92d17ed0ea9d99d2bac6381808c7ee69318be66dd3daf29c6bf4568786f8d","224004.69999980927","500.2000002861023","88","1","arctic","","","","",""
"dual-task","null","null","null","","arctic","arctic","499","","f","null","77","88","0","arctic-dual-task","","f","lowercase","230000","0","5","01d92d17ed0ea9d99d2bac6381808c7ee69318be66dd3daf29c6bf4568786f8d","230004.59999990463","499","77","0","arctic","","","","",""
"dual-task","null","null","null","","arctic","arctic","592.5","","e","null","88","88","1","arctic-dual-task","","e","lowercase","244000","0","5","01d92d17ed0ea9d99d2bac6381808c7ee69318be66dd3daf29c6bf4568786f8d","243999.59999990463","592.5","88","1","arctic","","","","",""
"dual-task","null","null","null","","arctic","arctic","456.2999997138977","","D","null","77","77","1","arctic-dual-task","","D","uppercase","258000","0","5","01d92d17ed0ea9d99d2bac6381808c7ee69318be66dd3daf29c6bf4568786f8d","257999.5","456.2999997138977","77","1","arctic","","","","",""
"dual-task","null","null","null","","arctic","arctic","818.0999999046326","","d","null","88","88","1","arctic-dual-task","","d","lowercase","266000","0","5","01d92d17ed0ea9d99d2bac6381808c7ee69318be66dd3daf29c6bf4568786f8d","266004.2999997139","818.0999999046326","88","1","arctic","","","","",""
"dual-task","null","null","null","","arctic","arctic","568.8000001907349","","F","null","77","77","1","arctic-dual-task","","F","uppercase","276000","0","5","01d92d17ed0ea9d99d2bac6381808c7ee69318be66dd3daf29c6bf4568786f8d","276006.19999980927","568.8000001907349","77","1","arctic","","","","",""
"dual-task","null","null","null","","arctic","arctic","522.5999999046326","","r","null","88","88","1","arctic-dual-task","","r","lowercase","290000","0","5","01d92d17ed0ea9d99d2bac6381808c7ee69318be66dd3daf29c6bf4568786f8d","290004","522.5999999046326","88","1","arctic","","","","",""
"dual-task","null","null","null","","arctic","arctic","610","","n","null","88","88","1","arctic-dual-task","","n","lowercase","298000","0","5","01d92d17ed0ea9d99d2bac6381808c7ee69318be66dd3daf29c6bf4568786f8d","298003.90000009537","610","88","1","arctic","","","","",""
"dual-task","null","null","null","","arctic","arctic","498.1000003814697","","D","null","77","77","1","arctic-dual-task","","D","uppercase","306000","0","5","01d92d17ed0ea9d99d2bac6381808c7ee69318be66dd3daf29c6bf4568786f8d","306003.69999980927","498.1000003814697","77","1","arctic","","","","",""
"dual-task","null","null","null","","arctic","arctic","623.3000001907349","","r","null","88","88","1","arctic-dual-task","","r","lowercase","316000","0","5","01d92d17ed0ea9d99d2bac6381808c7ee69318be66dd3daf29c6bf4568786f8d","316006.5","623.3000001907349","88","1","arctic","","","","",""
"dual-task","null","null","null","","arctic","arctic","614","","h","null","88","88","1","arctic-dual-task","","h","lowercase","328000","0","5","01d92d17ed0ea9d99d2bac6381808c7ee69318be66dd3daf29c6bf4568786f8d","327999.5","614","88","1","arctic","","","","",""
"dual-task","null","null","null","","arctic","arctic","526.7000002861023","","g","null","88","88","1","arctic-dual-task","","g","lowercase","342000","0","5","01d92d17ed0ea9d99d2bac6381808c7ee69318be66dd3daf29c6bf4568786f8d","342006.19999980927","526.7000002861023","88","1","arctic","","","","",""
"dual-task","null","null","null","","arctic","arctic","538.3000001907349","","A","null","77","77","1","arctic-dual-task","","A","uppercase","354000","0","5","01d92d17ed0ea9d99d2bac6381808c7ee69318be66dd3daf29c6bf4568786f8d","354002.19999980927","538.3000001907349","77","1","arctic","","","","",""
"dual-task","null","null","null","","arctic","arctic","572.7000002861023","","f","null","88","88","1","arctic-dual-task","","f","lowercase","364000","0","5","01d92d17ed0ea9d99d2bac6381808c7ee69318be66dd3daf29c6bf4568786f8d","364007.2999997139","572.7000002861023","88","1","arctic","","","","",""
"dual-task","null","null","null","","arctic","arctic","510.09999990463257","","G","null","77","77","1","arctic-dual-task","","G","uppercase","372000","0","5","01d92d17ed0ea9d99d2bac6381808c7ee69318be66dd3daf29c6bf4568786f8d","372005.09999990463","510.09999990463257","77","1","arctic","","","","",""
"dual-task","null","null","null","","arctic","arctic","567.8000001907349","","e","null","88","88","1","arctic-dual-task","","e","lowercase","378000","0","5","01d92d17ed0ea9d99d2bac6381808c7ee69318be66dd3daf29c6bf4568786f8d","378003.19999980927","567.8000001907349","88","1","arctic","","","","",""
"dual-task","null","null","null","","arctic","arctic","470.59999990463257","","n","null","88","88","1","arctic-dual-task","","n","lowercase","388000","0","5","01d92d17ed0ea9d99d2bac6381808c7ee69318be66dd3daf29c6bf4568786f8d","388004","470.59999990463257","88","1","arctic","","","","",""
"dual-task","null","null","null","","arctic","arctic","646","","T","null","77","77","1","arctic-dual-task","","T","uppercase","394000","0","5","01d92d17ed0ea9d99d2bac6381808c7ee69318be66dd3daf29c6bf4568786f8d","394004.90000009537","646","77","1","arctic","","","","",""
"dual-task","null","null","null","","arctic","arctic","594.1000003814697","","N","null","77","77","1","arctic-dual-task","","N","uppercase","406000","0","5","01d92d17ed0ea9d99d2bac6381808c7ee69318be66dd3daf29c6bf4568786f8d","406008.7999997139","594.1000003814697","77","1","arctic","","","","",""
"dual-task","null","null","null","","arctic","arctic","522.3000001907349","","B","null","77","77","1","arctic-dual-task","","B","uppercase","412000","0","5","01d92d17ed0ea9d99d2bac6381808c7ee69318be66dd3daf29c6bf4568786f8d","411999.59999990463","522.3000001907349","77","1","arctic","","","","",""
"dual-task","null","null","null","","arctic","arctic","574.2000002861023","","a","null","88","88","1","arctic-dual-task","","a","lowercase","426000","0","5","01d92d17ed0ea9d99d2bac6381808c7ee69318be66dd3daf29c6bf4568786f8d","426003.59999990463","574.2000002861023","88","1","arctic","","","","",""
"dual-task","null","null","null","","arctic","arctic","625.1999998092651","","t","null","88","88","1","arctic-dual-task","","t","lowercase","438000","0","5","01d92d17ed0ea9d99d2bac6381808c7ee69318be66dd3daf29c6bf4568786f8d","438000.40000009537","625.1999998092651","88","1","arctic","","","","",""
"dual-task","null","null","null","","arctic","arctic","477.59999990463257","","T","null","77","77","1","arctic-dual-task","","T","uppercase","450000","0","5","01d92d17ed0ea9d99d2bac6381808c7ee69318be66dd3daf29c6bf4568786f8d","450011.09999990463","477.59999990463257","77","1","arctic","","","","",""
"dual-task","null","null","null","","arctic","arctic","568.7000002861023","","g","null","77","88","0","arctic-dual-task","","g","lowercase","462000","0","5","01d92d17ed0ea9d99d2bac6381808c7ee69318be66dd3daf29c6bf4568786f8d","462000.19999980927","568.7000002861023","77","0","arctic","","","","",""
"dual-task","null","null","null","","arctic","arctic","608.4000000953674","","D","null","77","77","1","arctic-dual-task","","D","uppercase","474000","0","5","01d92d17ed0ea9d99d2bac6381808c7ee69318be66dd3daf29c6bf4568786f8d","474000.19999980927","608.4000000953674","77","1","arctic","","","","",""
"dual-task","null","null","null","","arctic","arctic","613.5","","h","null","88","88","1","arctic-dual-task","","h","lowercase","482000","0","5","01d92d17ed0ea9d99d2bac6381808c7ee69318be66dd3daf29c6bf4568786f8d","482002.19999980927","613.5","88","1","arctic","","","","",""
"dual-task","null","null","null","","arctic","arctic","535.4000000953674","","d","null","88","88","1","arctic-dual-task","","d","lowercase","488000","0","5","01d92d17ed0ea9d99d2bac6381808c7ee69318be66dd3daf29c6bf4568786f8d","488000.2999997139","535.4000000953674","88","1","arctic","","","","",""
"dual-task","null","null","null","","arctic","arctic","1047.0999999046326","","E","null","77","77","1","arctic-dual-task","","E","uppercase","494000","0","5","01d92d17ed0ea9d99d2bac6381808c7ee69318be66dd3daf29c6bf4568786f8d","494000","1047.0999999046326","77","1","arctic","","","","",""
"dual-task","null","null","null","","arctic","arctic","743.3999996185303","","N","null","77","77","1","arctic-dual-task","","N","uppercase","500000","0","5","01d92d17ed0ea9d99d2bac6381808c7ee69318be66dd3daf29c6bf4568786f8d","499999.90000009537","743.3999996185303","77","1","arctic","","","","",""
"dual-task","null","null","null","","arctic","arctic","532.8000001907349","","e","null","88","88","1","arctic-dual-task","","e","lowercase","508000","0","5","01d92d17ed0ea9d99d2bac6381808c7ee69318be66dd3daf29c6bf4568786f8d","508001.90000009537","532.8000001907349","88","1","arctic","","","","",""
"dual-task","null","null","null","","arctic","arctic","479.1000003814697","","Q","null","77","77","1","arctic-dual-task","","Q","uppercase","522000","0","5","01d92d17ed0ea9d99d2bac6381808c7ee69318be66dd3daf29c6bf4568786f8d","521999.7999997139","479.1000003814697","77","1","arctic","","","","",""
"dual-task","null","null","null","","arctic","arctic","658.7999997138977","","e","null","88","88","1","arctic-dual-task","","e","lowercase","534000","0","5","01d92d17ed0ea9d99d2bac6381808c7ee69318be66dd3daf29c6bf4568786f8d","534003.4000000954","658.7999997138977","88","1","arctic","","","","",""
"dual-task","null","null","null","","arctic","arctic","489.5","","Q","null","77","77","1","arctic-dual-task","","Q","uppercase","546000","0","5","01d92d17ed0ea9d99d2bac6381808c7ee69318be66dd3daf29c6bf4568786f8d","546004.1999998093","489.5","77","1","arctic","","","","",""
"dual-task","null","null","null","","arctic","arctic","605","","r","null","88","88","1","arctic-dual-task","","r","lowercase","560000","0","5","01d92d17ed0ea9d99d2bac6381808c7ee69318be66dd3daf29c6bf4568786f8d","560000.1999998093","605","88","1","arctic","","","","",""
"dual-task","null","null","null","","arctic","arctic","441.80000019073486","","G","null","77","77","1","arctic-dual-task","","G","uppercase","574000","0","5","01d92d17ed0ea9d99d2bac6381808c7ee69318be66dd3daf29c6bf4568786f8d","574002.9000000954","441.80000019073486","77","1","arctic","","","","",""
"dual-task","null","null","null","","arctic","arctic","505.2999997138977","","b","null","88","88","1","arctic-dual-task","","b","lowercase","588000","0","5","01d92d17ed0ea9d99d2bac6381808c7ee69318be66dd3daf29c6bf4568786f8d","588004.9000000954","505.2999997138977","88","1","arctic","","","","",""
"dual-task","null","null","null","","arctic","arctic","528.8000001907349","","H","null","77","77","1","arctic-dual-task","","H","uppercase","602000","0","5","01d92d17ed0ea9d99d2bac6381808c7ee69318be66dd3daf29c6bf4568786f8d","602003.6999998093","528.8000001907349","77","1","arctic","","","","",""
"dual-task","null","null","null","","arctic","arctic","611","","n","null","88","88","1","arctic-dual-task","","n","lowercase","610000","0","5","01d92d17ed0ea9d99d2bac6381808c7ee69318be66dd3daf29c6bf4568786f8d","610000.6999998093","611","88","1","arctic","","","","",""
"dual-task","null","null","null","","arctic","arctic","659.1999998092651","","q","null","88","88","1","arctic-dual-task","","q","lowercase","620000","0","5","01d92d17ed0ea9d99d2bac6381808c7ee69318be66dd3daf29c6bf4568786f8d","620000.4000000954","659.1999998092651","88","1","arctic","","","","",""
"dual-task","null","null","null","","arctic","arctic","554.7999997138977","","h","null","88","88","1","arctic-dual-task","","h","lowercase","634000","0","5","01d92d17ed0ea9d99d2bac6381808c7ee69318be66dd3daf29c6bf4568786f8d","634000.4000000954","554.7999997138977","88","1","arctic","","","","",""
"dual-task","null","null","null","","arctic","arctic","549.5","","Q","null","77","77","1","arctic-dual-task","","Q","uppercase","648000","0","5","01d92d17ed0ea9d99d2bac6381808c7ee69318be66dd3daf29c6bf4568786f8d","648005.1999998093","549.5","77","1","arctic","","","","",""
"dual-task","null","null","null","","arctic","arctic","575","","d","null","88","88","1","arctic-dual-task","","d","lowercase","656000","0","5","01d92d17ed0ea9d99d2bac6381808c7ee69318be66dd3daf29c6bf4568786f8d","656003","575","88","1","arctic","","","","",""
"dual-task","null","null","null","","arctic","arctic","613.4000000953674","","a","null","88","88","1","arctic-dual-task","","a","lowercase","668000","0","5","01d92d17ed0ea9d99d2bac6381808c7ee69318be66dd3daf29c6bf4568786f8d","668004.7999997139","613.4000000953674","88","1","arctic","","","","",""
"dual-task","null","null","null","","arctic","arctic","851.5999999046326","","b","null","88","88","1","arctic-dual-task","","b","lowercase","676000","0","5","01d92d17ed0ea9d99d2bac6381808c7ee69318be66dd3daf29c6bf4568786f8d","676005.5999999046","851.5999999046326","88","1","arctic","","","","",""
"dual-task","null","null","null","","arctic","arctic","688.7999997138977","","A","null","77","77","1","arctic-dual-task","","A","uppercase","690000","0","5","01d92d17ed0ea9d99d2bac6381808c7ee69318be66dd3daf29c6bf4568786f8d","690000.5","688.7999997138977","77","1","arctic","","","","",""
"dual-task","null","null","null","","arctic","arctic","520.2999997138977","","f","null","88","88","1","arctic-dual-task","","f","lowercase","700000","0","5","01d92d17ed0ea9d99d2bac6381808c7ee69318be66dd3daf29c6bf4568786f8d","700008.2999997139","520.2999997138977","88","1","arctic","","","","",""
"dual-task","null","null","null","","arctic","arctic","524.5999999046326","","R","null","77","77","1","arctic-dual-task","","R","uppercase","708000","0","5","01d92d17ed0ea9d99d2bac6381808c7ee69318be66dd3daf29c6bf4568786f8d","708004.1999998093","524.5999999046326","77","1","arctic","","","","",""
"dual-task","null","null","null","","arctic","arctic","620.9000000953674","","g","null","88","88","1","arctic-dual-task","","g","lowercase","720000","0","5","01d92d17ed0ea9d99d2bac6381808c7ee69318be66dd3daf29c6bf4568786f8d","720003.0999999046","620.9000000953674","88","1","arctic","","","","",""
"dual-task","null","null","null","","arctic","arctic","567.7999997138977","","g","null","88","88","1","arctic-dual-task","","g","lowercase","726000","0","5","01d92d17ed0ea9d99d2bac6381808c7ee69318be66dd3daf29c6bf4568786f8d","726000","567.7999997138977","88","1","arctic","","","","",""
"dual-task","null","null","null","","arctic","arctic","542.5999999046326","","H","null","77","77","1","arctic-dual-task","","H","uppercase","736000","0","5","01d92d17ed0ea9d99d2bac6381808c7ee69318be66dd3daf29c6bf4568786f8d","736000.9000000954","542.5999999046326","77","1","arctic","","","","",""
"dual-task","null","null","null","","arctic","arctic","508.09999990463257","","B","null","77","77","1","arctic-dual-task","","B","uppercase","746000","0","5","01d92d17ed0ea9d99d2bac6381808c7ee69318be66dd3daf29c6bf4568786f8d","746002.9000000954","508.09999990463257","77","1","arctic","","","","",""
"dual-task","null","null","null","","arctic","arctic","617.7999997138977","","E","null","77","77","1","arctic-dual-task","","E","uppercase","758000","0","5","01d92d17ed0ea9d99d2bac6381808c7ee69318be66dd3daf29c6bf4568786f8d","758004.6999998093","617.7999997138977","77","1","arctic","","","","",""
"dual-task","null","null","null","","arctic","arctic","551.9000000953674","","D","null","77","77","1","arctic-dual-task","","D","uppercase","764000","0","5","01d92d17ed0ea9d99d2bac6381808c7ee69318be66dd3daf29c6bf4568786f8d","764006.5999999046","551.9000000953674","77","1","arctic","","","","",""
"dual-task","null","null","null","","arctic","arctic","517.1999998092651","","R","null","77","77","1","arctic-dual-task","","R","uppercase","774000","0","5","01d92d17ed0ea9d99d2bac6381808c7ee69318be66dd3daf29c6bf4568786f8d","774001.4000000954","517.1999998092651","77","1","arctic","","","","",""
"dual-task","null","null","null","","arctic","arctic","475.09999990463257","","B","null","77","77","1","arctic-dual-task","","B","uppercase","786000","0","5","01d92d17ed0ea9d99d2bac6381808c7ee69318be66dd3daf29c6bf4568786f8d","786003.2999997139","475.09999990463257","77","1","arctic","","","","",""
"audio-keyboard-response","29","932210","0.0-6.0-0.0-1.0","01d92d17ed0ea9d99d2bac6381808c7ee69318be66dd3daf29c6bf4568786f8d","arctic","arctic","null","","audio/story_arctic_scrambled.mp3","","null","","","","","","","","","","","","","","","","","","","",""
"html-button-response","30","935231","0.0-6.0-0.0-2.0","01d92d17ed0ea9d99d2bac6381808c7ee69318be66dd3daf29c6bf4568786f8d","arctic","arctic","3019","","<p>This concludes the story. Thank you for listening.</p><p>You will now answer some questions about the content of the story.</p>","0","","","","","","","","","","","","","","","","","","","","",""
"survey-multi-choice","31","940991","0.0-6.0-0.0-3.0-0.0","01d92d17ed0ea9d99d2bac6381808c7ee69318be66dd3daf29c6bf4568786f8d","arctic","arctic","5755","","<b>How did the narrator prepare for her expedition?</b>","","","","1","arctic-comprehension","","","","","","","","","","","","","{""Q0"":""Trained in Alaska learning how to dogsled""}","","","",""
"survey-multi-choice","32","947694","0.0-6.0-0.0-3.0-0.1","01d92d17ed0ea9d99d2bac6381808c7ee69318be66dd3daf29c6bf4568786f8d","arctic","arctic","6449","","<b>Which dog on the narrator&#39;s dog team never followed instructions?</b>","","","","1","arctic-comprehension","","","","","","","","","","","","","{""Q0"":""Robert""}","","","",""
"survey-multi-choice","33","951766","0.0-6.0-0.0-3.0-0.2","01d92d17ed0ea9d99d2bac6381808c7ee69318be66dd3daf29c6bf4568786f8d","arctic","arctic","3817","","<b>What did the narrator do for leisure while in her tent?</b>","","","","1","arctic-comprehension","","","","","","","","","","","","","{""Q0"":""Read""}","","","",""
"survey-multi-choice","34","957838","0.0-6.0-0.0-3.0-0.3","01d92d17ed0ea9d99d2bac6381808c7ee69318be66dd3daf29c6bf4568786f8d","arctic","arctic","5812","","<b>How did the dogs respond when they saw the bears?</b>","","","","1","arctic-comprehension","","","","","","","","","","","","","{""Q0"":""Approached them""}","","","",""
"survey-multi-choice","35","984429","0.0-6.0-0.0-3.0-0.4","01d92d17ed0ea9d99d2bac6381808c7ee69318be66dd3daf29c6bf4568786f8d","arctic","arctic","26337","","<b>How did the narrator&#39;s neighbour respond when she told him about her expedition?</b>","","","","1","arctic-comprehension","","","","","","","","","","","","","{""Q0"":""He said she was going to fail.""}","","","",""
"survey-multi-choice","36","991213","0.0-6.0-0.0-3.0-0.5","01d92d17ed0ea9d99d2bac6381808c7ee69318be66dd3daf29c6bf4568786f8d","arctic","arctic","6528","","<b>How did the narrator&#39;s encounter with the polar bears end?</b>","","","","1","arctic-comprehension","","","","","","","","","","","","","{""Q0"":""The bears walked back to their den.""}","","","",""
"survey-multi-choice","37","997295","0.0-6.0-0.0-3.0-0.6","01d92d17ed0ea9d99d2bac6381808c7ee69318be66dd3daf29c6bf4568786f8d","arctic","arctic","5826","","<b>How many sponsorships did the narrator receive to support her expedition?</b>","","","","1","arctic-comprehension","","","","","","","","","","","","","{""Q0"":""None""}","","","",""
"survey-multi-choice","38","1001126","0.0-6.0-0.0-3.0-0.7","01d92d17ed0ea9d99d2bac6381808c7ee69318be66dd3daf29c6bf4568786f8d","arctic","arctic","3575","","<b>What is the name of the narrator&#39;s neighbour?</b>","","","","1","arctic-comprehension","","","","","","","","","","","","","{""Q0"":""Dave""}","","","",""
"survey-multi-choice","39","1007639","0.0-6.0-0.0-3.0-0.8","01d92d17ed0ea9d99d2bac6381808c7ee69318be66dd3daf29c6bf4568786f8d","arctic","arctic","6259","","<b>What were the weather conditions in the Arctic like the winter of the narrator&#39;s expedition?</b>","","","","1","arctic-comprehension","","","","","","","","","","","","","{""Q0"":""There were more storms than any other winter in recorded history.""}","","","",""
"survey-multi-choice","40","1012734","0.0-6.0-0.0-3.0-0.9","01d92d17ed0ea9d99d2bac6381808c7ee69318be66dd3daf29c6bf4568786f8d","arctic","arctic","4839","","<b>What was the objective of the narrator&#39;s expedition?</b>","","","","1","arctic-comprehension","","","","","","","","","","","","","{""Q0"":""Dogsled across Arctic America""}","","","",""
"html-button-response","41","1015221","0.0-6.0-0.0-4.0","01d92d17ed0ea9d99d2bac6381808c7ee69318be66dd3daf29c6bf4568786f8d","arctic","arctic","2235","","<p>Thank you for your responses.</p><p>You will now answer some questions about your impressions of the story.</p>","0","","","","","","","","","","","","","","","","","","","","",""
"html-button-response","42","1019255","0.0-6.0-0.0-5.0-0.0","01d92d17ed0ea9d99d2bac6381808c7ee69318be66dd3daf29c6bf4568786f8d","arctic","arctic","4031","","A2","6","","","","arctic-engagement","","","","","","","","","","","","","","7","absorption","",""
"html-button-response","43","1022958","0.0-6.0-0.0-5.0-0.1","01d92d17ed0ea9d99d2bac6381808c7ee69318be66dd3daf29c6bf4568786f8d","arctic","arctic","3450","","A1","0","","","","arctic-engagement","","","","","","","","","","","","","","1","absorption","",""
"html-button-response","44","1024670","0.0-6.0-0.0-5.0-0.2","01d92d17ed0ea9d99d2bac6381808c7ee69318be66dd3daf29c6bf4568786f8d","arctic","arctic","1460","","EE3","0","","","","arctic-engagement","","","","","","","","","","","","","","1","emo-engage","",""
"html-button-response","45","1026462","0.0-6.0-0.0-5.0-0.3","01d92d17ed0ea9d99d2bac6381808c7ee69318be66dd3daf29c6bf4568786f8d","arctic","arctic","1540","","E8","0","","","","arctic-engagement","","","","","","","","","","","","","","1","enjoyment","",""
"html-button-response","46","1028061","0.0-6.0-0.0-5.0-0.4","01d92d17ed0ea9d99d2bac6381808c7ee69318be66dd3daf29c6bf4568786f8d","arctic","arctic","1348","","E1","0","","","","arctic-engagement","","","","","","","","","","","","","","1","enjoyment","",""
"html-button-response","47","1029406","0.0-6.0-0.0-5.0-0.5","01d92d17ed0ea9d99d2bac6381808c7ee69318be66dd3daf29c6bf4568786f8d","arctic","arctic","1093","","EE2","0","","","","arctic-engagement","","","","","","","","","","","","","","1","emo-engage","",""
"html-button-response","48","1034029","0.0-6.0-0.0-5.0-0.6","01d92d17ed0ea9d99d2bac6381808c7ee69318be66dd3daf29c6bf4568786f8d","arctic","arctic","4372","","MS2","0","","","","arctic-engagement","","","","","","","","","","","","","","1","mental-sim","",""
"html-button-response","49","1035749","0.0-6.0-0.0-5.0-0.7","01d92d17ed0ea9d99d2bac6381808c7ee69318be66dd3daf29c6bf4568786f8d","arctic","arctic","1468","","A3","0","","","","arctic-engagement","","","","","","","","","","","","","","1","absorption","",""
"html-button-response","50","1040845","0.0-6.0-0.0-5.0-0.8","01d92d17ed0ea9d99d2bac6381808c7ee69318be66dd3daf29c6bf4568786f8d","arctic","arctic","4844","","MS3","6","","","","arctic-engagement","","","","","","","","","","","","","","7","mental-sim","",""
"html-button-response","51","1043109","0.0-6.0-0.0-5.0-0.9","01d92d17ed0ea9d99d2bac6381808c7ee69318be66dd3daf29c6bf4568786f8d","arctic","arctic","2011","","EE5","0","","","","arctic-engagement","","","","","","","","","","","","","","1","emo-engage","",""
"html-button-response","52","1045037","0.0-6.0-0.0-5.0-0.10","01d92d17ed0ea9d99d2bac6381808c7ee69318be66dd3daf29c6bf4568786f8d","arctic","arctic","1676","","A4","0","","","","arctic-engagement","","","","","","","","","","","","","","1","absorption","",""
"html-button-response","53","1048132","0.0-6.0-0.0-5.0-0.11","01d92d17ed0ea9d99d2bac6381808c7ee69318be66dd3daf29c6bf4568786f8d","arctic","arctic","2840","","EE1","0","","","","arctic-engagement","","","","","","","","","","","","","","1","emo-engage","",""
"html-button-response","54","1049461","0.0-6.0-0.0-5.0-0.12","01d92d17ed0ea9d99d2bac6381808c7ee69318be66dd3daf29c6bf4568786f8d","arctic","arctic","1076","","E6","0","","","","arctic-engagement","","","","","","","","","","","","","","1","enjoyment","",""
"html-button-response","55","1050925","0.0-6.0-0.0-5.0-0.13","01d92d17ed0ea9d99d2bac6381808c7ee69318be66dd3daf29c6bf4568786f8d","arctic","arctic","1212","","EE4","0","","","","arctic-engagement","","","","","","","","","","","","","","1","emo-engage","",""
"html-button-response","56","1053142","0.0-6.0-0.0-5.0-0.14","01d92d17ed0ea9d99d2bac6381808c7ee69318be66dd3daf29c6bf4568786f8d","arctic","arctic","1965","","E7","0","","","","arctic-engagement","","","","","","","","","","","","","","1","enjoyment","",""
"html-button-response","57","1055502","0.0-6.0-0.0-5.0-0.15","01d92d17ed0ea9d99d2bac6381808c7ee69318be66dd3daf29c6bf4568786f8d","arctic","arctic","2108","","E10","0","","","","arctic-engagement","","","","","","","","","","","","","","1","enjoyment","",""
"html-button-response","58","1057775","0.0-6.0-0.0-5.0-0.16","01d92d17ed0ea9d99d2bac6381808c7ee69318be66dd3daf29c6bf4568786f8d","arctic","arctic","2020","","MS1","0","","","","arctic-engagement","","","","","","","","","","","","","","1","mental-sim","",""
"html-button-response","59","1059981","0.0-6.0-0.0-5.0-0.17","01d92d17ed0ea9d99d2bac6381808c7ee69318be66dd3daf29c6bf4568786f8d","arctic","arctic","1955","","A5","0","","","","arctic-engagement","","","","","","","","","","","","","","1","absorption","",""
"html-keyboard-response","60","1179679","0.0-6.0-1.0","01d92d17ed0ea9d99d2bac6381808c7ee69318be66dd3daf29c6bf4568786f8d","arctic","arctic","119444","","<p>Thank you for your responses. You will now listen to the second story.</p><p>Remember, as you listen to the story you will see letters appear on the screen.</br>As quickly as possible, press <b>&lt;x&gt;</b> if the letter is lowercase and <b>&lt;m&gt;</b> if the letter is uppercase.</p><p>Press <b>&lt;x&gt;</b> or <b>&lt;m&gt;</b> to begin listening!</p>","","77","","","","","","","","","","","","","","","","","","","",""
"html-keyboard-response","61","1180179","0.0-6.0-2.0-0.0","01d92d17ed0ea9d99d2bac6381808c7ee69318be66dd3daf29c6bf4568786f8d","arctic","arctic","null","","<div style=""font-size:60px;"" tabindex=""0"">+</div>","","null","","","","","","","","","","","","","","","","","","","",""
"dual-task","null","null","null","","arctic","arctic","665","","h","null","88","88","1","swim-dual-task","","h","lowercase","16000","0","5","01d92d17ed0ea9d99d2bac6381808c7ee69318be66dd3daf29c6bf4568786f8d","16005.400000095367","665","88","1","swim","","","","",""
"dual-task","null","null","null","","arctic","arctic","550.5","","Q","null","77","77","1","swim-dual-task","","Q","uppercase","26000","0","5","01d92d17ed0ea9d99d2bac6381808c7ee69318be66dd3daf29c6bf4568786f8d","26000.400000095367","550.5","77","1","swim","","","","",""
"dual-task","null","null","null","","arctic","arctic","833.7000002861023","","q","null","88","88","1","swim-dual-task","","q","lowercase","38000","0","5","01d92d17ed0ea9d99d2bac6381808c7ee69318be66dd3daf29c6bf4568786f8d","38005.40000009537","833.7000002861023","88","1","swim","","","","",""
"dual-task","null","null","null","","arctic","arctic","527.2999997138977","","R","null","77","77","1","swim-dual-task","","R","uppercase","48000","0","5","01d92d17ed0ea9d99d2bac6381808c7ee69318be66dd3daf29c6bf4568786f8d","47999.2000002861","527.2999997138977","77","1","swim","","","","",""
"dual-task","null","null","null","","arctic","arctic","766.4000000953674","","a","null","88","88","1","swim-dual-task","","a","lowercase","54000","0","5","01d92d17ed0ea9d99d2bac6381808c7ee69318be66dd3daf29c6bf4568786f8d","54000.10000038147","766.4000000953674","88","1","swim","","","","",""
"dual-task","null","null","null","","arctic","arctic","684.4000000953674","","n","null","88","88","1","swim-dual-task","","n","lowercase","64000","0","5","01d92d17ed0ea9d99d2bac6381808c7ee69318be66dd3daf29c6bf4568786f8d","64009","684.4000000953674","88","1","swim","","","","",""
"dual-task","null","null","null","","arctic","arctic","684","","r","null","88","88","1","swim-dual-task","","r","lowercase","74000","0","5","01d92d17ed0ea9d99d2bac6381808c7ee69318be66dd3daf29c6bf4568786f8d","74001.80000019073","684","88","1","swim","","","","",""
"dual-task","null","null","null","","arctic","arctic","493.40000009536743","","b","null","88","88","1","swim-dual-task","","b","lowercase","80000","0","5","01d92d17ed0ea9d99d2bac6381808c7ee69318be66dd3daf29c6bf4568786f8d","79999.7000002861","493.40000009536743","88","1","swim","","","","",""
"dual-task","null","null","null","","arctic","arctic","514.8000001907349","","T","null","77","77","1","swim-dual-task","","T","uppercase","92000","0","5","01d92d17ed0ea9d99d2bac6381808c7ee69318be66dd3daf29c6bf4568786f8d","92008.90000009537","514.8000001907349","77","1","swim","","","","",""
"dual-task","null","null","null","","arctic","arctic","674.9000000953674","","f","null","88","88","1","swim-dual-task","","f","lowercase","104000","0","5","01d92d17ed0ea9d99d2bac6381808c7ee69318be66dd3daf29c6bf4568786f8d","104001.60000038147","674.9000000953674","88","1","swim","","","","",""
"dual-task","null","null","null","","arctic","arctic","571.8000001907349","","R","null","77","77","1","swim-dual-task","","R","uppercase","112000","0","5","01d92d17ed0ea9d99d2bac6381808c7ee69318be66dd3daf29c6bf4568786f8d","112008.30000019073","571.8000001907349","77","1","swim","","","","",""
"dual-task","null","null","null","","arctic","arctic","523.7999997138977","","G","null","77","77","1","swim-dual-task","","G","uppercase","126000","0","5","01d92d17ed0ea9d99d2bac6381808c7ee69318be66dd3daf29c6bf4568786f8d","126000.10000038147","523.7999997138977","77","1","swim","","","","",""
"dual-task","null","null","null","","arctic","arctic","498.09999990463257","","A","null","77","77","1","swim-dual-task","","A","uppercase","138000","0","5","01d92d17ed0ea9d99d2bac6381808c7ee69318be66dd3daf29c6bf4568786f8d","138001.90000009537","498.09999990463257","77","1","swim","","","","",""
"dual-task","null","null","null","","arctic","arctic","858.1999998092651","","D","null","77","77","1","swim-dual-task","","D","uppercase","144000","0","5","01d92d17ed0ea9d99d2bac6381808c7ee69318be66dd3daf29c6bf4568786f8d","144008.7000002861","858.1999998092651","77","1","swim","","","","",""
"dual-task","null","null","null","","arctic","arctic","618.1999998092651","","Q","null","77","77","1","swim-dual-task","","Q","uppercase","156000","0","5","01d92d17ed0ea9d99d2bac6381808c7ee69318be66dd3daf29c6bf4568786f8d","156008.60000038147","618.1999998092651","77","1","swim","","","","",""
"dual-task","null","null","null","","arctic","arctic","625.9000000953674","","t","null","88","88","1","swim-dual-task","","t","lowercase","168000","0","5","01d92d17ed0ea9d99d2bac6381808c7ee69318be66dd3daf29c6bf4568786f8d","168008.40000009537","625.9000000953674","88","1","swim","","","","",""
"dual-task","null","null","null","","arctic","arctic","660.9000000953674","","g","null","88","88","1","swim-dual-task","","g","lowercase","178000","0","5","01d92d17ed0ea9d99d2bac6381808c7ee69318be66dd3daf29c6bf4568786f8d","178005.40000009537","660.9000000953674","88","1","swim","","","","",""
"dual-task","null","null","null","","arctic","arctic","497.69999980926514","","A","null","77","77","1","swim-dual-task","","A","uppercase","186000","0","5","01d92d17ed0ea9d99d2bac6381808c7ee69318be66dd3daf29c6bf4568786f8d","186000.2000002861","497.69999980926514","77","1","swim","","","","",""
"dual-task","null","null","null","","arctic","arctic","782.4000000953674","","F","null","77","77","1","swim-dual-task","","F","uppercase","194000","0","5","01d92d17ed0ea9d99d2bac6381808c7ee69318be66dd3daf29c6bf4568786f8d","194003.2000002861","782.4000000953674","77","1","swim","","","","",""
"dual-task","null","null","null","","arctic","arctic","574.2999997138977","","n","null","88","88","1","swim-dual-task","","n","lowercase","204000","0","5","01d92d17ed0ea9d99d2bac6381808c7ee69318be66dd3daf29c6bf4568786f8d","204003","574.2999997138977","88","1","swim","","","","",""
"dual-task","null","null","null","","arctic","arctic","552.1000003814697","","A","null","77","77","1","swim-dual-task","","A","uppercase","212000","0","5","01d92d17ed0ea9d99d2bac6381808c7ee69318be66dd3daf29c6bf4568786f8d","212008.90000009537","552.1000003814697","77","1","swim","","","","",""
"dual-task","null","null","null","","arctic","arctic","633.1999998092651","","r","null","88","88","1","swim-dual-task","","r","lowercase","224000","0","5","01d92d17ed0ea9d99d2bac6381808c7ee69318be66dd3daf29c6bf4568786f8d","223999.60000038147","633.1999998092651","88","1","swim","","","","",""
"dual-task","null","null","null","","arctic","arctic","568.7000002861023","","d","null","88","88","1","swim-dual-task","","d","lowercase","236000","0","5","01d92d17ed0ea9d99d2bac6381808c7ee69318be66dd3daf29c6bf4568786f8d","235999.80000019073","568.7000002861023","88","1","swim","","","","",""
"dual-task","null","null","null","","arctic","arctic","588.5999999046326","","h","null","88","88","1","swim-dual-task","","h","lowercase","248000","0","5","01d92d17ed0ea9d99d2bac6381808c7ee69318be66dd3daf29c6bf4568786f8d","248003.60000038147","588.5999999046326","88","1","swim","","","","",""
"dual-task","null","null","null","","arctic","arctic","1491.5999999046326","","T","null","88","77","0","swim-dual-task","","T","uppercase","254000","0","5","01d92d17ed0ea9d99d2bac6381808c7ee69318be66dd3daf29c6bf4568786f8d","254003.5","1491.5999999046326","88","0","swim","","","","",""
"dual-task","null","null","null","","arctic","arctic","462.09999990463257","","G","null","77","77","1","swim-dual-task","","G","uppercase","266000","0","5","01d92d17ed0ea9d99d2bac6381808c7ee69318be66dd3daf29c6bf4568786f8d","266009.30000019073","462.09999990463257","77","1","swim","","","","",""
"dual-task","null","null","null","","arctic","arctic","503.09999990463257","","F","null","77","77","1","swim-dual-task","","F","uppercase","276000","0","5","01d92d17ed0ea9d99d2bac6381808c7ee69318be66dd3daf29c6bf4568786f8d","276000.2000002861","503.09999990463257","77","1","swim","","","","",""
"dual-task","null","null","null","","arctic","arctic","638.0999999046326","","e","null","88","88","1","swim-dual-task","","e","lowercase","290000","0","5","01d92d17ed0ea9d99d2bac6381808c7ee69318be66dd3daf29c6bf4568786f8d","290000.7000002861","638.0999999046326","88","1","swim","","","","",""
"dual-task","null","null","null","","arctic","arctic","1024.9000000953674","","d","null","88","88","1","swim-dual-task","","d","lowercase","298000","0","5","01d92d17ed0ea9d99d2bac6381808c7ee69318be66dd3daf29c6bf4568786f8d","298004.80000019073","1024.9000000953674","88","1","swim","","","","",""
"dual-task","null","null","null","","arctic","arctic","684.5999999046326","","H","null","77","77","1","swim-dual-task","","H","uppercase","308000","0","5","01d92d17ed0ea9d99d2bac6381808c7ee69318be66dd3daf29c6bf4568786f8d","308001.80000019073","684.5999999046326","77","1","swim","","","","",""
"dual-task","null","null","null","","arctic","arctic","477.40000009536743","","R","null","77","77","1","swim-dual-task","","R","uppercase","320000","0","5","01d92d17ed0ea9d99d2bac6381808c7ee69318be66dd3daf29c6bf4568786f8d","320008.7000002861","477.40000009536743","77","1","swim","","","","",""
"dual-task","null","null","null","","arctic","arctic","500.3999996185303","","B","null","77","77","1","swim-dual-task","","B","uppercase","332000","0","5","01d92d17ed0ea9d99d2bac6381808c7ee69318be66dd3daf29c6bf4568786f8d","332001.5","500.3999996185303","77","1","swim","","","","",""
"dual-task","null","null","null","","arctic","arctic","732.4000000953674","","e","null","88","88","1","swim-dual-task","","e","lowercase","342000","0","5","01d92d17ed0ea9d99d2bac6381808c7ee69318be66dd3daf29c6bf4568786f8d","342008.40000009537","732.4000000953674","88","1","swim","","","","",""
"dual-task","null","null","null","","arctic","arctic","612.4000000953674","","f","null","88","88","1","swim-dual-task","","f","lowercase","354000","0","5","01d92d17ed0ea9d99d2bac6381808c7ee69318be66dd3daf29c6bf4568786f8d","354000.30000019073","612.4000000953674","88","1","swim","","","","",""
"dual-task","null","null","null","","arctic","arctic","603.5999999046326","","H","null","77","77","1","swim-dual-task","","H","uppercase","362000","0","5","01d92d17ed0ea9d99d2bac6381808c7ee69318be66dd3daf29c6bf4568786f8d","362008.30000019073","603.5999999046326","77","1","swim","","","","",""
"dual-task","null","null","null","","arctic","arctic","577.0999999046326","","e","null","88","88","1","swim-dual-task","","e","lowercase","370000","0","5","01d92d17ed0ea9d99d2bac6381808c7ee69318be66dd3daf29c6bf4568786f8d","370003.10000038147","577.0999999046326","88","1","swim","","","","",""
"dual-task","null","null","null","","arctic","arctic","512","","A","null","77","77","1","swim-dual-task","","A","uppercase","380000","0","5","01d92d17ed0ea9d99d2bac6381808c7ee69318be66dd3daf29c6bf4568786f8d","380003","512","77","1","swim","","","","",""
"dual-task","null","null","null","","arctic","arctic","594.3000001907349","","d","null","88","88","1","swim-dual-task","","d","lowercase","388000","0","5","01d92d17ed0ea9d99d2bac6381808c7ee69318be66dd3daf29c6bf4568786f8d","388009.2000002861","594.3000001907349","88","1","swim","","","","",""
"dual-task","null","null","null","","arctic","arctic","577.7999997138977","","E","null","77","77","1","swim-dual-task","","E","uppercase","402000","0","5","01d92d17ed0ea9d99d2bac6381808c7ee69318be66dd3daf29c6bf4568786f8d","402008.7000002861","577.7999997138977","77","1","swim","","","","",""
"dual-task","null","null","null","","arctic","arctic","473.7999997138977","","H","null","77","77","1","swim-dual-task","","H","uppercase","412000","0","5","01d92d17ed0ea9d99d2bac6381808c7ee69318be66dd3daf29c6bf4568786f8d","412000.60000038147","473.7999997138977","77","1","swim","","","","",""
"dual-task","null","null","null","","arctic","arctic","522.3000001907349","","D","null","77","77","1","swim-dual-task","","D","uppercase","422000","0","5","01d92d17ed0ea9d99d2bac6381808c7ee69318be66dd3daf29c6bf4568786f8d","422000.30000019073","522.3000001907349","77","1","swim","","","","",""
"dual-task","null","null","null","","arctic","arctic","638.4000000953674","","g","null","88","88","1","swim-dual-task","","g","lowercase","432000","0","5","01d92d17ed0ea9d99d2bac6381808c7ee69318be66dd3daf29c6bf4568786f8d","432003.30000019073","638.4000000953674","88","1","swim","","","","",""
"dual-task","null","null","null","","arctic","arctic","594.0999999046326","","f","null","88","88","1","swim-dual-task","","f","lowercase","444000","0","5","01d92d17ed0ea9d99d2bac6381808c7ee69318be66dd3daf29c6bf4568786f8d","444000.10000038147","594.0999999046326","88","1","swim","","","","",""
"dual-task","null","null","null","","arctic","arctic","513.3000001907349","","h","null","88","88","1","swim-dual-task","","h","lowercase","450000","0","5","01d92d17ed0ea9d99d2bac6381808c7ee69318be66dd3daf29c6bf4568786f8d","450000","513.3000001907349","88","1","swim","","","","",""
"dual-task","null","null","null","","arctic","arctic","631.0999999046326","","F","null","77","77","1","swim-dual-task","","F","uppercase","464000","0","5","01d92d17ed0ea9d99d2bac6381808c7ee69318be66dd3daf29c6bf4568786f8d","464001.80000019073","631.0999999046326","77","1","swim","","","","",""
"dual-task","null","null","null","","arctic","arctic","640.6999998092651","","a","null","88","88","1","swim-dual-task","","a","lowercase","470000","0","5","01d92d17ed0ea9d99d2bac6381808c7ee69318be66dd3daf29c6bf4568786f8d","470007.7000002861","640.6999998092651","88","1","swim","","","","",""
"dual-task","null","null","null","","arctic","arctic","590.1999998092651","","a","null","88","88","1","swim-dual-task","","a","lowercase","482000","0","5","01d92d17ed0ea9d99d2bac6381808c7ee69318be66dd3daf29c6bf4568786f8d","482002.90000009537","590.1999998092651","88","1","swim","","","","",""
"dual-task","null","null","null","","arctic","arctic","605.8000001907349","","G","null","77","77","1","swim-dual-task","","G","uppercase","490000","0","5","01d92d17ed0ea9d99d2bac6381808c7ee69318be66dd3daf29c6bf4568786f8d","490001.80000019073","605.8000001907349","77","1","swim","","","","",""
"dual-task","null","null","null","","arctic","arctic","536.5999999046326","","D","null","77","77","1","swim-dual-task","","D","uppercase","500000","0","5","01d92d17ed0ea9d99d2bac6381808c7ee69318be66dd3daf29c6bf4568786f8d","500007.40000009537","536.5999999046326","77","1","swim","","","","",""
"dual-task","null","null","null","","arctic","arctic","542.8000001907349","","G","null","77","77","1","swim-dual-task","","G","uppercase","506000","0","5","01d92d17ed0ea9d99d2bac6381808c7ee69318be66dd3daf29c6bf4568786f8d","506008.30000019073","542.8000001907349","77","1","swim","","","","",""
"dual-task","null","null","null","","arctic","arctic","647","","g","null","88","88","1","swim-dual-task","","g","lowercase","516000","0","5","01d92d17ed0ea9d99d2bac6381808c7ee69318be66dd3daf29c6bf4568786f8d","516008.2000002861","647","88","1","swim","","","","",""
"dual-task","null","null","null","","arctic","arctic","572.0999999046326","","e","null","88","88","1","swim-dual-task","","e","lowercase","530000","0","5","01d92d17ed0ea9d99d2bac6381808c7ee69318be66dd3daf29c6bf4568786f8d","530003","572.0999999046326","88","1","swim","","","","",""
"dual-task","null","null","null","","arctic","arctic","564.5999999046326","","N","null","77","77","1","swim-dual-task","","N","uppercase","542000","0","5","01d92d17ed0ea9d99d2bac6381808c7ee69318be66dd3daf29c6bf4568786f8d","542001.9000000954","564.5999999046326","77","1","swim","","","","",""
"dual-task","null","null","null","","arctic","arctic","512.8000001907349","","E","null","77","77","1","swim-dual-task","","E","uppercase","552000","0","5","01d92d17ed0ea9d99d2bac6381808c7ee69318be66dd3daf29c6bf4568786f8d","552004.7000002861","512.8000001907349","77","1","swim","","","","",""
"dual-task","null","null","null","","arctic","arctic","500.09999990463257","","b","null","88","88","1","swim-dual-task","","b","lowercase","564000","0","5","01d92d17ed0ea9d99d2bac6381808c7ee69318be66dd3daf29c6bf4568786f8d","564001.6000003815","500.09999990463257","88","1","swim","","","","",""
"dual-task","null","null","null","","arctic","arctic","492.3999996185303","","B","null","77","77","1","swim-dual-task","","B","uppercase","572000","0","5","01d92d17ed0ea9d99d2bac6381808c7ee69318be66dd3daf29c6bf4568786f8d","572008.5","492.3999996185303","77","1","swim","","","","",""
"dual-task","null","null","null","","arctic","arctic","644.4000000953674","","h","null","88","88","1","swim-dual-task","","h","lowercase","586000","0","5","01d92d17ed0ea9d99d2bac6381808c7ee69318be66dd3daf29c6bf4568786f8d","586008.3000001907","644.4000000953674","88","1","swim","","","","",""
"dual-task","null","null","null","","arctic","arctic","563","","B","null","77","77","1","swim-dual-task","","B","uppercase","598000","0","5","01d92d17ed0ea9d99d2bac6381808c7ee69318be66dd3daf29c6bf4568786f8d","598001.2000002861","563","77","1","swim","","","","",""
"dual-task","null","null","null","","arctic","arctic","604.4000000953674","","d","null","88","88","1","swim-dual-task","","d","lowercase","610000","0","5","01d92d17ed0ea9d99d2bac6381808c7ee69318be66dd3daf29c6bf4568786f8d","610008","604.4000000953674","88","1","swim","","","","",""
"dual-task","null","null","null","","arctic","arctic","664.3000001907349","","t","null","88","88","1","swim-dual-task","","t","lowercase","616000","0","5","01d92d17ed0ea9d99d2bac6381808c7ee69318be66dd3daf29c6bf4568786f8d","616002.9000000954","664.3000001907349","88","1","swim","","","","",""
"dual-task","null","null","null","","arctic","arctic","611","","f","null","88","88","1","swim-dual-task","","f","lowercase","630000","0","5","01d92d17ed0ea9d99d2bac6381808c7ee69318be66dd3daf29c6bf4568786f8d","630000.6000003815","611","88","1","swim","","","","",""
"dual-task","null","null","null","","arctic","arctic","601.6999998092651","","n","null","88","88","1","swim-dual-task","","n","lowercase","642000","0","5","01d92d17ed0ea9d99d2bac6381808c7ee69318be66dd3daf29c6bf4568786f8d","642001.6000003815","601.6999998092651","88","1","swim","","","","",""
"dual-task","null","null","null","","arctic","arctic","522.1000003814697","","N","null","77","77","1","swim-dual-task","","N","uppercase","650000","0","5","01d92d17ed0ea9d99d2bac6381808c7ee69318be66dd3daf29c6bf4568786f8d","650000.5","522.1000003814697","77","1","swim","","","","",""
"dual-task","null","null","null","","arctic","arctic","623","","q","null","88","88","1","swim-dual-task","","q","lowercase","658000","0","5","01d92d17ed0ea9d99d2bac6381808c7ee69318be66dd3daf29c6bf4568786f8d","658003.5","623","88","1","swim","","","","",""
"dual-task","null","null","null","","arctic","arctic","504.2000002861023","","N","null","77","77","1","swim-dual-task","","N","uppercase","666000","0","5","01d92d17ed0ea9d99d2bac6381808c7ee69318be66dd3daf29c6bf4568786f8d","666001.4000000954","504.2000002861023","77","1","swim","","","","",""
"dual-task","null","null","null","","arctic","arctic","729.9000000953674","","q","null","88","88","1","swim-dual-task","","q","lowercase","674000","0","5","01d92d17ed0ea9d99d2bac6381808c7ee69318be66dd3daf29c6bf4568786f8d","674000.3000001907","729.9000000953674","88","1","swim","","","","",""
"dual-task","null","null","null","","arctic","arctic","688.5","","T","null","77","77","1","swim-dual-task","","T","uppercase","684000","0","5","01d92d17ed0ea9d99d2bac6381808c7ee69318be66dd3daf29c6bf4568786f8d","684000.9000000954","688.5","77","1","swim","","","","",""
"dual-task","null","null","null","","arctic","arctic","565.7000002861023","","t","null","88","88","1","swim-dual-task","","t","lowercase","696000","0","5","01d92d17ed0ea9d99d2bac6381808c7ee69318be66dd3daf29c6bf4568786f8d","696003.9000000954","565.7000002861023","88","1","swim","","","","",""
"dual-task","null","null","null","","arctic","arctic","531.9000000953674","","N","null","77","77","1","swim-dual-task","","N","uppercase","702000","0","5","01d92d17ed0ea9d99d2bac6381808c7ee69318be66dd3daf29c6bf4568786f8d","702004.7000002861","531.9000000953674","77","1","swim","","","","",""
"dual-task","null","null","null","","arctic","arctic","504.40000009536743","","E","null","77","77","1","swim-dual-task","","E","uppercase","716000","0","5","01d92d17ed0ea9d99d2bac6381808c7ee69318be66dd3daf29c6bf4568786f8d","716000.5","504.40000009536743","77","1","swim","","","","",""
"dual-task","null","null","null","","arctic","arctic","504.40000009536743","","D","null","77","77","1","swim-dual-task","","D","uppercase","726000","0","5","01d92d17ed0ea9d99d2bac6381808c7ee69318be66dd3daf29c6bf4568786f8d","726008.5","504.40000009536743","77","1","swim","","","","",""
"dual-task","null","null","null","","arctic","arctic","502.40000009536743","","T","null","77","77","1","swim-dual-task","","T","uppercase","732000","0","5","01d92d17ed0ea9d99d2bac6381808c7ee69318be66dd3daf29c6bf4568786f8d","732009.3000001907","502.40000009536743","77","1","swim","","","","",""
"dual-task","null","null","null","","arctic","arctic","580.8000001907349","","g","null","88","88","1","swim-dual-task","","g","lowercase","740000","0","5","01d92d17ed0ea9d99d2bac6381808c7ee69318be66dd3daf29c6bf4568786f8d","740003.2000002861","580.8000001907349","88","1","swim","","","","",""
"dual-task","null","null","null","","arctic","arctic","498.59999990463257","","Q","null","77","77","1","swim-dual-task","","Q","uppercase","752000","0","5","01d92d17ed0ea9d99d2bac6381808c7ee69318be66dd3daf29c6bf4568786f8d","752005.1000003815","498.59999990463257","77","1","swim","","","","",""
"dual-task","null","null","null","","arctic","arctic","583.4000000953674","","a","null","88","88","1","swim-dual-task","","a","lowercase","764000","0","5","01d92d17ed0ea9d99d2bac6381808c7ee69318be66dd3daf29c6bf4568786f8d","764007.9000000954","583.4000000953674","88","1","swim","","","","",""
"dual-task","null","null","null","","arctic","arctic","447.7000002861023","","Q","null","77","77","1","swim-dual-task","","Q","uppercase","776000","0","5","01d92d17ed0ea9d99d2bac6381808c7ee69318be66dd3daf29c6bf4568786f8d","776007.8000001907","447.7000002861023","77","1","swim","","","","",""
"dual-task","null","null","null","","arctic","arctic","677.6999998092651","","b","null","88","88","1","swim-dual-task","","b","lowercase","786000","0","5","01d92d17ed0ea9d99d2bac6381808c7ee69318be66dd3daf29c6bf4568786f8d","786000.7000002861","677.6999998092651","88","1","swim","","","","",""
"dual-task","null","null","null","","arctic","arctic","1150.0999999046326","","b","null","88","88","1","swim-dual-task","","b","lowercase","798000","0","5","01d92d17ed0ea9d99d2bac6381808c7ee69318be66dd3daf29c6bf4568786f8d","798007.5","1150.0999999046326","88","1","swim","","","","",""
"audio-keyboard-response","62","1990241","0.0-6.0-2.0-1.0","01d92d17ed0ea9d99d2bac6381808c7ee69318be66dd3daf29c6bf4568786f8d","arctic","arctic","null","","audio/story_swim.mp3","","null","","","","","","","","","","","","","","","","","","","",""
"html-button-response","63","1991949","0.0-6.0-2.0-2.0","01d92d17ed0ea9d99d2bac6381808c7ee69318be66dd3daf29c6bf4568786f8d","arctic","arctic","1706","","<p>This concludes the story. Thank you for listening.</p><p>You will now answer some questions about the content of the story.</p>","0","","","","","","","","","","","","","","","","","","","","",""
"survey-multi-choice","64","1997576","0.0-6.0-2.0-3.0-0.0","01d92d17ed0ea9d99d2bac6381808c7ee69318be66dd3daf29c6bf4568786f8d","arctic","arctic","5624","","<b>How many astronaut candidates passed the first swim test?</b>","","","","1","swim-comprehension","","","","","","","","","","","","","{""Q0"":""All of them""}","","","",""
"survey-multi-choice","65","2002439","0.0-6.0-2.0-3.0-0.1","01d92d17ed0ea9d99d2bac6381808c7ee69318be66dd3daf29c6bf4568786f8d","arctic","arctic","4609","","<b>How many times did the astronaut candidates have to complete the final exercise to pass?</b>","","","","1","swim-comprehension","","","","","","","","","","","","","{""Q0"":""Two""}","","","",""
"survey-multi-choice","66","2006424","0.0-6.0-2.0-3.0-0.2","01d92d17ed0ea9d99d2bac6381808c7ee69318be66dd3daf29c6bf4568786f8d","arctic","arctic","3731","","<b>What is the narrator afraid of, aside from the water?</b>","","","","1","swim-comprehension","","","","","","","","","","","","","{""Q0"":""Heights""}","","","",""
"survey-multi-choice","67","2010447","0.0-6.0-2.0-3.0-0.3","01d92d17ed0ea9d99d2bac6381808c7ee69318be66dd3daf29c6bf4568786f8d","arctic","arctic","3769","","<b>How did the narrator train for his swim test?</b>","","","","1","swim-comprehension","","","","","","","","","","","","","{""Q0"":""Took his kids to the pool every day""}","","","",""
"survey-multi-choice","68","2013335","0.0-6.0-2.0-3.0-0.4","01d92d17ed0ea9d99d2bac6381808c7ee69318be66dd3daf29c6bf4568786f8d","arctic","arctic","2632","","<b>Where is the home of naval aviation?</b>","","","","1","swim-comprehension","","","","","","","","","","","","","{""Q0"":""Pensacola""}","","","",""
"survey-multi-choice","69","2017919","0.0-6.0-2.0-3.0-0.5","01d92d17ed0ea9d99d2bac6381808c7ee69318be66dd3daf29c6bf4568786f8d","arctic","arctic","4322","","<b>How many astronaut candidates reported for duty at the Johnson Space Center?</b>","","","","1","swim-comprehension","","","","","","","","","","","","","{""Q0"":""Forty-four""}","","","",""
"survey-multi-choice","70","2023832","0.0-6.0-2.0-3.0-0.6","01d92d17ed0ea9d99d2bac6381808c7ee69318be66dd3daf29c6bf4568786f8d","arctic","arctic","5658","","<b>What gave the narrator his greatest feeling of accomplishment?</b>","","","","1","swim-comprehension","","","","","","","","","","","","","{""Q0"":""Passing the water survival course""}","","","",""
"survey-multi-choice","71","2038215","0.0-6.0-2.0-3.0-0.7","01d92d17ed0ea9d99d2bac6381808c7ee69318be66dd3daf29c6bf4568786f8d","arctic","arctic","14128","","<b>What was the final step of the first swim test in the pool?</b>","","","","1","swim-comprehension","","","","","","","","","","","","","{""Q0"":""Tread water with hands above the water""}","","","",""
"survey-multi-choice","72","2042702","0.0-6.0-2.0-3.0-0.8","01d92d17ed0ea9d99d2bac6381808c7ee69318be66dd3daf29c6bf4568786f8d","arctic","arctic","4234","","<b>How often does the narrator swim, now that he is a good swimmer?</b>","","","","1","swim-comprehension","","","","","","","","","","","","","{""Q0"":""Never swam again in his life""}","","","",""
"survey-multi-choice","73","2050766","0.0-6.0-2.0-3.0-0.9","01d92d17ed0ea9d99d2bac6381808c7ee69318be66dd3daf29c6bf4568786f8d","arctic","arctic","7808","","<b>What were the astronaut candidates trained to do at the naval air station?</b>","","","","1","swim-comprehension","","","","","","","","","","","","","{""Q0"":""Eject out of aircraft and survive in water long enough to be rescued""}","","","",""
"html-button-response","74","2051910","0.0-6.0-2.0-4.0","01d92d17ed0ea9d99d2bac6381808c7ee69318be66dd3daf29c6bf4568786f8d","arctic","arctic","891","","<p>Thank you for your responses.</p><p>You will now answer some questions about your impressions of the story.</p>","0","","","","","","","","","","","","","","","","","","","","",""
"html-button-response","75","2053839","0.0-6.0-2.0-5.0-0.0","01d92d17ed0ea9d99d2bac6381808c7ee69318be66dd3daf29c6bf4568786f8d","arctic","arctic","1928","","E7","6","","","","swim-engagement","","","","","","","","","","","","","","7","enjoyment","",""
"html-button-response","76","2056567","0.0-6.0-2.0-5.0-0.1","01d92d17ed0ea9d99d2bac6381808c7ee69318be66dd3daf29c6bf4568786f8d","arctic","arctic","2475","","MS3","6","","","","swim-engagement","","","","","","","","","","","","","","7","mental-sim","",""
"html-button-response","77","2059991","0.0-6.0-2.0-5.0-0.2","01d92d17ed0ea9d99d2bac6381808c7ee69318be66dd3daf29c6bf4568786f8d","arctic","arctic","3171","","EE5","3","","","","swim-engagement","","","","","","","","","","","","","","4","emo-engage","",""
"html-button-response","78","2062263","0.0-6.0-2.0-5.0-0.3","01d92d17ed0ea9d99d2bac6381808c7ee69318be66dd3daf29c6bf4568786f8d","arctic","arctic","2020","","EE3","0","","","","swim-engagement","","","","","","","","","","","","","","1","emo-engage","",""
"html-button-response","79","2070350","0.0-6.0-2.0-5.0-0.4","01d92d17ed0ea9d99d2bac6381808c7ee69318be66dd3daf29c6bf4568786f8d","arctic","arctic","7833","","MS1","4","","","","swim-engagement","","","","","","","","","","","","","","5","mental-sim","",""
"html-button-response","80","2073406","0.0-6.0-2.0-5.0-0.5","01d92d17ed0ea9d99d2bac6381808c7ee69318be66dd3daf29c6bf4568786f8d","arctic","arctic","2803","","E1","2","","","","swim-engagement","","","","","","","","","","","","","","3","enjoyment","",""
"html-button-response","81","2076542","0.0-6.0-2.0-5.0-0.6","01d92d17ed0ea9d99d2bac6381808c7ee69318be66dd3daf29c6bf4568786f8d","arctic","arctic","2884","","A4","0","","","","swim-engagement","","","","","","","","","","","","","","1","absorption","",""
"html-button-response","82","2080742","0.0-6.0-2.0-5.0-0.7","01d92d17ed0ea9d99d2bac6381808c7ee69318be66dd3daf29c6bf4568786f8d","arctic","arctic","3947","","EE1","4","","","","swim-engagement","","","","","","","","","","","","","","5","emo-engage","",""
"html-button-response","83","2083038","0.0-6.0-2.0-5.0-0.8","01d92d17ed0ea9d99d2bac6381808c7ee69318be66dd3daf29c6bf4568786f8d","arctic","arctic","2043","","E6","4","","","","swim-engagement","","","","","","","","","","","","","","5","enjoyment","",""
"html-button-response","84","2084830","0.0-6.0-2.0-5.0-0.9","01d92d17ed0ea9d99d2bac6381808c7ee69318be66dd3daf29c6bf4568786f8d","arctic","arctic","1539","","EE2","0","","","","swim-engagement","","","","","","","","","","","","","","1","emo-engage","",""
"html-button-response","85","2086885","0.0-6.0-2.0-5.0-0.10","01d92d17ed0ea9d99d2bac6381808c7ee69318be66dd3daf29c6bf4568786f8d","arctic","arctic","1803","","A1","0","","","","swim-engagement","","","","","","","","","","","","","","1","absorption","",""
"html-button-response","86","2088613","0.0-6.0-2.0-5.0-0.11","01d92d17ed0ea9d99d2bac6381808c7ee69318be66dd3daf29c6bf4568786f8d","arctic","arctic","1476","","A3","5","","","","swim-engagement","","","","","","","","","","","","","","6","absorption","",""
"html-button-response","87","2090741","0.0-6.0-2.0-5.0-0.12","01d92d17ed0ea9d99d2bac6381808c7ee69318be66dd3daf29c6bf4568786f8d","arctic","arctic","1876","","E8","0","","","","swim-engagement","","","","","","","","","","","","","","1","enjoyment","",""
"html-button-response","88","2096941","0.0-6.0-2.0-5.0-0.13","01d92d17ed0ea9d99d2bac6381808c7ee69318be66dd3daf29c6bf4568786f8d","arctic","arctic","5947","","A2","6","","","","swim-engagement","","","","","","","","","","","","","","7","absorption","",""
"html-button-response","89","2100109","0.0-6.0-2.0-5.0-0.14","01d92d17ed0ea9d99d2bac6381808c7ee69318be66dd3daf29c6bf4568786f8d","arctic","arctic","2916","","E10","5","","","","swim-engagement","","","","","","","","","","","","","","6","enjoyment","",""
"html-button-response","90","2102805","0.0-6.0-2.0-5.0-0.15","01d92d17ed0ea9d99d2bac6381808c7ee69318be66dd3daf29c6bf4568786f8d","arctic","arctic","2444","","A5","0","","","","swim-engagement","","","","","","","","","","","","","","1","absorption","",""
"html-button-response","91","2104500","0.0-6.0-2.0-5.0-0.16","01d92d17ed0ea9d99d2bac6381808c7ee69318be66dd3daf29c6bf4568786f8d","arctic","arctic","1443","","EE4","0","","","","swim-engagement","","","","","","","","","","","","","","1","emo-engage","",""
"html-button-response","92","2109198","0.0-6.0-2.0-5.0-0.17","01d92d17ed0ea9d99d2bac6381808c7ee69318be66dd3daf29c6bf4568786f8d","arctic","arctic","4434","","MS2","4","","","","swim-engagement","","","","","","","","","","","","","","5","mental-sim","",""
"html-button-response","93","2110597","0.0-8.0","01d92d17ed0ea9d99d2bac6381808c7ee69318be66dd3daf29c6bf4568786f8d","arctic","arctic","1146","","<p>Thank you for your responses.</p><p>You will now answer some demographic, hearing, and general health questions.</p>","0","","","","","","","","","","","","","","","","","","","","",""
"survey-multi-choice","94","2112622","0.0-9.0-0.0","01d92d17ed0ea9d99d2bac6381808c7ee69318be66dd3daf29c6bf4568786f8d","arctic","arctic","2020","","","","","","","survey","","","","","","","","","","","","","{""Q0"":""Chrome""}","","","browser",""
"survey-text","95","2115023","0.0-9.0-1.0","01d92d17ed0ea9d99d2bac6381808c7ee69318be66dd3daf29c6bf4568786f8d","arctic","arctic","2145.8999996185303","","","","","","","survey","","","","","","","","","","","","","{""AGE"":""29""}","","","age","29"
"survey-multi-choice","96","2116718","0.0-9.0-2.0","01d92d17ed0ea9d99d2bac6381808c7ee69318be66dd3daf29c6bf4568786f8d","arctic","arctic","1440","","","","","","","survey","","","","","","","","","","","","","{""Q0"":""Male""}","","","gender","Male"
"survey-multi-choice","97","2118902","0.0-9.0-4.0","01d92d17ed0ea9d99d2bac6381808c7ee69318be66dd3daf29c6bf4568786f8d","arctic","arctic","1931","","","","","","","survey","","","","","","","","","","","","","{""Q0"":""Right""}","","","handedness","Right"
"survey-multi-choice","98","2126534","0.0-9.0-5.0","01d92d17ed0ea9d99d2bac6381808c7ee69318be66dd3daf29c6bf4568786f8d","arctic","arctic","7373","","","","","","","survey","","","","","","","","","","","","","{""Q0"":""High school""}","","","education","High school"
"survey-text","99","2132637","0.0-10.0-0.0","01d92d17ed0ea9d99d2bac6381808c7ee69318be66dd3daf29c6bf4568786f8d","arctic","arctic","5847.700000286102","","","","","","","survey","","","","","","","","","","","","","{""L1"":""English""}","","","first-language","English"
"survey-text","100","2136446","0.0-10.0-1.0","01d92d17ed0ea9d99d2bac6381808c7ee69318be66dd3daf29c6bf4568786f8d","arctic","arctic","3542.699999809265","","","","","","","survey","","","","","","","","","","","","","{""L2name"":"""",""L2fluency"":"""",""L3name"":"""",""L3fluency"":"""",""L4name"":"""",""L4fluency"":""""}","","","additional-languages","{""L2name"":"""",""L2fluency"":"""",""L3name"":"""",""L3fluency"":"""",""L4name"":"""",""L4fluency"":""""}"
"survey-multi-choice","101","2139438","0.0-10.0-2.0","01d92d17ed0ea9d99d2bac6381808c7ee69318be66dd3daf29c6bf4568786f8d","arctic","arctic","2738","","","","","","","survey","","","","","","","","","","","","","{""Q0"":""No""}","","","hearing-aid","No"
"survey-multi-choice","102","2142589","0.0-10.0-3.0","01d92d17ed0ea9d99d2bac6381808c7ee69318be66dd3daf29c6bf4568786f8d","arctic","arctic","2898","","","","","","","survey","","","","","","","","","","","","","{""Q0"":""Sometimes""}","","","ringing-ears","Sometimes"
"survey-multi-choice","103","2146109","0.0-10.0-4.0-0.0","01d92d17ed0ea9d99d2bac6381808c7ee69318be66dd3daf29c6bf4568786f8d","arctic","arctic","3269","","","","","","","survey","","","","","","","","","","","","","{""Q0"":""Left Ear""}","","","ringing-ear-loc","Left Ear"
"survey-multi-choice","104","2149397","0.0-10.0-5.0","01d92d17ed0ea9d99d2bac6381808c7ee69318be66dd3daf29c6bf4568786f8d","arctic","arctic","3036","","","","","","","survey","","","","","","","","","","","","","{""Q0"":""No""}","","","neuro-disease","No"
"survey-multi-choice","105","2151653","0.0-10.0-7.0","01d92d17ed0ea9d99d2bac6381808c7ee69318be66dd3daf29c6bf4568786f8d","arctic","arctic","2003","","","","","","","survey","","","","","","","","","","","","","{""Q0"":""No""}","","","take-meds","No"
"survey-text","106","2163117","0.0-10.0-9.0","01d92d17ed0ea9d99d2bac6381808c7ee69318be66dd3daf29c6bf4568786f8d","arctic","arctic","11203.400000095367","","","","","","","survey","","","","","","","","","","","","","{""HC"":""n/a""}","","","health-concerns","n/a"
"html-button-response","107","2166037","0.0-11.0-0.0","01d92d17ed0ea9d99d2bac6381808c7ee69318be66dd3daf29c6bf4568786f8d","arctic","arctic","2668","","<p>How would you describe your musical skills/experiences?</p>","1","","","","survey","","","","","","","","","","","","","","","","music-skill","2"
"survey-multi-choice","108","2169837","0.0-11.0-1.0","01d92d17ed0ea9d99d2bac6381808c7ee69318be66dd3daf29c6bf4568786f8d","arctic","arctic","3545","","","","","","","survey","","","","","","","","","","","","","{""Q0"":""Yes""}","","","music-instrument","Yes"
"survey-text","109","2178541","0.0-11.0-2.0-0.0","01d92d17ed0ea9d99d2bac6381808c7ee69318be66dd3daf29c6bf4568786f8d","arctic","arctic","8448.599999904633","","","","","","","survey","","","","","","","","","","","","","{""MEXP"":""1""}","","","music-training-yrs","1"
"html-button-response","110","2182037","0.0-12.0-0.0","01d92d17ed0ea9d99d2bac6381808c7ee69318be66dd3daf29c6bf4568786f8d","arctic","arctic","3243","","<p>How would you describe your general hearing abilities?</p>","3","","","","survey","","","","","","","","","","","","","","","","ssq-01","4"
"html-button-response","111","2190486","0.0-12.0-1.0","01d92d17ed0ea9d99d2bac6381808c7ee69318be66dd3daf29c6bf4568786f8d","arctic","arctic","8195","","<p>When you talk with someone at a place that strongly reverberates/echoes (e.g., in a church or train station),</br>can you understand what the person says?</p>","9","","","","survey","","","","","","","","","","","","","","","","ssq-02","9"
"html-button-response","112","2194589","0.0-12.0-2.0","01d92d17ed0ea9d99d2bac6381808c7ee69318be66dd3daf29c6bf4568786f8d","arctic","arctic","3850","","<p>When you are with a group (~5 people) in a lively restaurant, can you follow the group's conversation?</p>","5","","","","survey","","","","","","","","","","","","","","","","ssq-03","5"
"html-button-response","113","2199077","0.0-12.0-3.0","01d92d17ed0ea9d99d2bac6381808c7ee69318be66dd3daf29c6bf4568786f8d","arctic","arctic","4236","","<p>Based on the sound of a bus or truck, can you tell whether it is moving towards or away from you?</p>","9","","","","survey","","","","","","","","","","","","","","","","ssq-04","9"
"html-button-response","114","2203709","0.0-12.0-4.0","01d92d17ed0ea9d99d2bac6381808c7ee69318be66dd3daf29c6bf4568786f8d","arctic","arctic","4379","","<p>When you are in an unknown environment, can you tell from which direction a brief sound originates?</p>","8","","","","survey","","","","","","","","","","","","","","","","ssq-05","8"
"html-button-response","115","2209604","0.0-12.0-5.0","01d92d17ed0ea9d99d2bac6381808c7ee69318be66dd3daf29c6bf4568786f8d","arctic","arctic","5642","","<p>Are you able to ignore distracting sounds when you concentrate on a specific aspect of your acoustic surrounding?</p>","10","","","","survey","","","","","","","","","","","","","","","","ssq-06","10"
"fullscreen","116","2210856","0.0-13.0","01d92d17ed0ea9d99d2bac6381808c7ee69318be66dd3daf29c6bf4568786f8d","arctic","arctic","","","","","","","","","true","","","","","","","","","","","","","","","",""
