"trial_type","trial_index","time_elapsed","internal_node_id","ParticipantID","firstStory","scramStory","rt","url","stimulus","button_pressed","key_press","correctRESP","correct","designation","success","letterStim","letterType","ONSET","TIMEOUT","CONDITION","Participant","ONSET_ACTUAL","RT","RESP","ACC","STORY","responses","response","type","surveyQuestion","QRESP"
"pavlovia","0","9","0.0-0.0","87235ee932d6ab19369f9fab94c272429fce5c1d0874562761b7bee8e9700903","swim","arctic","","","","","","","","","","","","","","","","","","","","","","","","",""
"external-html","1","18076","0.0-1.0","87235ee932d6ab19369f9fab94c272429fce5c1d0874562761b7bee8e9700903","swim","arctic","17462","consent/consent_updated.html","","","","","","","","","","","","","","","","","","","","","","",""
"html-button-response","2","22451","0.0-2.0-0.0","87235ee932d6ab19369f9fab94c272429fce5c1d0874562761b7bee8e9700903","swim","arctic","4373","","<p>Before we begin the main task, you will complete a short volume calibration and headphone check.</p><p>Please make sure you are in a quiet listening environment, that you are wearing headphones, and that your computer's volume is turned on.<p></p>","0","","","","","","","","","","","","","","","","","","","","",""
"html-button-response","3","25005","0.0-2.0-1.0","87235ee932d6ab19369f9fab94c272429fce5c1d0874562761b7bee8e9700903","swim","arctic","2287","","<p>The volume calibration will be first.</p><p>You will hear a thirty-second noise. Please adjust your computer's volume so that this noise is being presented at a comfortable level.<p></p>","0","","","","","","","","","","","","","","","","","","","","",""
"audio-button-response","4","29138","0.0-2.0-2.0","87235ee932d6ab19369f9fab94c272429fce5c1d0874562761b7bee8e9700903","swim","arctic","3867","","audio/volumetest.mp3","0","","","","","","","","","","","","","","","","","","","","",""
"html-keyboard-response","5","33759","0.0-3.0-0.0","87235ee932d6ab19369f9fab94c272429fce5c1d0874562761b7bee8e9700903","swim","arctic","4620","","<p>You will now complete a short headphone check.</p><p>On each trial, you will hear three tones. One of these tones will be quieter than the others. Your task is to identify whether the quiet tone occurred first, second, or third.</p><p>There are six trials in total.<p></p><p></p>(Press SPACEBAR to begin)","","32","","","","","","","","","","","","","","","","","","","",""
"html-keyboard-response","6","34522","0.0-3.0-1.0-0.0","87235ee932d6ab19369f9fab94c272429fce5c1d0874562761b7bee8e9700903","swim","arctic","null","","<div style=""font-size:60px;"">+</div>","","null","","","","","","","","","","","","","","","","","","","",""
"audio-button-response","7","38295","0.0-3.0-1.0-1.0","87235ee932d6ab19369f9fab94c272429fce5c1d0874562761b7bee8e9700903","swim","arctic","3770","","audio/t2_2.mp3","1","","1","1","headphone-test","","","","","","","","","","","","","","","","",""
"html-keyboard-response","8","38812","0.0-3.0-1.0-2.0","87235ee932d6ab19369f9fab94c272429fce5c1d0874562761b7bee8e9700903","swim","arctic","null","","<p>Correct</p>","","null","","","","","","","","","","","","","","","","","","","",""
"html-keyboard-response","9","39322","0.0-3.0-1.0-0.1","87235ee932d6ab19369f9fab94c272429fce5c1d0874562761b7bee8e9700903","swim","arctic","null","","<div style=""font-size:60px;"">+</div>","","null","","","","","","","","","","","","","","","","","","","",""
"audio-button-response","10","43119","0.0-3.0-1.0-1.1","87235ee932d6ab19369f9fab94c272429fce5c1d0874562761b7bee8e9700903","swim","arctic","3794","","audio/t3_1.mp3","2","","2","1","headphone-test","","","","","","","","","","","","","","","","",""
"html-keyboard-response","11","43623","0.0-3.0-1.0-2.1","87235ee932d6ab19369f9fab94c272429fce5c1d0874562761b7bee8e9700903","swim","arctic","null","","<p>Correct</p>","","null","","","","","","","","","","","","","","","","","","","",""
"html-keyboard-response","12","44132","0.0-3.0-1.0-0.2","87235ee932d6ab19369f9fab94c272429fce5c1d0874562761b7bee8e9700903","swim","arctic","null","","<div style=""font-size:60px;"">+</div>","","null","","","","","","","","","","","","","","","","","","","",""
"audio-button-response","13","47717","0.0-3.0-1.0-1.2","87235ee932d6ab19369f9fab94c272429fce5c1d0874562761b7bee8e9700903","swim","arctic","3583","","audio/t3_2.mp3","2","","2","1","headphone-test","","","","","","","","","","","","","","","","",""
"html-keyboard-response","14","48218","0.0-3.0-1.0-2.2","87235ee932d6ab19369f9fab94c272429fce5c1d0874562761b7bee8e9700903","swim","arctic","null","","<p>Correct</p>","","null","","","","","","","","","","","","","","","","","","","",""
"html-keyboard-response","15","48732","0.0-3.0-1.0-0.3","87235ee932d6ab19369f9fab94c272429fce5c1d0874562761b7bee8e9700903","swim","arctic","null","","<div style=""font-size:60px;"">+</div>","","null","","","","","","","","","","","","","","","","","","","",""
"audio-button-response","16","52286","0.0-3.0-1.0-1.3","87235ee932d6ab19369f9fab94c272429fce5c1d0874562761b7bee8e9700903","swim","arctic","3552","","audio/t1_1.mp3","0","","0","1","headphone-test","","","","","","","","","","","","","","","","",""
"html-keyboard-response","17","52796","0.0-3.0-1.0-2.3","87235ee932d6ab19369f9fab94c272429fce5c1d0874562761b7bee8e9700903","swim","arctic","null","","<p>Correct</p>","","null","","","","","","","","","","","","","","","","","","","",""
"html-keyboard-response","18","53306","0.0-3.0-1.0-0.4","87235ee932d6ab19369f9fab94c272429fce5c1d0874562761b7bee8e9700903","swim","arctic","null","","<div style=""font-size:60px;"">+</div>","","null","","","","","","","","","","","","","","","","","","","",""
"audio-button-response","19","56931","0.0-3.0-1.0-1.4","87235ee932d6ab19369f9fab94c272429fce5c1d0874562761b7bee8e9700903","swim","arctic","3623","","audio/t1_2.mp3","0","","0","1","headphone-test","","","","","","","","","","","","","","","","",""
"html-keyboard-response","20","57442","0.0-3.0-1.0-2.4","87235ee932d6ab19369f9fab94c272429fce5c1d0874562761b7bee8e9700903","swim","arctic","null","","<p>Correct</p>","","null","","","","","","","","","","","","","","","","","","","",""
"html-keyboard-response","21","57951","0.0-3.0-1.0-0.5","87235ee932d6ab19369f9fab94c272429fce5c1d0874562761b7bee8e9700903","swim","arctic","null","","<div style=""font-size:60px;"">+</div>","","null","","","","","","","","","","","","","","","","","","","",""
"audio-button-response","22","60996","0.0-3.0-1.0-1.5","87235ee932d6ab19369f9fab94c272429fce5c1d0874562761b7bee8e9700903","swim","arctic","3042","","audio/t2_1.mp3","1","","1","1","headphone-test","","","","","","","","","","","","","","","","",""
"html-keyboard-response","23","61513","0.0-3.0-1.0-2.5","87235ee932d6ab19369f9fab94c272429fce5c1d0874562761b7bee8e9700903","swim","arctic","null","","<p>Correct</p>","","null","","","","","","","","","","","","","","","","","","","",""
"fullscreen","24","63776","0.0-4.0","87235ee932d6ab19369f9fab94c272429fce5c1d0874562761b7bee8e9700903","swim","arctic","","","","","","","","","true","","","","","","","","","","","","","","","",""
"html-button-response","25","70304","0.0-5.0-0.0","87235ee932d6ab19369f9fab94c272429fce5c1d0874562761b7bee8e9700903","swim","arctic","6525","","<p>There are two blocks to this experiment.</p><p>In each block, you will hear a ~13.5 minute story. One of the stories will be scrambled. Please listen carefully to both stories and understand them as best you can.</p><p>After each story, you will be asked some questions to assess your comprehension.</p>","0","","","","","","","","","","","","","","","","","","","","",""
"html-button-response","26","80708","0.0-5.0-1.0","87235ee932d6ab19369f9fab94c272429fce5c1d0874562761b7bee8e9700903","swim","arctic","10402","","<p>During each story, there will be an additional task.</p><p>A letter will occasionally appear on the screen.</br>Your job is to - as quickly as you can - decide whether the letter is lowercase or uppercase and press one of two keys on the keyboard:</p><p>If the letter is <b>lowercase</b>, press key &lt;<b>x</b>&gt;.</p><p>If the letter is <b>uppercase</b>, press key &lt;<b>m</b>&gt;.</p>","0","","","","","","","","","","","","","","","","","","","","",""
"html-keyboard-response","27","83829","0.0-5.0-2.0","87235ee932d6ab19369f9fab94c272429fce5c1d0874562761b7bee8e9700903","swim","arctic","3121","","<p>Because we want your responses to be as quick as possible, please keep your index fingers over the keys while listening.</p><p>Each block lasts about 20 minutes.</p><p><b>Press &lt;x&gt; or &lt;m&gt; to start the first block!</b></p>","","88","","","","","","","","","","","","","","","","","","","",""
"html-keyboard-response","28","84342","0.0-7.0-0.0-0.0","87235ee932d6ab19369f9fab94c272429fce5c1d0874562761b7bee8e9700903","swim","arctic","null","","<div style=""font-size:60px;"" tabindex=""0"">+</div>","","null","","","","","","","","","","","","","","","","","","","",""
"dual-task","null","null","null","","swim","arctic","843.5","","D","null","77","77","1","swim-dual-task","","D","uppercase","16000","0","4","87235ee932d6ab19369f9fab94c272429fce5c1d0874562761b7bee8e9700903","16019.799999952316","843.5","77","1","swim","","","","",""
"dual-task","null","null","null","","swim","arctic","900.2999999523163","","F","null","77","77","1","swim-dual-task","","F","uppercase","22000","0","4","87235ee932d6ab19369f9fab94c272429fce5c1d0874562761b7bee8e9700903","22007.600000023842","900.2999999523163","77","1","swim","","","","",""
"dual-task","null","null","null","","swim","arctic","694.2999999523163","","t","null","88","88","1","swim-dual-task","","t","lowercase","36000","0","4","87235ee932d6ab19369f9fab94c272429fce5c1d0874562761b7bee8e9700903","36006.89999997616","694.2999999523163","88","1","swim","","","","",""
"dual-task","null","null","null","","swim","arctic","653.2000000476837","","h","null","88","88","1","swim-dual-task","","h","lowercase","46000","0","4","87235ee932d6ab19369f9fab94c272429fce5c1d0874562761b7bee8e9700903","46018.199999928474","653.2000000476837","88","1","swim","","","","",""
"dual-task","null","null","null","","swim","arctic","559.5","","Q","null","77","77","1","swim-dual-task","","Q","uppercase","52000","0","4","87235ee932d6ab19369f9fab94c272429fce5c1d0874562761b7bee8e9700903","52018.60000002384","559.5","77","1","swim","","","","",""
"dual-task","null","null","null","","swim","arctic","564","","D","null","77","77","1","swim-dual-task","","D","uppercase","60000","0","4","87235ee932d6ab19369f9fab94c272429fce5c1d0874562761b7bee8e9700903","60019.10000002384","564","77","1","swim","","","","",""
"dual-task","null","null","null","","swim","arctic","544.3999999761581","","e","null","88","88","1","swim-dual-task","","e","lowercase","70000","0","4","87235ee932d6ab19369f9fab94c272429fce5c1d0874562761b7bee8e9700903","70013.5","544.3999999761581","88","1","swim","","","","",""
"dual-task","null","null","null","","swim","arctic","504.5","","e","null","88","88","1","swim-dual-task","","e","lowercase","84000","0","4","87235ee932d6ab19369f9fab94c272429fce5c1d0874562761b7bee8e9700903","84008.60000002384","504.5","88","1","swim","","","","",""
"dual-task","null","null","null","","swim","arctic","585.1000000238419","","R","null","77","77","1","swim-dual-task","","R","uppercase","90000","0","4","87235ee932d6ab19369f9fab94c272429fce5c1d0874562761b7bee8e9700903","90002.60000002384","585.1000000238419","77","1","swim","","","","",""
"dual-task","null","null","null","","swim","arctic","492.39999997615814","","G","null","77","77","1","swim-dual-task","","G","uppercase","102000","0","4","87235ee932d6ab19369f9fab94c272429fce5c1d0874562761b7bee8e9700903","102019","492.39999997615814","77","1","swim","","","","",""
"dual-task","null","null","null","","swim","arctic","562","","H","null","77","77","1","swim-dual-task","","H","uppercase","114000","0","4","87235ee932d6ab19369f9fab94c272429fce5c1d0874562761b7bee8e9700903","114006.69999992847","562","77","1","swim","","","","",""
"dual-task","null","null","null","","swim","arctic","439.60000002384186","","n","null","88","88","1","swim-dual-task","","n","lowercase","122000","0","4","87235ee932d6ab19369f9fab94c272429fce5c1d0874562761b7bee8e9700903","122002.39999997616","439.60000002384186","88","1","swim","","","","",""
"dual-task","null","null","null","","swim","arctic","571.7000000476837","","r","null","88","88","1","swim-dual-task","","r","lowercase","130000","0","4","87235ee932d6ab19369f9fab94c272429fce5c1d0874562761b7bee8e9700903","130007.89999997616","571.7000000476837","88","1","swim","","","","",""
"dual-task","null","null","null","","swim","arctic","666","","R","null","77","77","1","swim-dual-task","","R","uppercase","142000","0","4","87235ee932d6ab19369f9fab94c272429fce5c1d0874562761b7bee8e9700903","142017.79999995232","666","77","1","swim","","","","",""
"dual-task","null","null","null","","swim","arctic","477.40000009536743","","R","null","77","77","1","swim-dual-task","","R","uppercase","148000","0","4","87235ee932d6ab19369f9fab94c272429fce5c1d0874562761b7bee8e9700903","148004.29999995232","477.40000009536743","77","1","swim","","","","",""
"dual-task","null","null","null","","swim","arctic","594.7999999523163","","A","null","77","77","1","swim-dual-task","","A","uppercase","158000","0","4","87235ee932d6ab19369f9fab94c272429fce5c1d0874562761b7bee8e9700903","158018","594.7999999523163","77","1","swim","","","","",""
"dual-task","null","null","null","","swim","arctic","492.89999997615814","","g","null","88","88","1","swim-dual-task","","g","lowercase","166000","0","4","87235ee932d6ab19369f9fab94c272429fce5c1d0874562761b7bee8e9700903","166007.89999997616","492.89999997615814","88","1","swim","","","","",""
"dual-task","null","null","null","","swim","arctic","477.8000000715256","","G","null","77","77","1","swim-dual-task","","G","uppercase","180000","0","4","87235ee932d6ab19369f9fab94c272429fce5c1d0874562761b7bee8e9700903","180018.69999992847","477.8000000715256","77","1","swim","","","","",""
"dual-task","null","null","null","","swim","arctic","499.39999997615814","","r","null","88","88","1","swim-dual-task","","r","lowercase","192000","0","4","87235ee932d6ab19369f9fab94c272429fce5c1d0874562761b7bee8e9700903","192018.89999997616","499.39999997615814","88","1","swim","","","","",""
"dual-task","null","null","null","","swim","arctic","609","","N","null","77","77","1","swim-dual-task","","N","uppercase","200000","0","4","87235ee932d6ab19369f9fab94c272429fce5c1d0874562761b7bee8e9700903","200007.89999997616","609","77","1","swim","","","","",""
"dual-task","null","null","null","","swim","arctic","588.8999999761581","","d","null","88","88","1","swim-dual-task","","d","lowercase","206000","0","4","87235ee932d6ab19369f9fab94c272429fce5c1d0874562761b7bee8e9700903","206019.10000002384","588.8999999761581","88","1","swim","","","","",""
"dual-task","null","null","null","","swim","arctic","535","","B","null","77","77","1","swim-dual-task","","B","uppercase","216000","0","4","87235ee932d6ab19369f9fab94c272429fce5c1d0874562761b7bee8e9700903","216007.89999997616","535","77","1","swim","","","","",""
"dual-task","null","null","null","","swim","arctic","486.89999997615814","","A","null","77","77","1","swim-dual-task","","A","uppercase","222000","0","4","87235ee932d6ab19369f9fab94c272429fce5c1d0874562761b7bee8e9700903","222018.69999992847","486.89999997615814","77","1","swim","","","","",""
"dual-task","null","null","null","","swim","arctic","956.8000000715256","","f","null","88","88","1","swim-dual-task","","f","lowercase","232000","0","4","87235ee932d6ab19369f9fab94c272429fce5c1d0874562761b7bee8e9700903","232018.79999995232","956.8000000715256","88","1","swim","","","","",""
"dual-task","null","null","null","","swim","arctic","688.6999999284744","","g","null","88","88","1","swim-dual-task","","g","lowercase","244000","0","4","87235ee932d6ab19369f9fab94c272429fce5c1d0874562761b7bee8e9700903","244013.29999995232","688.6999999284744","88","1","swim","","","","",""
"dual-task","null","null","null","","swim","arctic","600.2999999523163","","n","null","88","88","1","swim-dual-task","","n","lowercase","250000","0","4","87235ee932d6ab19369f9fab94c272429fce5c1d0874562761b7bee8e9700903","250007.79999995232","600.2999999523163","88","1","swim","","","","",""
"dual-task","null","null","null","","swim","arctic","507.09999990463257","","h","null","88","88","1","swim-dual-task","","h","lowercase","262000","0","4","87235ee932d6ab19369f9fab94c272429fce5c1d0874562761b7bee8e9700903","262006.60000002384","507.09999990463257","88","1","swim","","","","",""
"dual-task","null","null","null","","swim","arctic","733.8000000715256","","E","null","77","77","1","swim-dual-task","","E","uppercase","272000","0","4","87235ee932d6ab19369f9fab94c272429fce5c1d0874562761b7bee8e9700903","272018.7999999523","733.8000000715256","77","1","swim","","","","",""
"dual-task","null","null","null","","swim","arctic","602.5999999046326","","g","null","88","88","1","swim-dual-task","","g","lowercase","278000","0","4","87235ee932d6ab19369f9fab94c272429fce5c1d0874562761b7bee8e9700903","278007.6999999285","602.5999999046326","88","1","swim","","","","",""
"dual-task","null","null","null","","swim","arctic","620","","b","null","88","88","1","swim-dual-task","","b","lowercase","292000","0","4","87235ee932d6ab19369f9fab94c272429fce5c1d0874562761b7bee8e9700903","292007.6999999285","620","88","1","swim","","","","",""
"dual-task","null","null","null","","swim","arctic","540.8999999761581","","T","null","77","77","1","swim-dual-task","","T","uppercase","304000","0","4","87235ee932d6ab19369f9fab94c272429fce5c1d0874562761b7bee8e9700903","304007.7999999523","540.8999999761581","77","1","swim","","","","",""
"dual-task","null","null","null","","swim","arctic","704.2000000476837","","G","null","77","77","1","swim-dual-task","","G","uppercase","316000","0","4","87235ee932d6ab19369f9fab94c272429fce5c1d0874562761b7bee8e9700903","316018.5","704.2000000476837","77","1","swim","","","","",""
"dual-task","null","null","null","","swim","arctic","571.3999999761581","","a","null","88","88","1","swim-dual-task","","a","lowercase","324000","0","4","87235ee932d6ab19369f9fab94c272429fce5c1d0874562761b7bee8e9700903","324018.7999999523","571.3999999761581","88","1","swim","","","","",""
"dual-task","null","null","null","","swim","arctic","576.4000000953674","","b","null","88","88","1","swim-dual-task","","b","lowercase","336000","0","4","87235ee932d6ab19369f9fab94c272429fce5c1d0874562761b7bee8e9700903","336007.5","576.4000000953674","88","1","swim","","","","",""
"dual-task","null","null","null","","swim","arctic","697.7000000476837","","E","null","77","77","1","swim-dual-task","","E","uppercase","346000","0","4","87235ee932d6ab19369f9fab94c272429fce5c1d0874562761b7bee8e9700903","346007.60000002384","697.7000000476837","77","1","swim","","","","",""
"dual-task","null","null","null","","swim","arctic","527.8999999761581","","d","null","88","88","1","swim-dual-task","","d","lowercase","360000","0","4","87235ee932d6ab19369f9fab94c272429fce5c1d0874562761b7bee8e9700903","360007.60000002384","527.8999999761581","88","1","swim","","","","",""
"dual-task","null","null","null","","swim","arctic","620.8999999761581","","n","null","88","88","1","swim-dual-task","","n","lowercase","368000","0","4","87235ee932d6ab19369f9fab94c272429fce5c1d0874562761b7bee8e9700903","368017.89999997616","620.8999999761581","88","1","swim","","","","",""
"dual-task","null","null","null","","swim","arctic","513.4000000953674","","f","null","88","88","1","swim-dual-task","","f","lowercase","378000","0","4","87235ee932d6ab19369f9fab94c272429fce5c1d0874562761b7bee8e9700903","378017.60000002384","513.4000000953674","88","1","swim","","","","",""
"dual-task","null","null","null","","swim","arctic","551.7000000476837","","B","null","77","77","1","swim-dual-task","","B","uppercase","386000","0","4","87235ee932d6ab19369f9fab94c272429fce5c1d0874562761b7bee8e9700903","386017.60000002384","551.7000000476837","77","1","swim","","","","",""
"dual-task","null","null","null","","swim","arctic","545.2000000476837","","B","null","77","77","1","swim-dual-task","","B","uppercase","398000","0","4","87235ee932d6ab19369f9fab94c272429fce5c1d0874562761b7bee8e9700903","398017.60000002384","545.2000000476837","77","1","swim","","","","",""
"dual-task","null","null","null","","swim","arctic","474.2000000476837","","B","null","77","77","1","swim-dual-task","","B","uppercase","408000","0","4","87235ee932d6ab19369f9fab94c272429fce5c1d0874562761b7bee8e9700903","408004.2999999523","474.2000000476837","77","1","swim","","","","",""
"dual-task","null","null","null","","swim","arctic","528.1999999284744","","d","null","88","88","1","swim-dual-task","","d","lowercase","418000","0","4","87235ee932d6ab19369f9fab94c272429fce5c1d0874562761b7bee8e9700903","418001.60000002384","528.1999999284744","88","1","swim","","","","",""
"dual-task","null","null","null","","swim","arctic","889.6999999284744","","T","null","77","77","1","swim-dual-task","","T","uppercase","426000","0","4","87235ee932d6ab19369f9fab94c272429fce5c1d0874562761b7bee8e9700903","426006.1999999285","889.6999999284744","77","1","swim","","","","",""
"dual-task","null","null","null","","swim","arctic","606.5","","q","null","88","88","1","swim-dual-task","","q","lowercase","432000","0","4","87235ee932d6ab19369f9fab94c272429fce5c1d0874562761b7bee8e9700903","432007.7999999523","606.5","88","1","swim","","","","",""
"dual-task","null","null","null","","swim","arctic","637.6000000238419","","A","null","77","77","1","swim-dual-task","","A","uppercase","440000","0","4","87235ee932d6ab19369f9fab94c272429fce5c1d0874562761b7bee8e9700903","440018.5","637.6000000238419","77","1","swim","","","","",""
"dual-task","null","null","null","","swim","arctic","513.7000000476837","","h","null","88","88","1","swim-dual-task","","h","lowercase","448000","0","4","87235ee932d6ab19369f9fab94c272429fce5c1d0874562761b7bee8e9700903","448016.7999999523","513.7000000476837","88","1","swim","","","","",""
"dual-task","null","null","null","","swim","arctic","392.6999999284744","","n","null","88","88","1","swim-dual-task","","n","lowercase","458000","0","4","87235ee932d6ab19369f9fab94c272429fce5c1d0874562761b7bee8e9700903","458017.7999999523","392.6999999284744","88","1","swim","","","","",""
"dual-task","null","null","null","","swim","arctic","614.3999999761581","","f","null","88","88","1","swim-dual-task","","f","lowercase","472000","0","4","87235ee932d6ab19369f9fab94c272429fce5c1d0874562761b7bee8e9700903","472006.6999999285","614.3999999761581","88","1","swim","","","","",""
"dual-task","null","null","null","","swim","arctic","515","","E","null","77","77","1","swim-dual-task","","E","uppercase","484000","0","4","87235ee932d6ab19369f9fab94c272429fce5c1d0874562761b7bee8e9700903","484005.5","515","77","1","swim","","","","",""
"dual-task","null","null","null","","swim","arctic","527","","a","null","88","88","1","swim-dual-task","","a","lowercase","492000","0","4","87235ee932d6ab19369f9fab94c272429fce5c1d0874562761b7bee8e9700903","492017.10000002384","527","88","1","swim","","","","",""
"dual-task","null","null","null","","swim","arctic","494.2000000476837","","G","null","77","77","1","swim-dual-task","","G","uppercase","502000","0","4","87235ee932d6ab19369f9fab94c272429fce5c1d0874562761b7bee8e9700903","502017.39999997616","494.2000000476837","77","1","swim","","","","",""
"dual-task","null","null","null","","swim","arctic","545","","q","null","88","88","1","swim-dual-task","","q","lowercase","514000","0","4","87235ee932d6ab19369f9fab94c272429fce5c1d0874562761b7bee8e9700903","514016","545","88","1","swim","","","","",""
"dual-task","null","null","null","","swim","arctic","428.10000002384186","","H","null","77","77","1","swim-dual-task","","H","uppercase","526000","0","4","87235ee932d6ab19369f9fab94c272429fce5c1d0874562761b7bee8e9700903","526012","428.10000002384186","77","1","swim","","","","",""
"dual-task","null","null","null","","swim","arctic","486.10000002384186","","g","null","88","88","1","swim-dual-task","","g","lowercase","538000","0","4","87235ee932d6ab19369f9fab94c272429fce5c1d0874562761b7bee8e9700903","538006.6999999285","486.10000002384186","88","1","swim","","","","",""
"dual-task","null","null","null","","swim","arctic","537.6000000238419","","T","null","77","77","1","swim-dual-task","","T","uppercase","548000","0","4","87235ee932d6ab19369f9fab94c272429fce5c1d0874562761b7bee8e9700903","548007.3999999762","537.6000000238419","77","1","swim","","","","",""
"dual-task","null","null","null","","swim","arctic","570.3999999761581","","D","null","77","77","1","swim-dual-task","","D","uppercase","560000","0","4","87235ee932d6ab19369f9fab94c272429fce5c1d0874562761b7bee8e9700903","560017.6999999285","570.3999999761581","77","1","swim","","","","",""
"dual-task","null","null","null","","swim","arctic","681.3999999761581","","r","null","88","88","1","swim-dual-task","","r","lowercase","570000","0","4","87235ee932d6ab19369f9fab94c272429fce5c1d0874562761b7bee8e9700903","570017.5","681.3999999761581","88","1","swim","","","","",""
"dual-task","null","null","null","","swim","arctic","473","","E","null","77","77","1","swim-dual-task","","E","uppercase","576000","0","4","87235ee932d6ab19369f9fab94c272429fce5c1d0874562761b7bee8e9700903","576007","473","77","1","swim","","","","",""
"dual-task","null","null","null","","swim","arctic","582.3000000715256","","q","null","88","88","1","swim-dual-task","","q","lowercase","584000","0","4","87235ee932d6ab19369f9fab94c272429fce5c1d0874562761b7bee8e9700903","584007","582.3000000715256","88","1","swim","","","","",""
"dual-task","null","null","null","","swim","arctic","505.6999999284744","","N","null","77","77","1","swim-dual-task","","N","uppercase","596000","0","4","87235ee932d6ab19369f9fab94c272429fce5c1d0874562761b7bee8e9700903","596001.2999999523","505.6999999284744","77","1","swim","","","","",""
"dual-task","null","null","null","","swim","arctic","442.60000002384186","","F","null","77","77","1","swim-dual-task","","F","uppercase","608000","0","4","87235ee932d6ab19369f9fab94c272429fce5c1d0874562761b7bee8e9700903","608013.8999999762","442.60000002384186","77","1","swim","","","","",""
"dual-task","null","null","null","","swim","arctic","559","","Q","null","77","77","1","swim-dual-task","","Q","uppercase","618000","0","4","87235ee932d6ab19369f9fab94c272429fce5c1d0874562761b7bee8e9700903","618017.3999999762","559","77","1","swim","","","","",""
"dual-task","null","null","null","","swim","arctic","443.8000000715256","","F","null","77","77","1","swim-dual-task","","F","uppercase","626000","0","4","87235ee932d6ab19369f9fab94c272429fce5c1d0874562761b7bee8e9700903","626001.5","443.8000000715256","77","1","swim","","","","",""
"dual-task","null","null","null","","swim","arctic","385.7000000476837","","A","null","77","77","1","swim-dual-task","","A","uppercase","638000","0","4","87235ee932d6ab19369f9fab94c272429fce5c1d0874562761b7bee8e9700903","638003.2999999523","385.7000000476837","77","1","swim","","","","",""
"dual-task","null","null","null","","swim","arctic","543.7000000476837","","a","null","88","88","1","swim-dual-task","","a","lowercase","644000","0","4","87235ee932d6ab19369f9fab94c272429fce5c1d0874562761b7bee8e9700903","644015.1000000238","543.7000000476837","88","1","swim","","","","",""
"dual-task","null","null","null","","swim","arctic","497.1999999284744","","t","null","88","88","1","swim-dual-task","","t","lowercase","658000","0","4","87235ee932d6ab19369f9fab94c272429fce5c1d0874562761b7bee8e9700903","658015.2999999523","497.1999999284744","88","1","swim","","","","",""
"dual-task","null","null","null","","swim","arctic","426.5","","e","null","88","88","1","swim-dual-task","","e","lowercase","668000","0","4","87235ee932d6ab19369f9fab94c272429fce5c1d0874562761b7bee8e9700903","668004.8999999762","426.5","88","1","swim","","","","",""
"dual-task","null","null","null","","swim","arctic","592.3999999761581","","Q","null","77","77","1","swim-dual-task","","Q","uppercase","678000","0","4","87235ee932d6ab19369f9fab94c272429fce5c1d0874562761b7bee8e9700903","678006.3999999762","592.3999999761581","77","1","swim","","","","",""
"dual-task","null","null","null","","swim","arctic","792.2999999523163","","t","null","88","88","1","swim-dual-task","","t","lowercase","686000","0","4","87235ee932d6ab19369f9fab94c272429fce5c1d0874562761b7bee8e9700903","686004.1999999285","792.2999999523163","88","1","swim","","","","",""
"dual-task","null","null","null","","swim","arctic","456.6999999284744","","R","null","77","77","1","swim-dual-task","","R","uppercase","698000","0","4","87235ee932d6ab19369f9fab94c272429fce5c1d0874562761b7bee8e9700903","698011","456.6999999284744","77","1","swim","","","","",""
"dual-task","null","null","null","","swim","arctic","502.5","","H","null","77","77","1","swim-dual-task","","H","uppercase","706000","0","4","87235ee932d6ab19369f9fab94c272429fce5c1d0874562761b7bee8e9700903","706017.1000000238","502.5","77","1","swim","","","","",""
"dual-task","null","null","null","","swim","arctic","597.3000000715256","","d","null","88","88","1","swim-dual-task","","d","lowercase","714000","0","4","87235ee932d6ab19369f9fab94c272429fce5c1d0874562761b7bee8e9700903","714017.1000000238","597.3000000715256","88","1","swim","","","","",""
"dual-task","null","null","null","","swim","arctic","491.5","","H","null","77","77","1","swim-dual-task","","H","uppercase","728000","0","4","87235ee932d6ab19369f9fab94c272429fce5c1d0874562761b7bee8e9700903","728009.5","491.5","77","1","swim","","","","",""
"dual-task","null","null","null","","swim","arctic","466.39999997615814","","D","null","77","77","1","swim-dual-task","","D","uppercase","738000","0","4","87235ee932d6ab19369f9fab94c272429fce5c1d0874562761b7bee8e9700903","738005.7999999523","466.39999997615814","77","1","swim","","","","",""
"dual-task","null","null","null","","swim","arctic","822.1000000238419","","r","null","88","88","1","swim-dual-task","","r","lowercase","750000","0","4","87235ee932d6ab19369f9fab94c272429fce5c1d0874562761b7bee8e9700903","750017.5","822.1000000238419","88","1","swim","","","","",""
"dual-task","null","null","null","","swim","arctic","622.0999999046326","","N","null","77","77","1","swim-dual-task","","N","uppercase","758000","0","4","87235ee932d6ab19369f9fab94c272429fce5c1d0874562761b7bee8e9700903","758013.6999999285","622.0999999046326","77","1","swim","","","","",""
"dual-task","null","null","null","","swim","arctic","600.2000000476837","","F","null","77","77","1","swim-dual-task","","F","uppercase","764000","0","4","87235ee932d6ab19369f9fab94c272429fce5c1d0874562761b7bee8e9700903","764017","600.2000000476837","77","1","swim","","","","",""
"dual-task","null","null","null","","swim","arctic","510.5","","a","null","88","88","1","swim-dual-task","","a","lowercase","774000","0","4","87235ee932d6ab19369f9fab94c272429fce5c1d0874562761b7bee8e9700903","774017","510.5","88","1","swim","","","","",""
"dual-task","null","null","null","","swim","arctic","431.40000009536743","","e","null","88","88","1","swim-dual-task","","e","lowercase","780000","0","4","87235ee932d6ab19369f9fab94c272429fce5c1d0874562761b7bee8e9700903","780008.8999999762","431.40000009536743","88","1","swim","","","","",""
"dual-task","null","null","null","","swim","arctic","503.8000000715256","","f","null","88","88","1","swim-dual-task","","f","lowercase","786000","0","4","87235ee932d6ab19369f9fab94c272429fce5c1d0874562761b7bee8e9700903","786002","503.8000000715256","88","1","swim","","","","",""
"dual-task","null","null","null","","swim","arctic","581.5","","T","null","77","77","1","swim-dual-task","","T","uppercase","796000","0","4","87235ee932d6ab19369f9fab94c272429fce5c1d0874562761b7bee8e9700903","796016.7999999523","581.5","77","1","swim","","","","",""
"audio-keyboard-response","29","894381","0.0-7.0-0.0-1.0","87235ee932d6ab19369f9fab94c272429fce5c1d0874562761b7bee8e9700903","swim","arctic","null","","audio/story_swim.mp3","","null","","","","","","","","","","","","","","","","","","","",""
"html-button-response","30","897187","0.0-7.0-0.0-2.0","87235ee932d6ab19369f9fab94c272429fce5c1d0874562761b7bee8e9700903","swim","arctic","2804","","<p>This concludes the story. Thank you for listening.</p><p>You will now answer some questions about the content of the story.</p>","0","","","","","","","","","","","","","","","","","","","","",""
"survey-multi-choice","31","900687","0.0-7.0-0.0-3.0-0.0","87235ee932d6ab19369f9fab94c272429fce5c1d0874562761b7bee8e9700903","swim","arctic","3491","","<b>What is the narrator afraid of, aside from the water?</b>","","","","1","swim-comprehension","","","","","","","","","","","","","{""Q0"":""Heights""}","","","",""
"survey-multi-choice","32","905538","0.0-7.0-0.0-3.0-0.1","87235ee932d6ab19369f9fab94c272429fce5c1d0874562761b7bee8e9700903","swim","arctic","4594","","<b>How many astronaut candidates passed the first swim test?</b>","","","","0","swim-comprehension","","","","","","","","","","","","","{""Q0"":""All but one""}","","","",""
"survey-multi-choice","33","910068","0.0-7.0-0.0-3.0-0.2","87235ee932d6ab19369f9fab94c272429fce5c1d0874562761b7bee8e9700903","swim","arctic","4275","","<b>What gave the narrator his greatest feeling of accomplishment?</b>","","","","1","swim-comprehension","","","","","","","","","","","","","{""Q0"":""Passing the water survival course""}","","","",""
"survey-multi-choice","34","917947","0.0-7.0-0.0-3.0-0.3","87235ee932d6ab19369f9fab94c272429fce5c1d0874562761b7bee8e9700903","swim","arctic","7620","","<b>What were the astronaut candidates trained to do at the naval air station?</b>","","","","1","swim-comprehension","","","","","","","","","","","","","{""Q0"":""Eject out of aircraft and survive in water long enough to be rescued""}","","","",""
"survey-multi-choice","35","921917","0.0-7.0-0.0-3.0-0.4","87235ee932d6ab19369f9fab94c272429fce5c1d0874562761b7bee8e9700903","swim","arctic","3704","","<b>How many times did the astronaut candidates have to complete the final exercise to pass?</b>","","","","1","swim-comprehension","","","","","","","","","","","","","{""Q0"":""Two""}","","","",""
"survey-multi-choice","36","926879","0.0-7.0-0.0-3.0-0.5","87235ee932d6ab19369f9fab94c272429fce5c1d0874562761b7bee8e9700903","swim","arctic","4707","","<b>Where is the home of naval aviation?</b>","","","","1","swim-comprehension","","","","","","","","","","","","","{""Q0"":""Pensacola""}","","","",""
"survey-multi-choice","37","933488","0.0-7.0-0.0-3.0-0.6","87235ee932d6ab19369f9fab94c272429fce5c1d0874562761b7bee8e9700903","swim","arctic","6354","","<b>How many astronaut candidates reported for duty at the Johnson Space Center?</b>","","","","1","swim-comprehension","","","","","","","","","","","","","{""Q0"":""Forty-four""}","","","",""
"survey-multi-choice","38","938354","0.0-7.0-0.0-3.0-0.7","87235ee932d6ab19369f9fab94c272429fce5c1d0874562761b7bee8e9700903","swim","arctic","4611","","<b>How often does the narrator swim, now that he is a good swimmer?</b>","","","","1","swim-comprehension","","","","","","","","","","","","","{""Q0"":""Never swam again in his life""}","","","",""
"survey-multi-choice","39","944476","0.0-7.0-0.0-3.0-0.8","87235ee932d6ab19369f9fab94c272429fce5c1d0874562761b7bee8e9700903","swim","arctic","5867","","<b>How did the narrator train for his swim test?</b>","","","","0","swim-comprehension","","","","","","","","","","","","","{""Q0"":""Swam at the lake every day""}","","","",""
"survey-multi-choice","40","953602","0.0-7.0-0.0-3.0-0.9","87235ee932d6ab19369f9fab94c272429fce5c1d0874562761b7bee8e9700903","swim","arctic","8870","","<b>What was the final step of the first swim test in the pool?</b>","","","","0","swim-comprehension","","","","","","","","","","","","","{""Q0"":""Perform a water rescue""}","","","",""
"html-button-response","41","955090","0.0-7.0-0.0-4.0","87235ee932d6ab19369f9fab94c272429fce5c1d0874562761b7bee8e9700903","swim","arctic","1235","","<p>Thank you for your responses.</p><p>You will now answer some questions about your impressions of the story.</p>","0","","","","","","","","","","","","","","","","","","","","",""
"html-button-response","42","956784","0.0-7.0-0.0-5.0-0.0","87235ee932d6ab19369f9fab94c272429fce5c1d0874562761b7bee8e9700903","swim","arctic","1692","","E1","4","","","","swim-engagement","","","","","","","","","","","","","","5","enjoyment","",""
"html-button-response","43","959255","0.0-7.0-0.0-5.0-0.1","87235ee932d6ab19369f9fab94c272429fce5c1d0874562761b7bee8e9700903","swim","arctic","2218","","EE5","4","","","","swim-engagement","","","","","","","","","","","","","","5","emo-engage","",""
"html-button-response","44","961984","0.0-7.0-0.0-5.0-0.2","87235ee932d6ab19369f9fab94c272429fce5c1d0874562761b7bee8e9700903","swim","arctic","2476","","A1","2","","","","swim-engagement","","","","","","","","","","","","","","3","absorption","",""
"html-button-response","45","963951","0.0-7.0-0.0-5.0-0.3","87235ee932d6ab19369f9fab94c272429fce5c1d0874562761b7bee8e9700903","swim","arctic","1711","","EE2","4","","","","swim-engagement","","","","","","","","","","","","","","5","emo-engage","",""
"html-button-response","46","966304","0.0-7.0-0.0-5.0-0.4","87235ee932d6ab19369f9fab94c272429fce5c1d0874562761b7bee8e9700903","swim","arctic","2101","","MS1","6","","","","swim-engagement","","","","","","","","","","","","","","7","mental-sim","",""
"html-button-response","47","967884","0.0-7.0-0.0-5.0-0.5","87235ee932d6ab19369f9fab94c272429fce5c1d0874562761b7bee8e9700903","swim","arctic","1327","","E7","5","","","","swim-engagement","","","","","","","","","","","","","","6","enjoyment","",""
"html-button-response","48","969938","0.0-7.0-0.0-5.0-0.6","87235ee932d6ab19369f9fab94c272429fce5c1d0874562761b7bee8e9700903","swim","arctic","1801","","EE3","3","","","","swim-engagement","","","","","","","","","","","","","","4","emo-engage","",""
"html-button-response","49","972641","0.0-7.0-0.0-5.0-0.7","87235ee932d6ab19369f9fab94c272429fce5c1d0874562761b7bee8e9700903","swim","arctic","2451","","MS3","4","","","","swim-engagement","","","","","","","","","","","","","","5","mental-sim","",""
"html-button-response","50","974295","0.0-7.0-0.0-5.0-0.8","87235ee932d6ab19369f9fab94c272429fce5c1d0874562761b7bee8e9700903","swim","arctic","1400","","E10","5","","","","swim-engagement","","","","","","","","","","","","","","6","enjoyment","",""
"html-button-response","51","975892","0.0-7.0-0.0-5.0-0.9","87235ee932d6ab19369f9fab94c272429fce5c1d0874562761b7bee8e9700903","swim","arctic","1344","","E6","4","","","","swim-engagement","","","","","","","","","","","","","","5","enjoyment","",""
"html-button-response","52","979455","0.0-7.0-0.0-5.0-0.10","87235ee932d6ab19369f9fab94c272429fce5c1d0874562761b7bee8e9700903","swim","arctic","3310","","A4","2","","","","swim-engagement","","","","","","","","","","","","","","3","absorption","",""
"html-button-response","53","982978","0.0-7.0-0.0-5.0-0.11","87235ee932d6ab19369f9fab94c272429fce5c1d0874562761b7bee8e9700903","swim","arctic","3270","","MS2","4","","","","swim-engagement","","","","","","","","","","","","","","5","mental-sim","",""
"html-button-response","54","984517","0.0-7.0-0.0-5.0-0.12","87235ee932d6ab19369f9fab94c272429fce5c1d0874562761b7bee8e9700903","swim","arctic","1286","","E8","3","","","","swim-engagement","","","","","","","","","","","","","","4","enjoyment","",""
"html-button-response","55","986046","0.0-7.0-0.0-5.0-0.13","87235ee932d6ab19369f9fab94c272429fce5c1d0874562761b7bee8e9700903","swim","arctic","1276","","A3","4","","","","swim-engagement","","","","","","","","","","","","","","5","absorption","",""
"html-button-response","56","989072","0.0-7.0-0.0-5.0-0.14","87235ee932d6ab19369f9fab94c272429fce5c1d0874562761b7bee8e9700903","swim","arctic","2774","","A2","5","","","","swim-engagement","","","","","","","","","","","","","","6","absorption","",""
"html-button-response","57","992488","0.0-7.0-0.0-5.0-0.15","87235ee932d6ab19369f9fab94c272429fce5c1d0874562761b7bee8e9700903","swim","arctic","3163","","EE1","4","","","","swim-engagement","","","","","","","","","","","","","","5","emo-engage","",""
"html-button-response","58","994728","0.0-7.0-0.0-5.0-0.16","87235ee932d6ab19369f9fab94c272429fce5c1d0874562761b7bee8e9700903","swim","arctic","1987","","A5","2","","","","swim-engagement","","","","","","","","","","","","","","3","absorption","",""
"html-button-response","59","997936","0.0-7.0-0.0-5.0-0.17","87235ee932d6ab19369f9fab94c272429fce5c1d0874562761b7bee8e9700903","swim","arctic","2952","","EE4","2","","","","swim-engagement","","","","","","","","","","","","","","3","emo-engage","",""
"html-keyboard-response","60","1003297","0.0-7.0-1.0","87235ee932d6ab19369f9fab94c272429fce5c1d0874562761b7bee8e9700903","swim","arctic","5109","","<p>Thank you for your responses. You will now listen to the second story.</p><p>Remember, as you listen to the story you will see letters appear on the screen.</br>As quickly as possible, press <b>&lt;x&gt;</b> if the letter is lowercase and <b>&lt;m&gt;</b> if the letter is uppercase.</p><p>Press <b>&lt;x&gt;</b> or <b>&lt;m&gt;</b> to begin listening!</p>","","88","","","","","","","","","","","","","","","","","","","",""
"html-keyboard-response","61","1003799","0.0-7.0-2.0-0.0","87235ee932d6ab19369f9fab94c272429fce5c1d0874562761b7bee8e9700903","swim","arctic","null","","<div style=""font-size:60px;"" tabindex=""0"">+</div>","","null","","","","","","","","","","","","","","","","","","","",""
"dual-task","null","null","null","","swim","arctic","535","","Q","null","77","77","1","arctic-dual-task","","Q","uppercase","16000","0","4","87235ee932d6ab19369f9fab94c272429fce5c1d0874562761b7bee8e9700903","16007.300000071526","535","77","1","arctic","","","","",""
"dual-task","null","null","null","","swim","arctic","463.89999997615814","","H","null","77","77","1","arctic-dual-task","","H","uppercase","22000","0","4","87235ee932d6ab19369f9fab94c272429fce5c1d0874562761b7bee8e9700903","22011.700000047684","463.89999997615814","77","1","arctic","","","","",""
"dual-task","null","null","null","","swim","arctic","542.5","","g","null","88","88","1","arctic-dual-task","","g","lowercase","30000","0","4","87235ee932d6ab19369f9fab94c272429fce5c1d0874562761b7bee8e9700903","30002","542.5","88","1","arctic","","","","",""
"dual-task","null","null","null","","swim","arctic","557.5999999046326","","r","null","88","88","1","arctic-dual-task","","r","lowercase","40000","0","4","87235ee932d6ab19369f9fab94c272429fce5c1d0874562761b7bee8e9700903","40001.800000071526","557.5999999046326","88","1","arctic","","","","",""
"dual-task","null","null","null","","swim","arctic","547.2999999523163","","G","null","77","77","1","arctic-dual-task","","G","uppercase","52000","0","4","87235ee932d6ab19369f9fab94c272429fce5c1d0874562761b7bee8e9700903","52006.800000071526","547.2999999523163","77","1","arctic","","","","",""
"dual-task","null","null","null","","swim","arctic","555.7999999523163","","A","null","77","77","1","arctic-dual-task","","A","uppercase","60000","0","4","87235ee932d6ab19369f9fab94c272429fce5c1d0874562761b7bee8e9700903","60007.200000047684","555.7999999523163","77","1","arctic","","","","",""
"dual-task","null","null","null","","swim","arctic","407.1999999284744","","d","null","88","88","1","arctic-dual-task","","d","lowercase","66000","0","4","87235ee932d6ab19369f9fab94c272429fce5c1d0874562761b7bee8e9700903","66007.5","407.1999999284744","88","1","arctic","","","","",""
"dual-task","null","null","null","","swim","arctic","732","","F","null","77","77","1","arctic-dual-task","","F","uppercase","74000","0","4","87235ee932d6ab19369f9fab94c272429fce5c1d0874562761b7bee8e9700903","74001.90000009537","732","77","1","arctic","","","","",""
"dual-task","null","null","null","","swim","arctic","571.6999999284744","","h","null","88","88","1","arctic-dual-task","","h","lowercase","80000","0","4","87235ee932d6ab19369f9fab94c272429fce5c1d0874562761b7bee8e9700903","80017.30000007153","571.6999999284744","88","1","arctic","","","","",""
"dual-task","null","null","null","","swim","arctic","405.39999997615814","","Q","null","77","77","1","arctic-dual-task","","Q","uppercase","94000","0","4","87235ee932d6ab19369f9fab94c272429fce5c1d0874562761b7bee8e9700903","94007.10000002384","405.39999997615814","77","1","arctic","","","","",""
"dual-task","null","null","null","","swim","arctic","440.90000009536743","","E","null","77","77","1","arctic-dual-task","","E","uppercase","106000","0","4","87235ee932d6ab19369f9fab94c272429fce5c1d0874562761b7bee8e9700903","106017.20000004768","440.90000009536743","77","1","arctic","","","","",""
"dual-task","null","null","null","","swim","arctic","497.1999999284744","","n","null","88","88","1","arctic-dual-task","","n","lowercase","118000","0","4","87235ee932d6ab19369f9fab94c272429fce5c1d0874562761b7bee8e9700903","118018.70000004768","497.1999999284744","88","1","arctic","","","","",""
"dual-task","null","null","null","","swim","arctic","451.7000000476837","","T","null","77","77","1","arctic-dual-task","","T","uppercase","130000","0","4","87235ee932d6ab19369f9fab94c272429fce5c1d0874562761b7bee8e9700903","130017.30000007153","451.7000000476837","77","1","arctic","","","","",""
"dual-task","null","null","null","","swim","arctic","721.6999999284744","","q","null","88","88","1","arctic-dual-task","","q","lowercase","142000","0","4","87235ee932d6ab19369f9fab94c272429fce5c1d0874562761b7bee8e9700903","142016.5","721.6999999284744","88","1","arctic","","","","",""
"dual-task","null","null","null","","swim","arctic","677.1000000238419","","n","null","88","88","1","arctic-dual-task","","n","lowercase","156000","0","4","87235ee932d6ab19369f9fab94c272429fce5c1d0874562761b7bee8e9700903","156011.60000002384","677.1000000238419","88","1","arctic","","","","",""
"dual-task","null","null","null","","swim","arctic","931.7000000476837","","d","null","88","88","1","arctic-dual-task","","d","lowercase","162000","0","4","87235ee932d6ab19369f9fab94c272429fce5c1d0874562761b7bee8e9700903","162007.10000002384","931.7000000476837","88","1","arctic","","","","",""
"dual-task","null","null","null","","swim","arctic","1838","","r","null","88","88","1","arctic-dual-task","","r","lowercase","176000","0","4","87235ee932d6ab19369f9fab94c272429fce5c1d0874562761b7bee8e9700903","176004.40000009537","1838","88","1","arctic","","","","",""
"dual-task","null","null","null","","swim","arctic","437.10000002384186","","a","null","88","88","1","arctic-dual-task","","a","lowercase","184000","0","4","87235ee932d6ab19369f9fab94c272429fce5c1d0874562761b7bee8e9700903","184007.5","437.10000002384186","88","1","arctic","","","","",""
"dual-task","null","null","null","","swim","arctic","665.3999999761581","","a","null","88","88","1","arctic-dual-task","","a","lowercase","192000","0","4","87235ee932d6ab19369f9fab94c272429fce5c1d0874562761b7bee8e9700903","192023.10000002384","665.3999999761581","88","1","arctic","","","","",""
"dual-task","null","null","null","","swim","arctic","460.2000000476837","","D","null","77","77","1","arctic-dual-task","","D","uppercase","206000","0","4","87235ee932d6ab19369f9fab94c272429fce5c1d0874562761b7bee8e9700903","206007.30000007153","460.2000000476837","77","1","arctic","","","","",""
"dual-task","null","null","null","","swim","arctic","526.5","","H","null","77","77","1","arctic-dual-task","","H","uppercase","216000","0","4","87235ee932d6ab19369f9fab94c272429fce5c1d0874562761b7bee8e9700903","216012.80000007153","526.5","77","1","arctic","","","","",""
"dual-task","null","null","null","","swim","arctic","439.2999999523163","","R","null","77","77","1","arctic-dual-task","","R","uppercase","226000","0","4","87235ee932d6ab19369f9fab94c272429fce5c1d0874562761b7bee8e9700903","226006.40000009537","439.2999999523163","77","1","arctic","","","","",""
"dual-task","null","null","null","","swim","arctic","771.5999999046326","","E","null","77","77","1","arctic-dual-task","","E","uppercase","238000","0","4","87235ee932d6ab19369f9fab94c272429fce5c1d0874562761b7bee8e9700903","238010.30000007153","771.5999999046326","77","1","arctic","","","","",""
"dual-task","null","null","null","","swim","arctic","562.5","","T","null","77","77","1","arctic-dual-task","","T","uppercase","252000","0","4","87235ee932d6ab19369f9fab94c272429fce5c1d0874562761b7bee8e9700903","252017.10000002384","562.5","77","1","arctic","","","","",""
"dual-task","null","null","null","","swim","arctic","380.5","","N","null","77","77","1","arctic-dual-task","","N","uppercase","262000","0","4","87235ee932d6ab19369f9fab94c272429fce5c1d0874562761b7bee8e9700903","262017.10000002384","380.5","77","1","arctic","","","","",""
"dual-task","null","null","null","","swim","arctic","549.5","","f","null","88","88","1","arctic-dual-task","","f","lowercase","272000","0","4","87235ee932d6ab19369f9fab94c272429fce5c1d0874562761b7bee8e9700903","272017","549.5","88","1","arctic","","","","",""
"dual-task","null","null","null","","swim","arctic","1004.0999999046326","","a","null","88","88","1","arctic-dual-task","","a","lowercase","280000","0","4","87235ee932d6ab19369f9fab94c272429fce5c1d0874562761b7bee8e9700903","280016.8000000715","1004.0999999046326","88","1","arctic","","","","",""
"dual-task","null","null","null","","swim","arctic","1148.3999999761581","","n","null","88","88","1","arctic-dual-task","","n","lowercase","288000","0","4","87235ee932d6ab19369f9fab94c272429fce5c1d0874562761b7bee8e9700903","288016.7000000477","1148.3999999761581","88","1","arctic","","","","",""
"dual-task","null","null","null","","swim","arctic","1792.6000000238419","","Q","null","77","77","1","arctic-dual-task","","Q","uppercase","294000","0","4","87235ee932d6ab19369f9fab94c272429fce5c1d0874562761b7bee8e9700903","294017","1792.6000000238419","77","1","arctic","","","","",""
"dual-task","null","null","null","","swim","arctic","1249.0999999046326","","t","null","88","88","1","arctic-dual-task","","t","lowercase","302000","0","4","87235ee932d6ab19369f9fab94c272429fce5c1d0874562761b7bee8e9700903","302000.90000009537","1249.0999999046326","88","1","arctic","","","","",""
"dual-task","null","null","null","","swim","arctic","597","","q","null","88","88","1","arctic-dual-task","","q","lowercase","308000","0","4","87235ee932d6ab19369f9fab94c272429fce5c1d0874562761b7bee8e9700903","308017.10000002384","597","88","1","arctic","","","","",""
"dual-task","null","null","null","","swim","arctic","455","","g","null","88","88","1","arctic-dual-task","","g","lowercase","318000","0","4","87235ee932d6ab19369f9fab94c272429fce5c1d0874562761b7bee8e9700903","318016.90000009537","455","88","1","arctic","","","","",""
"dual-task","null","null","null","","swim","arctic","636.8000000715256","","t","null","88","88","1","arctic-dual-task","","t","lowercase","324000","0","4","87235ee932d6ab19369f9fab94c272429fce5c1d0874562761b7bee8e9700903","324001.5","636.8000000715256","88","1","arctic","","","","",""
"dual-task","null","null","null","","swim","arctic","466.2999999523163","","b","null","88","88","1","arctic-dual-task","","b","lowercase","330000","0","4","87235ee932d6ab19369f9fab94c272429fce5c1d0874562761b7bee8e9700903","330016.8000000715","466.2999999523163","88","1","arctic","","","","",""
"dual-task","null","null","null","","swim","arctic","527","","N","null","77","77","1","arctic-dual-task","","N","uppercase","338000","0","4","87235ee932d6ab19369f9fab94c272429fce5c1d0874562761b7bee8e9700903","338006.3000000715","527","77","1","arctic","","","","",""
"dual-task","null","null","null","","swim","arctic","475.8000000715256","","r","null","88","88","1","arctic-dual-task","","r","lowercase","348000","0","4","87235ee932d6ab19369f9fab94c272429fce5c1d0874562761b7bee8e9700903","348006.60000002384","475.8000000715256","88","1","arctic","","","","",""
"dual-task","null","null","null","","swim","arctic","564","","g","null","88","88","1","arctic-dual-task","","g","lowercase","362000","0","4","87235ee932d6ab19369f9fab94c272429fce5c1d0874562761b7bee8e9700903","362008.5","564","88","1","arctic","","","","",""
"dual-task","null","null","null","","swim","arctic","433.7999999523163","","e","null","88","88","1","arctic-dual-task","","e","lowercase","374000","0","4","87235ee932d6ab19369f9fab94c272429fce5c1d0874562761b7bee8e9700903","374016.2000000477","433.7999999523163","88","1","arctic","","","","",""
"dual-task","null","null","null","","swim","arctic","473.5","","G","null","77","77","1","arctic-dual-task","","G","uppercase","384000","0","4","87235ee932d6ab19369f9fab94c272429fce5c1d0874562761b7bee8e9700903","384006.60000002384","473.5","77","1","arctic","","","","",""
"dual-task","null","null","null","","swim","arctic","418","","h","null","88","88","1","arctic-dual-task","","h","lowercase","390000","0","4","87235ee932d6ab19369f9fab94c272429fce5c1d0874562761b7bee8e9700903","390009.8000000715","418","88","1","arctic","","","","",""
"dual-task","null","null","null","","swim","arctic","440.5","","n","null","88","88","1","arctic-dual-task","","n","lowercase","402000","0","4","87235ee932d6ab19369f9fab94c272429fce5c1d0874562761b7bee8e9700903","402016.10000002384","440.5","88","1","arctic","","","","",""
"dual-task","null","null","null","","swim","arctic","519.1000000238419","","T","null","88","77","0","arctic-dual-task","","T","uppercase","410000","0","4","87235ee932d6ab19369f9fab94c272429fce5c1d0874562761b7bee8e9700903","410016.5","519.1000000238419","88","0","arctic","","","","",""
"dual-task","null","null","null","","swim","arctic","595.3999999761581","","a","null","88","88","1","arctic-dual-task","","a","lowercase","416000","0","4","87235ee932d6ab19369f9fab94c272429fce5c1d0874562761b7bee8e9700903","416016.8000000715","595.3999999761581","88","1","arctic","","","","",""
"dual-task","null","null","null","","swim","arctic","450.40000009536743","","q","null","88","88","1","arctic-dual-task","","q","lowercase","426000","0","4","87235ee932d6ab19369f9fab94c272429fce5c1d0874562761b7bee8e9700903","426016.7000000477","450.40000009536743","88","1","arctic","","","","",""
"dual-task","null","null","null","","swim","arctic","692.1999999284744","","R","null","77","77","1","arctic-dual-task","","R","uppercase","434000","0","4","87235ee932d6ab19369f9fab94c272429fce5c1d0874562761b7bee8e9700903","434016","692.1999999284744","77","1","arctic","","","","",""
"dual-task","null","null","null","","swim","arctic","439.7000000476837","","R","null","77","77","1","arctic-dual-task","","R","uppercase","444000","0","4","87235ee932d6ab19369f9fab94c272429fce5c1d0874562761b7bee8e9700903","444017.3000000715","439.7000000476837","77","1","arctic","","","","",""
"dual-task","null","null","null","","swim","arctic","484.39999997615814","","e","null","88","88","1","arctic-dual-task","","e","lowercase","458000","0","4","87235ee932d6ab19369f9fab94c272429fce5c1d0874562761b7bee8e9700903","458016.60000002384","484.39999997615814","88","1","arctic","","","","",""
"dual-task","null","null","null","","swim","arctic","355.10000002384186","","d","null","88","88","1","arctic-dual-task","","d","lowercase","466000","0","4","87235ee932d6ab19369f9fab94c272429fce5c1d0874562761b7bee8e9700903","466016.7000000477","355.10000002384186","88","1","arctic","","","","",""
"dual-task","null","null","null","","swim","arctic","476.3000000715256","","Q","null","77","77","1","arctic-dual-task","","Q","uppercase","478000","0","4","87235ee932d6ab19369f9fab94c272429fce5c1d0874562761b7bee8e9700903","478016.2000000477","476.3000000715256","77","1","arctic","","","","",""
"dual-task","null","null","null","","swim","arctic","630.1000000238419","","H","null","77","77","1","arctic-dual-task","","H","uppercase","492000","0","4","87235ee932d6ab19369f9fab94c272429fce5c1d0874562761b7bee8e9700903","492006.5","630.1000000238419","77","1","arctic","","","","",""
"dual-task","null","null","null","","swim","arctic","549.3000000715256","","f","null","88","88","1","arctic-dual-task","","f","lowercase","506000","0","4","87235ee932d6ab19369f9fab94c272429fce5c1d0874562761b7bee8e9700903","506006.40000009537","549.3000000715256","88","1","arctic","","","","",""
"dual-task","null","null","null","","swim","arctic","628.4000000953674","","g","null","88","88","1","arctic-dual-task","","g","lowercase","520000","0","4","87235ee932d6ab19369f9fab94c272429fce5c1d0874562761b7bee8e9700903","520007.40000009537","628.4000000953674","88","1","arctic","","","","",""
"dual-task","null","null","null","","swim","arctic","656.6000000238419","","q","null","88","88","1","arctic-dual-task","","q","lowercase","532000","0","4","87235ee932d6ab19369f9fab94c272429fce5c1d0874562761b7bee8e9700903","532006","656.6000000238419","88","1","arctic","","","","",""
"dual-task","null","null","null","","swim","arctic","562.8999999761581","","b","null","88","88","1","arctic-dual-task","","b","lowercase","544000","0","4","87235ee932d6ab19369f9fab94c272429fce5c1d0874562761b7bee8e9700903","544016.9000000954","562.8999999761581","88","1","arctic","","","","",""
"dual-task","null","null","null","","swim","arctic","574.8999999761581","","R","null","77","77","1","arctic-dual-task","","R","uppercase","550000","0","4","87235ee932d6ab19369f9fab94c272429fce5c1d0874562761b7bee8e9700903","550016.8000000715","574.8999999761581","77","1","arctic","","","","",""
"dual-task","null","null","null","","swim","arctic","451.3000000715256","","B","null","77","77","1","arctic-dual-task","","B","uppercase","558000","0","4","87235ee932d6ab19369f9fab94c272429fce5c1d0874562761b7bee8e9700903","558005.9000000954","451.3000000715256","77","1","arctic","","","","",""
"dual-task","null","null","null","","swim","arctic","499.39999997615814","","E","null","77","77","1","arctic-dual-task","","E","uppercase","566000","0","4","87235ee932d6ab19369f9fab94c272429fce5c1d0874562761b7bee8e9700903","566007.2000000477","499.39999997615814","77","1","arctic","","","","",""
"dual-task","null","null","null","","swim","arctic","778.6000000238419","","B","null","77","77","1","arctic-dual-task","","B","uppercase","580000","0","4","87235ee932d6ab19369f9fab94c272429fce5c1d0874562761b7bee8e9700903","580011.5","778.6000000238419","77","1","arctic","","","","",""
"dual-task","null","null","null","","swim","arctic","620.5","","d","null","88","88","1","arctic-dual-task","","d","lowercase","588000","0","4","87235ee932d6ab19369f9fab94c272429fce5c1d0874562761b7bee8e9700903","588015.9000000954","620.5","88","1","arctic","","","","",""
"dual-task","null","null","null","","swim","arctic","560","","b","null","88","88","1","arctic-dual-task","","b","lowercase","598000","0","4","87235ee932d6ab19369f9fab94c272429fce5c1d0874562761b7bee8e9700903","598000.8000000715","560","88","1","arctic","","","","",""
"dual-task","null","null","null","","swim","arctic","518.6999999284744","","h","null","88","88","1","arctic-dual-task","","h","lowercase","606000","0","4","87235ee932d6ab19369f9fab94c272429fce5c1d0874562761b7bee8e9700903","606017","518.6999999284744","88","1","arctic","","","","",""
"dual-task","null","null","null","","swim","arctic","846.1000000238419","","F","null","77","77","1","arctic-dual-task","","F","uppercase","616000","0","4","87235ee932d6ab19369f9fab94c272429fce5c1d0874562761b7bee8e9700903","616013.4000000954","846.1000000238419","77","1","arctic","","","","",""
"dual-task","null","null","null","","swim","arctic","540.1000000238419","","N","null","77","77","1","arctic-dual-task","","N","uppercase","630000","0","4","87235ee932d6ab19369f9fab94c272429fce5c1d0874562761b7bee8e9700903","630016","540.1000000238419","77","1","arctic","","","","",""
"dual-task","null","null","null","","swim","arctic","657.6000000238419","","h","null","88","88","1","arctic-dual-task","","h","lowercase","640000","0","4","87235ee932d6ab19369f9fab94c272429fce5c1d0874562761b7bee8e9700903","640016.3000000715","657.6000000238419","88","1","arctic","","","","",""
"dual-task","null","null","null","","swim","arctic","502.1999999284744","","N","null","77","77","1","arctic-dual-task","","N","uppercase","652000","0","4","87235ee932d6ab19369f9fab94c272429fce5c1d0874562761b7bee8e9700903","652013.9000000954","502.1999999284744","77","1","arctic","","","","",""
"dual-task","null","null","null","","swim","arctic","582.8999999761581","","E","null","77","77","1","arctic-dual-task","","E","uppercase","666000","0","4","87235ee932d6ab19369f9fab94c272429fce5c1d0874562761b7bee8e9700903","666007","582.8999999761581","77","1","arctic","","","","",""
"dual-task","null","null","null","","swim","arctic","544.1000000238419","","r","null","88","88","1","arctic-dual-task","","r","lowercase","676000","0","4","87235ee932d6ab19369f9fab94c272429fce5c1d0874562761b7bee8e9700903","676025.7000000477","544.1000000238419","88","1","arctic","","","","",""
"dual-task","null","null","null","","swim","arctic","694.1000000238419","","A","null","77","77","1","arctic-dual-task","","A","uppercase","684000","0","4","87235ee932d6ab19369f9fab94c272429fce5c1d0874562761b7bee8e9700903","684006.2000000477","694.1000000238419","77","1","arctic","","","","",""
"dual-task","null","null","null","","swim","arctic","523.7999999523163","","D","null","77","77","1","arctic-dual-task","","D","uppercase","694000","0","4","87235ee932d6ab19369f9fab94c272429fce5c1d0874562761b7bee8e9700903","694006","523.7999999523163","77","1","arctic","","","","",""
"dual-task","null","null","null","","swim","arctic","526.6000000238419","","f","null","88","88","1","arctic-dual-task","","f","lowercase","706000","0","4","87235ee932d6ab19369f9fab94c272429fce5c1d0874562761b7bee8e9700903","706006.1000000238","526.6000000238419","88","1","arctic","","","","",""
"dual-task","null","null","null","","swim","arctic","452.2999999523163","","B","null","77","77","1","arctic-dual-task","","B","uppercase","714000","0","4","87235ee932d6ab19369f9fab94c272429fce5c1d0874562761b7bee8e9700903","714006.8000000715","452.2999999523163","77","1","arctic","","","","",""
"dual-task","null","null","null","","swim","arctic","456.2999999523163","","f","null","88","88","1","arctic-dual-task","","f","lowercase","728000","0","4","87235ee932d6ab19369f9fab94c272429fce5c1d0874562761b7bee8e9700903","728006.2000000477","456.2999999523163","88","1","arctic","","","","",""
"dual-task","null","null","null","","swim","arctic","505.2999999523163","","F","null","77","77","1","arctic-dual-task","","F","uppercase","742000","0","4","87235ee932d6ab19369f9fab94c272429fce5c1d0874562761b7bee8e9700903","742005.9000000954","505.2999999523163","77","1","arctic","","","","",""
"dual-task","null","null","null","","swim","arctic","551.6999999284744","","t","null","88","88","1","arctic-dual-task","","t","lowercase","756000","0","4","87235ee932d6ab19369f9fab94c272429fce5c1d0874562761b7bee8e9700903","756015.8000000715","551.6999999284744","88","1","arctic","","","","",""
"dual-task","null","null","null","","swim","arctic","520.5","","A","null","77","77","1","arctic-dual-task","","A","uppercase","762000","0","4","87235ee932d6ab19369f9fab94c272429fce5c1d0874562761b7bee8e9700903","762016.1000000238","520.5","77","1","arctic","","","","",""
"dual-task","null","null","null","","swim","arctic","526.1999999284744","","e","null","88","88","1","arctic-dual-task","","e","lowercase","770000","0","4","87235ee932d6ab19369f9fab94c272429fce5c1d0874562761b7bee8e9700903","770015.4000000954","526.1999999284744","88","1","arctic","","","","",""
"dual-task","null","null","null","","swim","arctic","423.39999997615814","","T","null","77","77","1","arctic-dual-task","","T","uppercase","776000","0","4","87235ee932d6ab19369f9fab94c272429fce5c1d0874562761b7bee8e9700903","776016.1000000238","423.39999997615814","77","1","arctic","","","","",""
"dual-task","null","null","null","","swim","arctic","409.5","","e","null","88","88","1","arctic-dual-task","","e","lowercase","784000","0","4","87235ee932d6ab19369f9fab94c272429fce5c1d0874562761b7bee8e9700903","784016.2000000477","409.5","88","1","arctic","","","","",""
"audio-keyboard-response","62","1802299","0.0-7.0-2.0-1.0","87235ee932d6ab19369f9fab94c272429fce5c1d0874562761b7bee8e9700903","swim","arctic","null","","audio/story_arctic_scrambled.mp3","","null","","","","","","","","","","","","","","","","","","","",""
"html-button-response","63","1804739","0.0-7.0-2.0-2.0","87235ee932d6ab19369f9fab94c272429fce5c1d0874562761b7bee8e9700903","swim","arctic","2438","","<p>This concludes the story. Thank you for listening.</p><p>You will now answer some questions about the content of the story.</p>","0","","","","","","","","","","","","","","","","","","","","",""
"survey-multi-choice","64","1809913","0.0-7.0-2.0-3.0-0.0","87235ee932d6ab19369f9fab94c272429fce5c1d0874562761b7bee8e9700903","swim","arctic","5168","","<b>How did the narrator&#39;s encounter with the polar bears end?</b>","","","","1","arctic-comprehension","","","","","","","","","","","","","{""Q0"":""The bears walked back to their den.""}","","","",""
"survey-multi-choice","65","1816432","0.0-7.0-2.0-3.0-0.1","87235ee932d6ab19369f9fab94c272429fce5c1d0874562761b7bee8e9700903","swim","arctic","6260","","<b>Which dog on the narrator&#39;s dog team never followed instructions?</b>","","","","0","arctic-comprehension","","","","","","","","","","","","","{""Q0"":""Douggie-dog""}","","","",""
"survey-multi-choice","66","1820469","0.0-7.0-2.0-3.0-0.2","87235ee932d6ab19369f9fab94c272429fce5c1d0874562761b7bee8e9700903","swim","arctic","3779","","<b>What did the narrator do for leisure while in her tent?</b>","","","","1","arctic-comprehension","","","","","","","","","","","","","{""Q0"":""Read""}","","","",""
"survey-multi-choice","67","1824968","0.0-7.0-2.0-3.0-0.3","87235ee932d6ab19369f9fab94c272429fce5c1d0874562761b7bee8e9700903","swim","arctic","4234","","<b>How many sponsorships did the narrator receive to support her expedition?</b>","","","","1","arctic-comprehension","","","","","","","","","","","","","{""Q0"":""None""}","","","",""
"survey-multi-choice","68","1827892","0.0-7.0-2.0-3.0-0.4","87235ee932d6ab19369f9fab94c272429fce5c1d0874562761b7bee8e9700903","swim","arctic","2645","","<b>What is the name of the narrator&#39;s neighbour?</b>","","","","1","arctic-comprehension","","","","","","","","","","","","","{""Q0"":""Dave""}","","","",""
"survey-multi-choice","69","1833281","0.0-7.0-2.0-3.0-0.5","87235ee932d6ab19369f9fab94c272429fce5c1d0874562761b7bee8e9700903","swim","arctic","5132","","<b>How did the narrator&#39;s neighbour respond when she told him about her expedition?</b>","","","","0","arctic-comprehension","","","","","","","","","","","","","{""Q0"":""He said he was worried about her.""}","","","",""
"survey-multi-choice","70","1839536","0.0-7.0-2.0-3.0-0.6","87235ee932d6ab19369f9fab94c272429fce5c1d0874562761b7bee8e9700903","swim","arctic","5996","","<b>What were the weather conditions in the Arctic like the winter of the narrator&#39;s expedition?</b>","","","","0","arctic-comprehension","","","","","","","","","","","","","{""Q0"":""It was the coldest winter in recorded history.""}","","","",""
"survey-multi-choice","71","1844144","0.0-7.0-2.0-3.0-0.7","87235ee932d6ab19369f9fab94c272429fce5c1d0874562761b7bee8e9700903","swim","arctic","4352","","<b>How did the dogs respond when they saw the bears?</b>","","","","1","arctic-comprehension","","","","","","","","","","","","","{""Q0"":""Approached them""}","","","",""
"survey-multi-choice","72","1848598","0.0-7.0-2.0-3.0-0.8","87235ee932d6ab19369f9fab94c272429fce5c1d0874562761b7bee8e9700903","swim","arctic","4197","","<b>What was the objective of the narrator&#39;s expedition?</b>","","","","1","arctic-comprehension","","","","","","","","","","","","","{""Q0"":""Dogsled across Arctic America""}","","","",""
"survey-multi-choice","73","1854751","0.0-7.0-2.0-3.0-0.9","87235ee932d6ab19369f9fab94c272429fce5c1d0874562761b7bee8e9700903","swim","arctic","5896","","<b>How did the narrator prepare for her expedition?</b>","","","","0","arctic-comprehension","","","","","","","","","","","","","{""Q0"":""Practiced living on rations and taking cold showers""}","","","",""
"html-button-response","74","1855896","0.0-7.0-2.0-4.0","87235ee932d6ab19369f9fab94c272429fce5c1d0874562761b7bee8e9700903","swim","arctic","891","","<p>Thank you for your responses.</p><p>You will now answer some questions about your impressions of the story.</p>","0","","","","","","","","","","","","","","","","","","","","",""
"html-button-response","75","1858338","0.0-7.0-2.0-5.0-0.0","87235ee932d6ab19369f9fab94c272429fce5c1d0874562761b7bee8e9700903","swim","arctic","2440","","EE1","0","","","","arctic-engagement","","","","","","","","","","","","","","1","emo-engage","",""
"html-button-response","76","1860069","0.0-7.0-2.0-5.0-0.1","87235ee932d6ab19369f9fab94c272429fce5c1d0874562761b7bee8e9700903","swim","arctic","1474","","A4","0","","","","arctic-engagement","","","","","","","","","","","","","","1","absorption","",""
"html-button-response","77","1861436","0.0-7.0-2.0-5.0-0.2","87235ee932d6ab19369f9fab94c272429fce5c1d0874562761b7bee8e9700903","swim","arctic","1115","","A3","0","","","","arctic-engagement","","","","","","","","","","","","","","1","absorption","",""
"html-button-response","78","1864021","0.0-7.0-2.0-5.0-0.3","87235ee932d6ab19369f9fab94c272429fce5c1d0874562761b7bee8e9700903","swim","arctic","2332","","MS1","1","","","","arctic-engagement","","","","","","","","","","","","","","2","mental-sim","",""
"html-button-response","79","1866489","0.0-7.0-2.0-5.0-0.4","87235ee932d6ab19369f9fab94c272429fce5c1d0874562761b7bee8e9700903","swim","arctic","2215","","A2","2","","","","arctic-engagement","","","","","","","","","","","","","","3","absorption","",""
"html-button-response","80","1868189","0.0-7.0-2.0-5.0-0.5","87235ee932d6ab19369f9fab94c272429fce5c1d0874562761b7bee8e9700903","swim","arctic","1446","","E1","1","","","","arctic-engagement","","","","","","","","","","","","","","2","enjoyment","",""
"html-button-response","81","1869777","0.0-7.0-2.0-5.0-0.6","87235ee932d6ab19369f9fab94c272429fce5c1d0874562761b7bee8e9700903","swim","arctic","1334","","EE4","0","","","","arctic-engagement","","","","","","","","","","","","","","1","emo-engage","",""
"html-button-response","82","1871347","0.0-7.0-2.0-5.0-0.7","87235ee932d6ab19369f9fab94c272429fce5c1d0874562761b7bee8e9700903","swim","arctic","1317","","E8","1","","","","arctic-engagement","","","","","","","","","","","","","","2","enjoyment","",""
"html-button-response","83","1873560","0.0-7.0-2.0-5.0-0.8","87235ee932d6ab19369f9fab94c272429fce5c1d0874562761b7bee8e9700903","swim","arctic","1958","","MS3","1","","","","arctic-engagement","","","","","","","","","","","","","","2","mental-sim","",""
"html-button-response","84","1875564","0.0-7.0-2.0-5.0-0.9","87235ee932d6ab19369f9fab94c272429fce5c1d0874562761b7bee8e9700903","swim","arctic","1748","","EE3","0","","","","arctic-engagement","","","","","","","","","","","","","","1","emo-engage","",""
"html-button-response","85","1877253","0.0-7.0-2.0-5.0-0.10","87235ee932d6ab19369f9fab94c272429fce5c1d0874562761b7bee8e9700903","swim","arctic","1435","","E10","0","","","","arctic-engagement","","","","","","","","","","","","","","1","enjoyment","",""
"html-button-response","86","1878914","0.0-7.0-2.0-5.0-0.11","87235ee932d6ab19369f9fab94c272429fce5c1d0874562761b7bee8e9700903","swim","arctic","1408","","E7","0","","","","arctic-engagement","","","","","","","","","","","","","","1","enjoyment","",""
"html-button-response","87","1880770","0.0-7.0-2.0-5.0-0.12","87235ee932d6ab19369f9fab94c272429fce5c1d0874562761b7bee8e9700903","swim","arctic","1604","","EE2","2","","","","arctic-engagement","","","","","","","","","","","","","","3","emo-engage","",""
"html-button-response","88","1883041","0.0-7.0-2.0-5.0-0.13","87235ee932d6ab19369f9fab94c272429fce5c1d0874562761b7bee8e9700903","swim","arctic","2018","","A1","0","","","","arctic-engagement","","","","","","","","","","","","","","1","absorption","",""
"html-button-response","89","1885161","0.0-7.0-2.0-5.0-0.14","87235ee932d6ab19369f9fab94c272429fce5c1d0874562761b7bee8e9700903","swim","arctic","1866","","A5","0","","","","arctic-engagement","","","","","","","","","","","","","","1","absorption","",""
"html-button-response","90","1886874","0.0-7.0-2.0-5.0-0.15","87235ee932d6ab19369f9fab94c272429fce5c1d0874562761b7bee8e9700903","swim","arctic","1459","","EE5","1","","","","arctic-engagement","","","","","","","","","","","","","","2","emo-engage","",""
"html-button-response","91","1888244","0.0-7.0-2.0-5.0-0.16","87235ee932d6ab19369f9fab94c272429fce5c1d0874562761b7bee8e9700903","swim","arctic","1116","","E6","1","","","","arctic-engagement","","","","","","","","","","","","","","2","enjoyment","",""
"html-button-response","92","1890750","0.0-7.0-2.0-5.0-0.17","87235ee932d6ab19369f9fab94c272429fce5c1d0874562761b7bee8e9700903","swim","arctic","2252","","MS2","0","","","","arctic-engagement","","","","","","","","","","","","","","1","mental-sim","",""
"html-button-response","93","1891938","0.0-8.0","87235ee932d6ab19369f9fab94c272429fce5c1d0874562761b7bee8e9700903","swim","arctic","934","","<p>Thank you for your responses.</p><p>You will now answer some demographic, hearing, and general health questions.</p>","0","","","","","","","","","","","","","","","","","","","","",""
"survey-multi-choice","94","1893812","0.0-9.0-0.0","87235ee932d6ab19369f9fab94c272429fce5c1d0874562761b7bee8e9700903","swim","arctic","1870","","","","","","","survey","","","","","","","","","","","","","{""Q0"":""Chrome""}","","","browser",""
"survey-text","95","1896738","0.0-9.0-1.0","87235ee932d6ab19369f9fab94c272429fce5c1d0874562761b7bee8e9700903","swim","arctic","2657.6999999284744","","","","","","","survey","","","","","","","","","","","","","{""AGE"":""27""}","","","age","27"
"survey-multi-choice","96","1898324","0.0-9.0-2.0","87235ee932d6ab19369f9fab94c272429fce5c1d0874562761b7bee8e9700903","swim","arctic","1331","","","","","","","survey","","","","","","","","","","","","","{""Q0"":""Male""}","","","gender","Male"
"survey-multi-choice","97","1900525","0.0-9.0-4.0","87235ee932d6ab19369f9fab94c272429fce5c1d0874562761b7bee8e9700903","swim","arctic","1946","","","","","","","survey","","","","","","","","","","","","","{""Q0"":""Right""}","","","handedness","Right"
"survey-multi-choice","98","1903466","0.0-9.0-5.0","87235ee932d6ab19369f9fab94c272429fce5c1d0874562761b7bee8e9700903","swim","arctic","2686","","","","","","","survey","","","","","","","","","","","","","{""Q0"":""Some university undergraduate schooling""}","","","education","Some university undergraduate schooling"
"survey-text","99","1907622","0.0-10.0-0.0","87235ee932d6ab19369f9fab94c272429fce5c1d0874562761b7bee8e9700903","swim","arctic","3886.399999976158","","","","","","","survey","","","","","","","","","","","","","{""L1"":""English""}","","","first-language","English"
"survey-text","100","1913100","0.0-10.0-1.0","87235ee932d6ab19369f9fab94c272429fce5c1d0874562761b7bee8e9700903","swim","arctic","5216.700000047684","","","","","","","survey","","","","","","","","","","","","","{""L2name"":"""",""L2fluency"":"""",""L3name"":"""",""L3fluency"":"""",""L4name"":"""",""L4fluency"":""""}","","","additional-languages","{""L2name"":"""",""L2fluency"":"""",""L3name"":"""",""L3fluency"":"""",""L4name"":"""",""L4fluency"":""""}"
"survey-multi-choice","101","1915106","0.0-10.0-2.0","87235ee932d6ab19369f9fab94c272429fce5c1d0874562761b7bee8e9700903","swim","arctic","1753","","","","","","","survey","","","","","","","","","","","","","{""Q0"":""No""}","","","hearing-aid","No"
"survey-multi-choice","102","1917173","0.0-10.0-3.0","87235ee932d6ab19369f9fab94c272429fce5c1d0874562761b7bee8e9700903","swim","arctic","1812","","","","","","","survey","","","","","","","","","","","","","{""Q0"":""Never""}","","","ringing-ears","Never"
"survey-multi-choice","103","1919141","0.0-10.0-5.0","87235ee932d6ab19369f9fab94c272429fce5c1d0874562761b7bee8e9700903","swim","arctic","1715","","","","","","","survey","","","","","","","","","","","","","{""Q0"":""No""}","","","neuro-disease","No"
"survey-multi-choice","104","1921428","0.0-10.0-7.0","87235ee932d6ab19369f9fab94c272429fce5c1d0874562761b7bee8e9700903","swim","arctic","2033","","","","","","","survey","","","","","","","","","","","","","{""Q0"":""No""}","","","take-meds","No"
"survey-text","105","1923514","0.0-10.0-9.0","87235ee932d6ab19369f9fab94c272429fce5c1d0874562761b7bee8e9700903","swim","arctic","1808.6999999284744","","","","","","","survey","","","","","","","","","","","","","{""HC"":""""}","","","health-concerns",""
"html-button-response","106","1925796","0.0-11.0-0.0","87235ee932d6ab19369f9fab94c272429fce5c1d0874562761b7bee8e9700903","swim","arctic","2028","","<p>How would you describe your musical skills/experiences?</p>","1","","","","survey","","","","","","","","","","","","","","","","music-skill","2"
"survey-multi-choice","107","1927524","0.0-11.0-1.0","87235ee932d6ab19369f9fab94c272429fce5c1d0874562761b7bee8e9700903","swim","arctic","1473","","","","","","","survey","","","","","","","","","","","","","{""Q0"":""No""}","","","music-instrument","No"
"html-button-response","108","1929434","0.0-12.0-0.0","87235ee932d6ab19369f9fab94c272429fce5c1d0874562761b7bee8e9700903","swim","arctic","1657","","<p>How would you describe your general hearing abilities?</p>","5","","","","survey","","","","","","","","","","","","","","","","ssq-01","6"
"html-button-response","109","1934282","0.0-12.0-1.0","87235ee932d6ab19369f9fab94c272429fce5c1d0874562761b7bee8e9700903","swim","arctic","4594","","<p>When you talk with someone at a place that strongly reverberates/echoes (e.g., in a church or train station),</br>can you understand what the person says?</p>","8","","","","survey","","","","","","","","","","","","","","","","ssq-02","8"
"html-button-response","110","1936956","0.0-12.0-2.0","87235ee932d6ab19369f9fab94c272429fce5c1d0874562761b7bee8e9700903","swim","arctic","2420","","<p>When you are with a group (~5 people) in a lively restaurant, can you follow the group's conversation?</p>","8","","","","survey","","","","","","","","","","","","","","","","ssq-03","8"
"html-button-response","111","1939993","0.0-12.0-3.0","87235ee932d6ab19369f9fab94c272429fce5c1d0874562761b7bee8e9700903","swim","arctic","2783","","<p>Based on the sound of a bus or truck, can you tell whether it is moving towards or away from you?</p>","7","","","","survey","","","","","","","","","","","","","","","","ssq-04","7"
"html-button-response","112","1943696","0.0-12.0-4.0","87235ee932d6ab19369f9fab94c272429fce5c1d0874562761b7bee8e9700903","swim","arctic","3448","","<p>When you are in an unknown environment, can you tell from which direction a brief sound originates?</p>","7","","","","survey","","","","","","","","","","","","","","","","ssq-05","7"
"html-button-response","113","1948422","0.0-12.0-5.0","87235ee932d6ab19369f9fab94c272429fce5c1d0874562761b7bee8e9700903","swim","arctic","4472","","<p>Are you able to ignore distracting sounds when you concentrate on a specific aspect of your acoustic surrounding?</p>","8","","","","survey","","","","","","","","","","","","","","","","ssq-06","8"
"fullscreen","114","1949676","0.0-13.0","87235ee932d6ab19369f9fab94c272429fce5c1d0874562761b7bee8e9700903","swim","arctic","","","","","","","","","true","","","","","","","","","","","","","","","",""
