"trial_type","trial_index","time_elapsed","internal_node_id","ParticipantID","firstStory","scramStory","rt","url","stimulus","button_pressed","key_press","correctRESP","correct","designation","success","letterStim","letterType","ONSET","TIMEOUT","CONDITION","Participant","ONSET_ACTUAL","RT","RESP","ACC","STORY","responses","response","type","surveyQuestion","QRESP"
"pavlovia","0","2","0.0-0.0","2dce521b165388ea453a5ef88a9d91d5ca9090802003e1507aa6e53ddb0c603a","arctic","swim","","","","","","","","","","","","","","","","","","","","","","","","",""
"external-html","1","4760","0.0-1.0","2dce521b165388ea453a5ef88a9d91d5ca9090802003e1507aa6e53ddb0c603a","arctic","swim","4630","consent/consent_updated.html","","","","","","","","","","","","","","","","","","","","","","",""
"html-button-response","2","11589","0.0-2.0-0.0","2dce521b165388ea453a5ef88a9d91d5ca9090802003e1507aa6e53ddb0c603a","arctic","swim","6827","","<p>Before we begin the main task, you will complete a short volume calibration and headphone check.</p><p>Please make sure you are in a quiet listening environment, that you are wearing headphones, and that your computer's volume is turned on.<p></p>","0","","","","","","","","","","","","","","","","","","","","",""
"html-button-response","3","15497","0.0-2.0-1.0","2dce521b165388ea453a5ef88a9d91d5ca9090802003e1507aa6e53ddb0c603a","arctic","swim","3643","","<p>The volume calibration will be first.</p><p>You will hear a thirty-second noise. Please adjust your computer's volume so that this noise is being presented at a comfortable level.<p></p>","0","","","","","","","","","","","","","","","","","","","","",""
"audio-button-response","4","19123","0.0-2.0-2.0","2dce521b165388ea453a5ef88a9d91d5ca9090802003e1507aa6e53ddb0c603a","arctic","swim","3371","","audio/volumetest.mp3","0","","","","","","","","","","","","","","","","","","","","",""
"html-keyboard-response","5","25497","0.0-3.0-0.0","2dce521b165388ea453a5ef88a9d91d5ca9090802003e1507aa6e53ddb0c603a","arctic","swim","6374","","<p>You will now complete a short headphone check.</p><p>On each trial, you will hear three tones. One of these tones will be quieter than the others. Your task is to identify whether the quiet tone occurred first, second, or third.</p><p>There are six trials in total.<p></p><p></p>(Press SPACEBAR to begin)","","32","","","","","","","","","","","","","","","","","","","",""
"html-keyboard-response","6","26248","0.0-3.0-1.0-0.0","2dce521b165388ea453a5ef88a9d91d5ca9090802003e1507aa6e53ddb0c603a","arctic","swim","null","","<div style=""font-size:60px;"">+</div>","","null","","","","","","","","","","","","","","","","","","","",""
"audio-button-response","7","30677","0.0-3.0-1.0-1.0","2dce521b165388ea453a5ef88a9d91d5ca9090802003e1507aa6e53ddb0c603a","arctic","swim","4427","","audio/t1_1.mp3","2","","0","0","headphone-test","","","","","","","","","","","","","","","","",""
"html-keyboard-response","8","31178","0.0-3.0-1.0-2.0","2dce521b165388ea453a5ef88a9d91d5ca9090802003e1507aa6e53ddb0c603a","arctic","swim","null","","<p>Incorrect</p>","","null","","","","","","","","","","","","","","","","","","","",""
"html-keyboard-response","9","31691","0.0-3.0-1.0-0.1","2dce521b165388ea453a5ef88a9d91d5ca9090802003e1507aa6e53ddb0c603a","arctic","swim","null","","<div style=""font-size:60px;"">+</div>","","null","","","","","","","","","","","","","","","","","","","",""
"audio-button-response","10","35809","0.0-3.0-1.0-1.1","2dce521b165388ea453a5ef88a9d91d5ca9090802003e1507aa6e53ddb0c603a","arctic","swim","4116","","audio/t2_1.mp3","1","","1","1","headphone-test","","","","","","","","","","","","","","","","",""
"html-keyboard-response","11","36321","0.0-3.0-1.0-2.1","2dce521b165388ea453a5ef88a9d91d5ca9090802003e1507aa6e53ddb0c603a","arctic","swim","null","","<p>Correct</p>","","null","","","","","","","","","","","","","","","","","","","",""
"html-keyboard-response","12","36831","0.0-3.0-1.0-0.2","2dce521b165388ea453a5ef88a9d91d5ca9090802003e1507aa6e53ddb0c603a","arctic","swim","null","","<div style=""font-size:60px;"">+</div>","","null","","","","","","","","","","","","","","","","","","","",""
"audio-button-response","13","40605","0.0-3.0-1.0-1.2","2dce521b165388ea453a5ef88a9d91d5ca9090802003e1507aa6e53ddb0c603a","arctic","swim","3773","","audio/t3_1.mp3","2","","2","1","headphone-test","","","","","","","","","","","","","","","","",""
"html-keyboard-response","14","41106","0.0-3.0-1.0-2.2","2dce521b165388ea453a5ef88a9d91d5ca9090802003e1507aa6e53ddb0c603a","arctic","swim","null","","<p>Correct</p>","","null","","","","","","","","","","","","","","","","","","","",""
"html-keyboard-response","15","41607","0.0-3.0-1.0-0.3","2dce521b165388ea453a5ef88a9d91d5ca9090802003e1507aa6e53ddb0c603a","arctic","swim","null","","<div style=""font-size:60px;"">+</div>","","null","","","","","","","","","","","","","","","","","","","",""
"audio-button-response","16","45212","0.0-3.0-1.0-1.3","2dce521b165388ea453a5ef88a9d91d5ca9090802003e1507aa6e53ddb0c603a","arctic","swim","3605","","audio/t2_2.mp3","1","","1","1","headphone-test","","","","","","","","","","","","","","","","",""
"html-keyboard-response","17","45725","0.0-3.0-1.0-2.3","2dce521b165388ea453a5ef88a9d91d5ca9090802003e1507aa6e53ddb0c603a","arctic","swim","null","","<p>Correct</p>","","null","","","","","","","","","","","","","","","","","","","",""
"html-keyboard-response","18","46239","0.0-3.0-1.0-0.4","2dce521b165388ea453a5ef88a9d91d5ca9090802003e1507aa6e53ddb0c603a","arctic","swim","null","","<div style=""font-size:60px;"">+</div>","","null","","","","","","","","","","","","","","","","","","","",""
"audio-button-response","19","49884","0.0-3.0-1.0-1.4","2dce521b165388ea453a5ef88a9d91d5ca9090802003e1507aa6e53ddb0c603a","arctic","swim","3645","","audio/t3_2.mp3","2","","2","1","headphone-test","","","","","","","","","","","","","","","","",""
"html-keyboard-response","20","50385","0.0-3.0-1.0-2.4","2dce521b165388ea453a5ef88a9d91d5ca9090802003e1507aa6e53ddb0c603a","arctic","swim","null","","<p>Correct</p>","","null","","","","","","","","","","","","","","","","","","","",""
"html-keyboard-response","21","50886","0.0-3.0-1.0-0.5","2dce521b165388ea453a5ef88a9d91d5ca9090802003e1507aa6e53ddb0c603a","arctic","swim","null","","<div style=""font-size:60px;"">+</div>","","null","","","","","","","","","","","","","","","","","","","",""
"audio-button-response","22","52209","0.0-3.0-1.0-1.5","2dce521b165388ea453a5ef88a9d91d5ca9090802003e1507aa6e53ddb0c603a","arctic","swim","1322","","audio/t1_2.mp3","0","","0","1","headphone-test","","","","","","","","","","","","","","","","",""
"html-keyboard-response","23","52710","0.0-3.0-1.0-2.5","2dce521b165388ea453a5ef88a9d91d5ca9090802003e1507aa6e53ddb0c603a","arctic","swim","null","","<p>Correct</p>","","null","","","","","","","","","","","","","","","","","","","",""
"fullscreen","24","56292","0.0-4.0","2dce521b165388ea453a5ef88a9d91d5ca9090802003e1507aa6e53ddb0c603a","arctic","swim","","","","","","","","","true","","","","","","","","","","","","","","","",""
"html-button-response","25","174785","0.0-5.0-0.0","2dce521b165388ea453a5ef88a9d91d5ca9090802003e1507aa6e53ddb0c603a","arctic","swim","118493","","<p>There are two blocks to this experiment.</p><p>In each block, you will hear a ~13.5 minute story. One of the stories will be scrambled. Please listen carefully to both stories and understand them as best you can.</p><p>After each story, you will be asked some questions to assess your comprehension.</p>","0","","","","","","","","","","","","","","","","","","","","",""
"html-button-response","26","190331","0.0-5.0-1.0","2dce521b165388ea453a5ef88a9d91d5ca9090802003e1507aa6e53ddb0c603a","arctic","swim","15545","","<p>During each story, there will be an additional task.</p><p>A letter will occasionally appear on the screen.</br>Your job is to - as quickly as you can - decide whether the letter is lowercase or uppercase and press one of two keys on the keyboard:</p><p>If the letter is <b>lowercase</b>, press key &lt;<b>x</b>&gt;.</p><p>If the letter is <b>uppercase</b>, press key &lt;<b>m</b>&gt;.</p>","0","","","","","","","","","","","","","","","","","","","","",""
"html-keyboard-response","27","198533","0.0-5.0-2.0","2dce521b165388ea453a5ef88a9d91d5ca9090802003e1507aa6e53ddb0c603a","arctic","swim","8202","","<p>Because we want your responses to be as quick as possible, please keep your index fingers over the keys while listening.</p><p>Each block lasts about 20 minutes.</p><p><b>Press &lt;x&gt; or &lt;m&gt; to start the first block!</b></p>","","88","","","","","","","","","","","","","","","","","","","",""
"html-keyboard-response","28","199034","0.0-6.0-0.0-0.0","2dce521b165388ea453a5ef88a9d91d5ca9090802003e1507aa6e53ddb0c603a","arctic","swim","null","","<div style=""font-size:60px;"" tabindex=""0"">+</div>","","null","","","","","","","","","","","","","","","","","","","",""
"dual-task","null","null","null","","arctic","swim","967.7999999970198","","A","null","77","77","1","arctic-dual-task","","A","uppercase","16000","0","4","2dce521b165388ea453a5ef88a9d91d5ca9090802003e1507aa6e53ddb0c603a","16005.5","967.7999999970198","77","1","arctic","","","","",""
"dual-task","null","null","null","","arctic","swim","643.8000000044703","","E","null","77","77","1","arctic-dual-task","","E","uppercase","22000","0","4","2dce521b165388ea453a5ef88a9d91d5ca9090802003e1507aa6e53ddb0c603a","22003.19999999553","643.8000000044703","77","1","arctic","","","","",""
"dual-task","null","null","null","","arctic","swim","731","","Q","null","77","77","1","arctic-dual-task","","Q","uppercase","30000","0","4","2dce521b165388ea453a5ef88a9d91d5ca9090802003e1507aa6e53ddb0c603a","30006.09999999404","731","77","1","arctic","","","","",""
"dual-task","null","null","null","","arctic","swim","601.4000000059605","","G","null","77","77","1","arctic-dual-task","","G","uppercase","40000","0","4","2dce521b165388ea453a5ef88a9d91d5ca9090802003e1507aa6e53ddb0c603a","40008.59999999404","601.4000000059605","77","1","arctic","","","","",""
"dual-task","null","null","null","","arctic","swim","871.2000000029802","","f","null","88","88","1","arctic-dual-task","","f","lowercase","52000","0","4","2dce521b165388ea453a5ef88a9d91d5ca9090802003e1507aa6e53ddb0c603a","52015.09999999404","871.2000000029802","88","1","arctic","","","","",""
"dual-task","null","null","null","","arctic","swim","907.5","","G","null","77","77","1","arctic-dual-task","","G","uppercase","60000","0","4","2dce521b165388ea453a5ef88a9d91d5ca9090802003e1507aa6e53ddb0c603a","60002.59999999404","907.5","77","1","arctic","","","","",""
"dual-task","null","null","null","","arctic","swim","698","","n","null","88","88","1","arctic-dual-task","","n","lowercase","66000","0","4","2dce521b165388ea453a5ef88a9d91d5ca9090802003e1507aa6e53ddb0c603a","66012.29999999702","698","88","1","arctic","","","","",""
"dual-task","null","null","null","","arctic","swim","786.6999999955297","","b","null","88","88","1","arctic-dual-task","","b","lowercase","74000","0","4","2dce521b165388ea453a5ef88a9d91d5ca9090802003e1507aa6e53ddb0c603a","74011.39999999851","786.6999999955297","88","1","arctic","","","","",""
"dual-task","null","null","null","","arctic","swim","766.3999999985099","","H","null","77","77","1","arctic-dual-task","","H","uppercase","80000","0","4","2dce521b165388ea453a5ef88a9d91d5ca9090802003e1507aa6e53ddb0c603a","80006.89999999851","766.3999999985099","77","1","arctic","","","","",""
"dual-task","null","null","null","","arctic","swim","796","","B","null","77","77","1","arctic-dual-task","","B","uppercase","94000","0","4","2dce521b165388ea453a5ef88a9d91d5ca9090802003e1507aa6e53ddb0c603a","94013.29999999702","796","77","1","arctic","","","","",""
"dual-task","null","null","null","","arctic","swim","633","","B","null","77","77","1","arctic-dual-task","","B","uppercase","106000","0","4","2dce521b165388ea453a5ef88a9d91d5ca9090802003e1507aa6e53ddb0c603a","106015.29999999702","633","77","1","arctic","","","","",""
"dual-task","null","null","null","","arctic","swim","732.5","","q","null","88","88","1","arctic-dual-task","","q","lowercase","118000","0","4","2dce521b165388ea453a5ef88a9d91d5ca9090802003e1507aa6e53ddb0c603a","118002.59999999404","732.5","88","1","arctic","","","","",""
"dual-task","null","null","null","","arctic","swim","905.7999999970198","","a","null","88","88","1","arctic-dual-task","","a","lowercase","130000","0","4","2dce521b165388ea453a5ef88a9d91d5ca9090802003e1507aa6e53ddb0c603a","130004.5","905.7999999970198","88","1","arctic","","","","",""
"dual-task","null","null","null","","arctic","swim","830.3999999985099","","F","null","77","77","1","arctic-dual-task","","F","uppercase","142000","0","4","2dce521b165388ea453a5ef88a9d91d5ca9090802003e1507aa6e53ddb0c603a","142003.8999999985","830.3999999985099","77","1","arctic","","","","",""
"dual-task","null","null","null","","arctic","swim","901.2000000029802","","f","null","88","88","1","arctic-dual-task","","f","lowercase","156000","0","4","2dce521b165388ea453a5ef88a9d91d5ca9090802003e1507aa6e53ddb0c603a","156010.19999999553","901.2000000029802","88","1","arctic","","","","",""
"dual-task","null","null","null","","arctic","swim","747.0999999940395","","B","null","77","77","1","arctic-dual-task","","B","uppercase","162000","0","4","2dce521b165388ea453a5ef88a9d91d5ca9090802003e1507aa6e53ddb0c603a","162013","747.0999999940395","77","1","arctic","","","","",""
"dual-task","null","null","null","","arctic","swim","659.3000000044703","","F","null","77","77","1","arctic-dual-task","","F","uppercase","176000","0","4","2dce521b165388ea453a5ef88a9d91d5ca9090802003e1507aa6e53ddb0c603a","176012.09999999404","659.3000000044703","77","1","arctic","","","","",""
"dual-task","null","null","null","","arctic","swim","621.8999999985099","","N","null","77","77","1","arctic-dual-task","","N","uppercase","184000","0","4","2dce521b165388ea453a5ef88a9d91d5ca9090802003e1507aa6e53ddb0c603a","184013.09999999404","621.8999999985099","77","1","arctic","","","","",""
"dual-task","null","null","null","","arctic","swim","724.8000000044703","","t","null","88","88","1","arctic-dual-task","","t","lowercase","192000","0","4","2dce521b165388ea453a5ef88a9d91d5ca9090802003e1507aa6e53ddb0c603a","192009.59999999404","724.8000000044703","88","1","arctic","","","","",""
"dual-task","null","null","null","","arctic","swim","699.3000000044703","","n","null","88","88","1","arctic-dual-task","","n","lowercase","206000","0","4","2dce521b165388ea453a5ef88a9d91d5ca9090802003e1507aa6e53ddb0c603a","206012.09999999404","699.3000000044703","88","1","arctic","","","","",""
"dual-task","null","null","null","","arctic","swim","690.6999999955297","","F","null","77","77","1","arctic-dual-task","","F","uppercase","216000","0","4","2dce521b165388ea453a5ef88a9d91d5ca9090802003e1507aa6e53ddb0c603a","216005.5","690.6999999955297","77","1","arctic","","","","",""
"dual-task","null","null","null","","arctic","swim","693.5","","Q","null","77","77","1","arctic-dual-task","","Q","uppercase","226000","0","4","2dce521b165388ea453a5ef88a9d91d5ca9090802003e1507aa6e53ddb0c603a","226004","693.5","77","1","arctic","","","","",""
"dual-task","null","null","null","","arctic","swim","636.6000000014901","","R","null","77","77","1","arctic-dual-task","","R","uppercase","238000","0","4","2dce521b165388ea453a5ef88a9d91d5ca9090802003e1507aa6e53ddb0c603a","238009.8999999985","636.6000000014901","77","1","arctic","","","","",""
"dual-task","null","null","null","","arctic","swim","809.6000000014901","","D","null","77","77","1","arctic-dual-task","","D","uppercase","252000","0","4","2dce521b165388ea453a5ef88a9d91d5ca9090802003e1507aa6e53ddb0c603a","252000.8999999985","809.6000000014901","77","1","arctic","","","","",""
"dual-task","null","null","null","","arctic","swim","864.6000000014901","","e","null","88","88","1","arctic-dual-task","","e","lowercase","262000","0","4","2dce521b165388ea453a5ef88a9d91d5ca9090802003e1507aa6e53ddb0c603a","262007.8999999985","864.6000000014901","88","1","arctic","","","","",""
"dual-task","null","null","null","","arctic","swim","710.7999999970198","","T","null","77","77","1","arctic-dual-task","","T","uppercase","272000","0","4","2dce521b165388ea453a5ef88a9d91d5ca9090802003e1507aa6e53ddb0c603a","272010.3999999985","710.7999999970198","77","1","arctic","","","","",""
"dual-task","null","null","null","","arctic","swim","666.1000000014901","","H","null","77","77","1","arctic-dual-task","","H","uppercase","280000","0","4","2dce521b165388ea453a5ef88a9d91d5ca9090802003e1507aa6e53ddb0c603a","280006.3999999985","666.1000000014901","77","1","arctic","","","","",""
"dual-task","null","null","null","","arctic","swim","684.2999999970198","","t","null","88","88","1","arctic-dual-task","","t","lowercase","288000","0","4","2dce521b165388ea453a5ef88a9d91d5ca9090802003e1507aa6e53ddb0c603a","288011.8999999985","684.2999999970198","88","1","arctic","","","","",""
"dual-task","null","null","null","","arctic","swim","637.9000000059605","","R","null","77","77","1","arctic-dual-task","","R","uppercase","294000","0","4","2dce521b165388ea453a5ef88a9d91d5ca9090802003e1507aa6e53ddb0c603a","294008.5","637.9000000059605","77","1","arctic","","","","",""
"dual-task","null","null","null","","arctic","swim","708.2999999970198","","g","null","88","88","1","arctic-dual-task","","g","lowercase","302000","0","4","2dce521b165388ea453a5ef88a9d91d5ca9090802003e1507aa6e53ddb0c603a","302012.69999999553","708.2999999970198","88","1","arctic","","","","",""
"dual-task","null","null","null","","arctic","swim","866.7000000029802","","n","null","88","88","1","arctic-dual-task","","n","lowercase","308000","0","4","2dce521b165388ea453a5ef88a9d91d5ca9090802003e1507aa6e53ddb0c603a","308004.69999999553","866.7000000029802","88","1","arctic","","","","",""
"dual-task","null","null","null","","arctic","swim","694.7999999970198","","N","null","77","77","1","arctic-dual-task","","N","uppercase","318000","0","4","2dce521b165388ea453a5ef88a9d91d5ca9090802003e1507aa6e53ddb0c603a","318013.3999999985","694.7999999970198","77","1","arctic","","","","",""
"dual-task","null","null","null","","arctic","swim","775","","b","null","88","88","1","arctic-dual-task","","b","lowercase","324000","0","4","2dce521b165388ea453a5ef88a9d91d5ca9090802003e1507aa6e53ddb0c603a","324008.5","775","88","1","arctic","","","","",""
"dual-task","null","null","null","","arctic","swim","1135.1000000014901","","A","null","77","77","1","arctic-dual-task","","A","uppercase","330000","0","4","2dce521b165388ea453a5ef88a9d91d5ca9090802003e1507aa6e53ddb0c603a","330011.09999999404","1135.1000000014901","77","1","arctic","","","","",""
"dual-task","null","null","null","","arctic","swim","920.5","","d","null","88","88","1","arctic-dual-task","","d","lowercase","338000","0","4","2dce521b165388ea453a5ef88a9d91d5ca9090802003e1507aa6e53ddb0c603a","338001.09999999404","920.5","88","1","arctic","","","","",""
"dual-task","null","null","null","","arctic","swim","1368.8000000044703","","g","null","88","88","1","arctic-dual-task","","g","lowercase","348000","0","4","2dce521b165388ea453a5ef88a9d91d5ca9090802003e1507aa6e53ddb0c603a","348015.59999999404","1368.8000000044703","88","1","arctic","","","","",""
"dual-task","null","null","null","","arctic","swim","823.6000000014901","","t","null","88","88","1","arctic-dual-task","","t","lowercase","362000","0","4","2dce521b165388ea453a5ef88a9d91d5ca9090802003e1507aa6e53ddb0c603a","362009.8999999985","823.6000000014901","88","1","arctic","","","","",""
"dual-task","null","null","null","","arctic","swim","1297.5","","r","null","88","88","1","arctic-dual-task","","r","lowercase","374000","0","4","2dce521b165388ea453a5ef88a9d91d5ca9090802003e1507aa6e53ddb0c603a","374011.09999999404","1297.5","88","1","arctic","","","","",""
"dual-task","null","null","null","","arctic","swim","924.7999999970198","","g","null","88","88","1","arctic-dual-task","","g","lowercase","384000","0","4","2dce521b165388ea453a5ef88a9d91d5ca9090802003e1507aa6e53ddb0c603a","384007.3999999985","924.7999999970198","88","1","arctic","","","","",""
"dual-task","null","null","null","","arctic","swim","661.8000000044703","","h","null","88","88","1","arctic-dual-task","","h","lowercase","390000","0","4","2dce521b165388ea453a5ef88a9d91d5ca9090802003e1507aa6e53ddb0c603a","390008.69999999553","661.8000000044703","88","1","arctic","","","","",""
"dual-task","null","null","null","","arctic","swim","626.0999999940395","","d","null","88","88","1","arctic-dual-task","","d","lowercase","402000","0","4","2dce521b165388ea453a5ef88a9d91d5ca9090802003e1507aa6e53ddb0c603a","402006.3999999985","626.0999999940395","88","1","arctic","","","","",""
"dual-task","null","null","null","","arctic","swim","1176.3999999985099","","r","null","88","88","1","arctic-dual-task","","r","lowercase","410000","0","4","2dce521b165388ea453a5ef88a9d91d5ca9090802003e1507aa6e53ddb0c603a","410006.69999999553","1176.3999999985099","88","1","arctic","","","","",""
"dual-task","null","null","null","","arctic","swim","883.4000000059605","","N","null","77","77","1","arctic-dual-task","","N","uppercase","416000","0","4","2dce521b165388ea453a5ef88a9d91d5ca9090802003e1507aa6e53ddb0c603a","416013.09999999404","883.4000000059605","77","1","arctic","","","","",""
"dual-task","null","null","null","","arctic","swim","755.8999999985099","","R","null","77","77","1","arctic-dual-task","","R","uppercase","426000","0","4","2dce521b165388ea453a5ef88a9d91d5ca9090802003e1507aa6e53ddb0c603a","426015.299999997","755.8999999985099","77","1","arctic","","","","",""
"dual-task","null","null","null","","arctic","swim","1027.8000000044703","","H","null","77","77","1","arctic-dual-task","","H","uppercase","434000","0","4","2dce521b165388ea453a5ef88a9d91d5ca9090802003e1507aa6e53ddb0c603a","434006.69999999553","1027.8000000044703","77","1","arctic","","","","",""
"dual-task","null","null","null","","arctic","swim","709.8999999985099","","r","null","88","88","1","arctic-dual-task","","r","lowercase","444000","0","4","2dce521b165388ea453a5ef88a9d91d5ca9090802003e1507aa6e53ddb0c603a","444011.3999999985","709.8999999985099","88","1","arctic","","","","",""
"dual-task","null","null","null","","arctic","swim","756.8999999985099","","D","null","77","77","1","arctic-dual-task","","D","uppercase","458000","0","4","2dce521b165388ea453a5ef88a9d91d5ca9090802003e1507aa6e53ddb0c603a","458014.69999999553","756.8999999985099","77","1","arctic","","","","",""
"dual-task","null","null","null","","arctic","swim","993","","e","null","88","88","1","arctic-dual-task","","e","lowercase","466000","0","4","2dce521b165388ea453a5ef88a9d91d5ca9090802003e1507aa6e53ddb0c603a","466015.299999997","993","88","1","arctic","","","","",""
"dual-task","null","null","null","","arctic","swim","702.5","","T","null","77","77","1","arctic-dual-task","","T","uppercase","478000","0","4","2dce521b165388ea453a5ef88a9d91d5ca9090802003e1507aa6e53ddb0c603a","478005.299999997","702.5","77","1","arctic","","","","",""
"dual-task","null","null","null","","arctic","swim","931.5999999940395","","h","null","88","88","1","arctic-dual-task","","h","lowercase","492000","0","4","2dce521b165388ea453a5ef88a9d91d5ca9090802003e1507aa6e53ddb0c603a","492002","931.5999999940395","88","1","arctic","","","","",""
"dual-task","null","null","null","","arctic","swim","538.5","","a","null","88","88","1","arctic-dual-task","","a","lowercase","506000","0","4","2dce521b165388ea453a5ef88a9d91d5ca9090802003e1507aa6e53ddb0c603a","506006.09999999404","538.5","88","1","arctic","","","","",""
"dual-task","null","null","null","","arctic","swim","968.6000000014901","","q","null","88","88","1","arctic-dual-task","","q","lowercase","520000","0","4","2dce521b165388ea453a5ef88a9d91d5ca9090802003e1507aa6e53ddb0c603a","520013.8999999985","968.6000000014901","88","1","arctic","","","","",""
"dual-task","null","null","null","","arctic","swim","712.1999999955297","","D","null","77","77","1","arctic-dual-task","","D","uppercase","532000","0","4","2dce521b165388ea453a5ef88a9d91d5ca9090802003e1507aa6e53ddb0c603a","532009.3999999985","712.1999999955297","77","1","arctic","","","","",""
"dual-task","null","null","null","","arctic","swim","776.0999999940395","","Q","null","77","77","1","arctic-dual-task","","Q","uppercase","544000","0","4","2dce521b165388ea453a5ef88a9d91d5ca9090802003e1507aa6e53ddb0c603a","544006.5","776.0999999940395","77","1","arctic","","","","",""
"dual-task","null","null","null","","arctic","swim","741.7000000029802","","Q","null","77","77","1","arctic-dual-task","","Q","uppercase","550000","0","4","2dce521b165388ea453a5ef88a9d91d5ca9090802003e1507aa6e53ddb0c603a","550002.5","741.7000000029802","77","1","arctic","","","","",""
"dual-task","null","null","null","","arctic","swim","825.1999999955297","","t","null","88","88","1","arctic-dual-task","","t","lowercase","558000","0","4","2dce521b165388ea453a5ef88a9d91d5ca9090802003e1507aa6e53ddb0c603a","558007.299999997","825.1999999955297","88","1","arctic","","","","",""
"dual-task","null","null","null","","arctic","swim","628.1000000014901","","h","null","88","88","1","arctic-dual-task","","h","lowercase","566000","0","4","2dce521b165388ea453a5ef88a9d91d5ca9090802003e1507aa6e53ddb0c603a","566005.1999999955","628.1000000014901","88","1","arctic","","","","",""
"dual-task","null","null","null","","arctic","swim","657.7999999970198","","q","null","88","88","1","arctic-dual-task","","q","lowercase","580000","0","4","2dce521b165388ea453a5ef88a9d91d5ca9090802003e1507aa6e53ddb0c603a","580012.6999999955","657.7999999970198","88","1","arctic","","","","",""
"dual-task","null","null","null","","arctic","swim","778.8999999985099","","g","null","88","88","1","arctic-dual-task","","g","lowercase","588000","0","4","2dce521b165388ea453a5ef88a9d91d5ca9090802003e1507aa6e53ddb0c603a","588004.5","778.8999999985099","88","1","arctic","","","","",""
"dual-task","null","null","null","","arctic","swim","643.5","","T","null","77","77","1","arctic-dual-task","","T","uppercase","598000","0","4","2dce521b165388ea453a5ef88a9d91d5ca9090802003e1507aa6e53ddb0c603a","598001.1999999955","643.5","77","1","arctic","","","","",""
"dual-task","null","null","null","","arctic","swim","1010.8999999985099","","N","null","77","77","1","arctic-dual-task","","N","uppercase","606000","0","4","2dce521b165388ea453a5ef88a9d91d5ca9090802003e1507aa6e53ddb0c603a","606007.299999997","1010.8999999985099","77","1","arctic","","","","",""
"dual-task","null","null","null","","arctic","swim","640.1000000014901","","q","null","88","88","1","arctic-dual-task","","q","lowercase","616000","0","4","2dce521b165388ea453a5ef88a9d91d5ca9090802003e1507aa6e53ddb0c603a","616003.3999999985","640.1000000014901","88","1","arctic","","","","",""
"dual-task","null","null","null","","arctic","swim","729.1999999955297","","a","null","88","88","1","arctic-dual-task","","a","lowercase","630000","0","4","2dce521b165388ea453a5ef88a9d91d5ca9090802003e1507aa6e53ddb0c603a","630002.5","729.1999999955297","88","1","arctic","","","","",""
"dual-task","null","null","null","","arctic","swim","693","","f","null","88","88","1","arctic-dual-task","","f","lowercase","640000","0","4","2dce521b165388ea453a5ef88a9d91d5ca9090802003e1507aa6e53ddb0c603a","640002.3999999985","693","88","1","arctic","","","","",""
"dual-task","null","null","null","","arctic","swim","706.1999999955297","","E","null","77","77","1","arctic-dual-task","","E","uppercase","652000","0","4","2dce521b165388ea453a5ef88a9d91d5ca9090802003e1507aa6e53ddb0c603a","652012.3999999985","706.1999999955297","77","1","arctic","","","","",""
"dual-task","null","null","null","","arctic","swim","584.3999999985099","","E","null","77","77","1","arctic-dual-task","","E","uppercase","666000","0","4","2dce521b165388ea453a5ef88a9d91d5ca9090802003e1507aa6e53ddb0c603a","666010.3999999985","584.3999999985099","77","1","arctic","","","","",""
"dual-task","null","null","null","","arctic","swim","590.5","","a","null","88","88","1","arctic-dual-task","","a","lowercase","676000","0","4","2dce521b165388ea453a5ef88a9d91d5ca9090802003e1507aa6e53ddb0c603a","676004.8999999985","590.5","88","1","arctic","","","","",""
"dual-task","null","null","null","","arctic","swim","904","","b","null","88","88","1","arctic-dual-task","","b","lowercase","684000","0","4","2dce521b165388ea453a5ef88a9d91d5ca9090802003e1507aa6e53ddb0c603a","684001.6999999955","904","88","1","arctic","","","","",""
"dual-task","null","null","null","","arctic","swim","764","","B","null","77","77","1","arctic-dual-task","","B","uppercase","694000","0","4","2dce521b165388ea453a5ef88a9d91d5ca9090802003e1507aa6e53ddb0c603a","694004.5","764","77","1","arctic","","","","",""
"dual-task","null","null","null","","arctic","swim","580.1999999955297","","R","null","77","77","1","arctic-dual-task","","R","uppercase","706000","0","4","2dce521b165388ea453a5ef88a9d91d5ca9090802003e1507aa6e53ddb0c603a","706013.3999999985","580.1999999955297","77","1","arctic","","","","",""
"dual-task","null","null","null","","arctic","swim","795.1000000014901","","E","null","77","77","1","arctic-dual-task","","E","uppercase","714000","0","4","2dce521b165388ea453a5ef88a9d91d5ca9090802003e1507aa6e53ddb0c603a","714010.3999999985","795.1000000014901","77","1","arctic","","","","",""
"dual-task","null","null","null","","arctic","swim","800.5","","h","null","88","88","1","arctic-dual-task","","h","lowercase","728000","0","4","2dce521b165388ea453a5ef88a9d91d5ca9090802003e1507aa6e53ddb0c603a","728006.1999999955","800.5","88","1","arctic","","","","",""
"dual-task","null","null","null","","arctic","swim","713.1000000014901","","f","null","88","88","1","arctic-dual-task","","f","lowercase","742000","0","4","2dce521b165388ea453a5ef88a9d91d5ca9090802003e1507aa6e53ddb0c603a","742005.6999999955","713.1000000014901","88","1","arctic","","","","",""
"dual-task","null","null","null","","arctic","swim","773.7999999970198","","e","null","88","88","1","arctic-dual-task","","e","lowercase","756000","0","4","2dce521b165388ea453a5ef88a9d91d5ca9090802003e1507aa6e53ddb0c603a","756007","773.7999999970198","88","1","arctic","","","","",""
"dual-task","null","null","null","","arctic","swim","746.7000000029802","","A","null","77","77","1","arctic-dual-task","","A","uppercase","762000","0","4","2dce521b165388ea453a5ef88a9d91d5ca9090802003e1507aa6e53ddb0c603a","762008.799999997","746.7000000029802","77","1","arctic","","","","",""
"dual-task","null","null","null","","arctic","swim","803.3999999985099","","b","null","88","88","1","arctic-dual-task","","b","lowercase","770000","0","4","2dce521b165388ea453a5ef88a9d91d5ca9090802003e1507aa6e53ddb0c603a","770015.5","803.3999999985099","88","1","arctic","","","","",""
"dual-task","null","null","null","","arctic","swim","764.2000000029802","","G","null","77","77","1","arctic-dual-task","","G","uppercase","776000","0","4","2dce521b165388ea453a5ef88a9d91d5ca9090802003e1507aa6e53ddb0c603a","776004.299999997","764.2000000029802","77","1","arctic","","","","",""
"dual-task","null","null","null","","arctic","swim","615.2999999970198","","A","null","77","77","1","arctic-dual-task","","A","uppercase","784000","0","4","2dce521b165388ea453a5ef88a9d91d5ca9090802003e1507aa6e53ddb0c603a","784015.5","615.2999999970198","77","1","arctic","","","","",""
"audio-keyboard-response","29","997223","0.0-6.0-0.0-1.0","2dce521b165388ea453a5ef88a9d91d5ca9090802003e1507aa6e53ddb0c603a","arctic","swim","null","","audio/story_arctic.mp3","","null","","","","","","","","","","","","","","","","","","","",""
"html-button-response","30","999785","0.0-6.0-0.0-2.0","2dce521b165388ea453a5ef88a9d91d5ca9090802003e1507aa6e53ddb0c603a","arctic","swim","2560","","<p>This concludes the story. Thank you for listening.</p><p>You will now answer some questions about the content of the story.</p>","0","","","","","","","","","","","","","","","","","","","","",""
"survey-multi-choice","31","1005417","0.0-6.0-0.0-3.0-0.0","2dce521b165388ea453a5ef88a9d91d5ca9090802003e1507aa6e53ddb0c603a","arctic","swim","5631","","<b>How did the narrator&#39;s encounter with the polar bears end?</b>","","","","1","arctic-comprehension","","","","","","","","","","","","","{""Q0"":""The bears walked back to their den.""}","","","",""
"survey-multi-choice","32","1010834","0.0-6.0-0.0-3.0-0.1","2dce521b165388ea453a5ef88a9d91d5ca9090802003e1507aa6e53ddb0c603a","arctic","swim","5159","","<b>How many sponsorships did the narrator receive to support her expedition?</b>","","","","1","arctic-comprehension","","","","","","","","","","","","","{""Q0"":""None""}","","","",""
"survey-multi-choice","33","1017492","0.0-6.0-0.0-3.0-0.2","2dce521b165388ea453a5ef88a9d91d5ca9090802003e1507aa6e53ddb0c603a","arctic","swim","6407","","<b>What was the objective of the narrator&#39;s expedition?</b>","","","","1","arctic-comprehension","","","","","","","","","","","","","{""Q0"":""Dogsled across Arctic America""}","","","",""
"survey-multi-choice","34","1025759","0.0-6.0-0.0-3.0-0.3","2dce521b165388ea453a5ef88a9d91d5ca9090802003e1507aa6e53ddb0c603a","arctic","swim","8007","","<b>Which dog on the narrator&#39;s dog team never followed instructions?</b>","","","","1","arctic-comprehension","","","","","","","","","","","","","{""Q0"":""Robert""}","","","",""
"survey-multi-choice","35","1033452","0.0-6.0-0.0-3.0-0.4","2dce521b165388ea453a5ef88a9d91d5ca9090802003e1507aa6e53ddb0c603a","arctic","swim","7440","","<b>How did the narrator&#39;s neighbour respond when she told him about her expedition?</b>","","","","1","arctic-comprehension","","","","","","","","","","","","","{""Q0"":""He said she was going to fail.""}","","","",""
"survey-multi-choice","36","1038881","0.0-6.0-0.0-3.0-0.5","2dce521b165388ea453a5ef88a9d91d5ca9090802003e1507aa6e53ddb0c603a","arctic","swim","5175","","<b>How did the dogs respond when they saw the bears?</b>","","","","1","arctic-comprehension","","","","","","","","","","","","","{""Q0"":""Approached them""}","","","",""
"survey-multi-choice","37","1047686","0.0-6.0-0.0-3.0-0.6","2dce521b165388ea453a5ef88a9d91d5ca9090802003e1507aa6e53ddb0c603a","arctic","swim","8552","","<b>What were the weather conditions in the Arctic like the winter of the narrator&#39;s expedition?</b>","","","","1","arctic-comprehension","","","","","","","","","","","","","{""Q0"":""There were more storms than any other winter in recorded history.""}","","","",""
"survey-multi-choice","38","1066185","0.0-6.0-0.0-3.0-0.7","2dce521b165388ea453a5ef88a9d91d5ca9090802003e1507aa6e53ddb0c603a","arctic","swim","18248","","<b>What did the narrator do for leisure while in her tent?</b>","","","","1","arctic-comprehension","","","","","","","","","","","","","{""Q0"":""Read""}","","","",""
"survey-multi-choice","39","1070331","0.0-6.0-0.0-3.0-0.8","2dce521b165388ea453a5ef88a9d91d5ca9090802003e1507aa6e53ddb0c603a","arctic","swim","3894","","<b>What is the name of the narrator&#39;s neighbour?</b>","","","","1","arctic-comprehension","","","","","","","","","","","","","{""Q0"":""Dave""}","","","",""
"survey-multi-choice","40","1080953","0.0-6.0-0.0-3.0-0.9","2dce521b165388ea453a5ef88a9d91d5ca9090802003e1507aa6e53ddb0c603a","arctic","swim","10369","","<b>How did the narrator prepare for her expedition?</b>","","","","1","arctic-comprehension","","","","","","","","","","","","","{""Q0"":""Trained in Alaska learning how to dogsled""}","","","",""
"html-button-response","41","1082553","0.0-6.0-0.0-4.0","2dce521b165388ea453a5ef88a9d91d5ca9090802003e1507aa6e53ddb0c603a","arctic","swim","1348","","<p>Thank you for your responses.</p><p>You will now answer some questions about your impressions of the story.</p>","0","","","","","","","","","","","","","","","","","","","","",""
"html-button-response","42","1086237","0.0-6.0-0.0-5.0-0.0","2dce521b165388ea453a5ef88a9d91d5ca9090802003e1507aa6e53ddb0c603a","arctic","swim","3684","","A3","4","","","","arctic-engagement","","","","","","","","","","","","","","5","absorption","",""
"html-button-response","43","1090178","0.0-6.0-0.0-5.0-0.1","2dce521b165388ea453a5ef88a9d91d5ca9090802003e1507aa6e53ddb0c603a","arctic","swim","3689","","A5","5","","","","arctic-engagement","","","","","","","","","","","","","","6","absorption","",""
"html-button-response","44","1093202","0.0-6.0-0.0-5.0-0.2","2dce521b165388ea453a5ef88a9d91d5ca9090802003e1507aa6e53ddb0c603a","arctic","swim","2773","","E8","2","","","","arctic-engagement","","","","","","","","","","","","","","3","enjoyment","",""
"html-button-response","45","1098029","0.0-6.0-0.0-5.0-0.3","2dce521b165388ea453a5ef88a9d91d5ca9090802003e1507aa6e53ddb0c603a","arctic","swim","4574","","A2","6","","","","arctic-engagement","","","","","","","","","","","","","","7","absorption","",""
"html-button-response","46","1105243","0.0-6.0-0.0-5.0-0.4","2dce521b165388ea453a5ef88a9d91d5ca9090802003e1507aa6e53ddb0c603a","arctic","swim","6963","","A1","3","","","","arctic-engagement","","","","","","","","","","","","","","4","absorption","",""
"html-button-response","47","1108494","0.0-6.0-0.0-5.0-0.5","2dce521b165388ea453a5ef88a9d91d5ca9090802003e1507aa6e53ddb0c603a","arctic","swim","2998","","EE1","5","","","","arctic-engagement","","","","","","","","","","","","","","6","emo-engage","",""
"html-button-response","48","1110876","0.0-6.0-0.0-5.0-0.6","2dce521b165388ea453a5ef88a9d91d5ca9090802003e1507aa6e53ddb0c603a","arctic","swim","2130","","MS3","6","","","","arctic-engagement","","","","","","","","","","","","","","7","mental-sim","",""
"html-button-response","49","1113760","0.0-6.0-0.0-5.0-0.7","2dce521b165388ea453a5ef88a9d91d5ca9090802003e1507aa6e53ddb0c603a","arctic","swim","2634","","EE3","4","","","","arctic-engagement","","","","","","","","","","","","","","5","emo-engage","",""
"html-button-response","50","1117997","0.0-6.0-0.0-5.0-0.8","2dce521b165388ea453a5ef88a9d91d5ca9090802003e1507aa6e53ddb0c603a","arctic","swim","3984","","EE5","2","","","","arctic-engagement","","","","","","","","","","","","","","3","emo-engage","",""
"html-button-response","51","1120035","0.0-6.0-0.0-5.0-0.9","2dce521b165388ea453a5ef88a9d91d5ca9090802003e1507aa6e53ddb0c603a","arctic","swim","1788","","E10","4","","","","arctic-engagement","","","","","","","","","","","","","","5","enjoyment","",""
"html-button-response","52","1123258","0.0-6.0-0.0-5.0-0.10","2dce521b165388ea453a5ef88a9d91d5ca9090802003e1507aa6e53ddb0c603a","arctic","swim","2970","","EE4","2","","","","arctic-engagement","","","","","","","","","","","","","","3","emo-engage","",""
"html-button-response","53","1132911","0.0-6.0-0.0-5.0-0.11","2dce521b165388ea453a5ef88a9d91d5ca9090802003e1507aa6e53ddb0c603a","arctic","swim","9402","","A4","4","","","","arctic-engagement","","","","","","","","","","","","","","5","absorption","",""
"html-button-response","54","1140954","0.0-6.0-0.0-5.0-0.12","2dce521b165388ea453a5ef88a9d91d5ca9090802003e1507aa6e53ddb0c603a","arctic","swim","7789","","MS1","6","","","","arctic-engagement","","","","","","","","","","","","","","7","mental-sim","",""
"html-button-response","55","1143504","0.0-6.0-0.0-5.0-0.13","2dce521b165388ea453a5ef88a9d91d5ca9090802003e1507aa6e53ddb0c603a","arctic","swim","2298","","E6","4","","","","arctic-engagement","","","","","","","","","","","","","","5","enjoyment","",""
"html-button-response","56","1145764","0.0-6.0-0.0-5.0-0.14","2dce521b165388ea453a5ef88a9d91d5ca9090802003e1507aa6e53ddb0c603a","arctic","swim","2008","","EE2","4","","","","arctic-engagement","","","","","","","","","","","","","","5","emo-engage","",""
"html-button-response","57","1148140","0.0-6.0-0.0-5.0-0.15","2dce521b165388ea453a5ef88a9d91d5ca9090802003e1507aa6e53ddb0c603a","arctic","swim","2125","","E7","5","","","","arctic-engagement","","","","","","","","","","","","","","6","enjoyment","",""
"html-button-response","58","1151407","0.0-6.0-0.0-5.0-0.16","2dce521b165388ea453a5ef88a9d91d5ca9090802003e1507aa6e53ddb0c603a","arctic","swim","3014","","MS2","6","","","","arctic-engagement","","","","","","","","","","","","","","7","mental-sim","",""
"html-button-response","59","1153961","0.0-6.0-0.0-5.0-0.17","2dce521b165388ea453a5ef88a9d91d5ca9090802003e1507aa6e53ddb0c603a","arctic","swim","2303","","E1","3","","","","arctic-engagement","","","","","","","","","","","","","","4","enjoyment","",""
"html-keyboard-response","60","1164065","0.0-6.0-1.0","2dce521b165388ea453a5ef88a9d91d5ca9090802003e1507aa6e53ddb0c603a","arctic","swim","9853","","<p>Thank you for your responses. You will now listen to the second story.</p><p>Remember, as you listen to the story you will see letters appear on the screen.</br>As quickly as possible, press <b>&lt;x&gt;</b> if the letter is lowercase and <b>&lt;m&gt;</b> if the letter is uppercase.</p><p>Press <b>&lt;x&gt;</b> or <b>&lt;m&gt;</b> to begin listening!</p>","","88","","","","","","","","","","","","","","","","","","","",""
"html-keyboard-response","61","1164566","0.0-6.0-2.0-0.0","2dce521b165388ea453a5ef88a9d91d5ca9090802003e1507aa6e53ddb0c603a","arctic","swim","null","","<div style=""font-size:60px;"" tabindex=""0"">+</div>","","null","","","","","","","","","","","","","","","","","","","",""
"dual-task","null","null","null","","arctic","swim","1233.2999999970198","","T","null","77","77","1","swim-dual-task","","T","uppercase","16000","0","4","2dce521b165388ea453a5ef88a9d91d5ca9090802003e1507aa6e53ddb0c603a","16001","1233.2999999970198","77","1","swim","","","","",""
"dual-task","null","null","null","","arctic","swim","984.2999999970198","","H","null","77","77","1","swim-dual-task","","H","uppercase","22000","0","4","2dce521b165388ea453a5ef88a9d91d5ca9090802003e1507aa6e53ddb0c603a","22001","984.2999999970198","77","1","swim","","","","",""
"dual-task","null","null","null","","arctic","swim","712.8999999985099","","G","null","77","77","1","swim-dual-task","","G","uppercase","36000","0","4","2dce521b165388ea453a5ef88a9d91d5ca9090802003e1507aa6e53ddb0c603a","36008.70000000298","712.8999999985099","77","1","swim","","","","",""
"dual-task","null","null","null","","arctic","swim","672.1999999955297","","D","null","77","77","1","swim-dual-task","","D","uppercase","46000","0","4","2dce521b165388ea453a5ef88a9d91d5ca9090802003e1507aa6e53ddb0c603a","46000.20000000298","672.1999999955297","77","1","swim","","","","",""
"dual-task","null","null","null","","arctic","swim","841.5","","r","null","88","88","1","swim-dual-task","","r","lowercase","52000","0","4","2dce521b165388ea453a5ef88a9d91d5ca9090802003e1507aa6e53ddb0c603a","52006.20000000298","841.5","88","1","swim","","","","",""
"dual-task","null","null","null","","arctic","swim","647","","B","null","77","77","1","swim-dual-task","","B","uppercase","60000","0","4","2dce521b165388ea453a5ef88a9d91d5ca9090802003e1507aa6e53ddb0c603a","60012.39999999851","647","77","1","swim","","","","",""
"dual-task","null","null","null","","arctic","swim","619.6000000014901","","T","null","77","77","1","swim-dual-task","","T","uppercase","70000","0","4","2dce521b165388ea453a5ef88a9d91d5ca9090802003e1507aa6e53ddb0c603a","70002.10000000149","619.6000000014901","77","1","swim","","","","",""
"dual-task","null","null","null","","arctic","swim","865.6000000014901","","n","null","88","88","1","swim-dual-task","","n","lowercase","84000","0","4","2dce521b165388ea453a5ef88a9d91d5ca9090802003e1507aa6e53ddb0c603a","84007.20000000298","865.6000000014901","88","1","swim","","","","",""
"dual-task","null","null","null","","arctic","swim","627.1999999955297","","d","null","88","88","1","swim-dual-task","","d","lowercase","90000","0","4","2dce521b165388ea453a5ef88a9d91d5ca9090802003e1507aa6e53ddb0c603a","90007.10000000149","627.1999999955297","88","1","swim","","","","",""
"dual-task","null","null","null","","arctic","swim","688.6000000014901","","T","null","77","77","1","swim-dual-task","","T","uppercase","102000","0","4","2dce521b165388ea453a5ef88a9d91d5ca9090802003e1507aa6e53ddb0c603a","102008.20000000298","688.6000000014901","77","1","swim","","","","",""
"dual-task","null","null","null","","arctic","swim","969.8999999985099","","H","null","77","77","1","swim-dual-task","","H","uppercase","114000","0","4","2dce521b165388ea453a5ef88a9d91d5ca9090802003e1507aa6e53ddb0c603a","114013.80000000447","969.8999999985099","77","1","swim","","","","",""
"dual-task","null","null","null","","arctic","swim","654.3999999985099","","H","null","77","77","1","swim-dual-task","","H","uppercase","122000","0","4","2dce521b165388ea453a5ef88a9d91d5ca9090802003e1507aa6e53ddb0c603a","122005.10000000149","654.3999999985099","77","1","swim","","","","",""
"dual-task","null","null","null","","arctic","swim","974.5","","a","null","88","88","1","swim-dual-task","","a","lowercase","130000","0","4","2dce521b165388ea453a5ef88a9d91d5ca9090802003e1507aa6e53ddb0c603a","130009.20000000298","974.5","88","1","swim","","","","",""
"dual-task","null","null","null","","arctic","swim","565.6000000014901","","B","null","77","77","1","swim-dual-task","","B","uppercase","142000","0","4","2dce521b165388ea453a5ef88a9d91d5ca9090802003e1507aa6e53ddb0c603a","142006.20000000298","565.6000000014901","77","1","swim","","","","",""
"dual-task","null","null","null","","arctic","swim","762.2999999970198","","A","null","77","77","1","swim-dual-task","","A","uppercase","148000","0","4","2dce521b165388ea453a5ef88a9d91d5ca9090802003e1507aa6e53ddb0c603a","148008.20000000298","762.2999999970198","77","1","swim","","","","",""
"dual-task","null","null","null","","arctic","swim","854.7000000029802","","Q","null","77","77","1","swim-dual-task","","Q","uppercase","158000","0","4","2dce521b165388ea453a5ef88a9d91d5ca9090802003e1507aa6e53ddb0c603a","158005.1000000015","854.7000000029802","77","1","swim","","","","",""
"dual-task","null","null","null","","arctic","swim","NA","","b","null","NA","88","0","swim-dual-task","","b","lowercase","166000","1","4","2dce521b165388ea453a5ef88a9d91d5ca9090802003e1507aa6e53ddb0c603a","166013.20000000298","NA","NA","0","swim","","","","",""
"dual-task","null","null","null","","arctic","swim","684.8999999985099","","E","null","77","77","1","swim-dual-task","","E","uppercase","180000","0","4","2dce521b165388ea453a5ef88a9d91d5ca9090802003e1507aa6e53ddb0c603a","180012.6000000015","684.8999999985099","77","1","swim","","","","",""
"dual-task","null","null","null","","arctic","swim","NA","","n","null","NA","88","0","swim-dual-task","","n","lowercase","192000","1","4","2dce521b165388ea453a5ef88a9d91d5ca9090802003e1507aa6e53ddb0c603a","192013.5","NA","NA","0","swim","","","","",""
"dual-task","null","null","null","","arctic","swim","707.5","","e","null","88","88","1","swim-dual-task","","e","lowercase","200000","0","4","2dce521b165388ea453a5ef88a9d91d5ca9090802003e1507aa6e53ddb0c603a","200001.8999999985","707.5","88","1","swim","","","","",""
"dual-task","null","null","null","","arctic","swim","732.3000000044703","","q","null","88","88","1","swim-dual-task","","q","lowercase","206000","0","4","2dce521b165388ea453a5ef88a9d91d5ca9090802003e1507aa6e53ddb0c603a","206000.3999999985","732.3000000044703","88","1","swim","","","","",""
"dual-task","null","null","null","","arctic","swim","601.7000000029802","","t","null","88","88","1","swim-dual-task","","t","lowercase","216000","0","4","2dce521b165388ea453a5ef88a9d91d5ca9090802003e1507aa6e53ddb0c603a","216006.80000000447","601.7000000029802","88","1","swim","","","","",""
"dual-task","null","null","null","","arctic","swim","826.6000000014901","","N","null","77","77","1","swim-dual-task","","N","uppercase","222000","0","4","2dce521b165388ea453a5ef88a9d91d5ca9090802003e1507aa6e53ddb0c603a","222006.1000000015","826.6000000014901","77","1","swim","","","","",""
"dual-task","null","null","null","","arctic","swim","908","","d","null","88","88","1","swim-dual-task","","d","lowercase","232000","0","4","2dce521b165388ea453a5ef88a9d91d5ca9090802003e1507aa6e53ddb0c603a","232000.70000000298","908","88","1","swim","","","","",""
"dual-task","null","null","null","","arctic","swim","675.3000000044703","","A","null","77","77","1","swim-dual-task","","A","uppercase","244000","0","4","2dce521b165388ea453a5ef88a9d91d5ca9090802003e1507aa6e53ddb0c603a","244008.5","675.3000000044703","77","1","swim","","","","",""
"dual-task","null","null","null","","arctic","swim","610.2000000029802","","B","null","77","77","1","swim-dual-task","","B","uppercase","250000","0","4","2dce521b165388ea453a5ef88a9d91d5ca9090802003e1507aa6e53ddb0c603a","250010.30000000447","610.2000000029802","77","1","swim","","","","",""
"dual-task","null","null","null","","arctic","swim","617.7000000029802","","e","null","88","88","1","swim-dual-task","","e","lowercase","262000","0","4","2dce521b165388ea453a5ef88a9d91d5ca9090802003e1507aa6e53ddb0c603a","262003.1000000015","617.7000000029802","88","1","swim","","","","",""
"dual-task","null","null","null","","arctic","swim","621.3999999985099","","E","null","77","77","1","swim-dual-task","","E","uppercase","272000","0","4","2dce521b165388ea453a5ef88a9d91d5ca9090802003e1507aa6e53ddb0c603a","272012.5","621.3999999985099","77","1","swim","","","","",""
"dual-task","null","null","null","","arctic","swim","580.7999999970198","","h","null","88","88","1","swim-dual-task","","h","lowercase","278000","0","4","2dce521b165388ea453a5ef88a9d91d5ca9090802003e1507aa6e53ddb0c603a","278014.80000000447","580.7999999970198","88","1","swim","","","","",""
"dual-task","null","null","null","","arctic","swim","611.5","","G","null","77","77","1","swim-dual-task","","G","uppercase","292000","0","4","2dce521b165388ea453a5ef88a9d91d5ca9090802003e1507aa6e53ddb0c603a","292009.30000000447","611.5","77","1","swim","","","","",""
"dual-task","null","null","null","","arctic","swim","621.5","","a","null","88","88","1","swim-dual-task","","a","lowercase","304000","0","4","2dce521b165388ea453a5ef88a9d91d5ca9090802003e1507aa6e53ddb0c603a","304011.200000003","621.5","88","1","swim","","","","",""
"dual-task","null","null","null","","arctic","swim","1100.5","","d","null","88","88","1","swim-dual-task","","d","lowercase","316000","0","4","2dce521b165388ea453a5ef88a9d91d5ca9090802003e1507aa6e53ddb0c603a","316008.3999999985","1100.5","88","1","swim","","","","",""
"dual-task","null","null","null","","arctic","swim","726.6000000014901","","G","null","77","77","1","swim-dual-task","","G","uppercase","324000","0","4","2dce521b165388ea453a5ef88a9d91d5ca9090802003e1507aa6e53ddb0c603a","324006.1000000015","726.6000000014901","77","1","swim","","","","",""
"dual-task","null","null","null","","arctic","swim","686.6000000014901","","n","null","88","88","1","swim-dual-task","","n","lowercase","336000","0","4","2dce521b165388ea453a5ef88a9d91d5ca9090802003e1507aa6e53ddb0c603a","336008.200000003","686.6000000014901","88","1","swim","","","","",""
"dual-task","null","null","null","","arctic","swim","645.1000000014901","","a","null","88","88","1","swim-dual-task","","a","lowercase","346000","0","4","2dce521b165388ea453a5ef88a9d91d5ca9090802003e1507aa6e53ddb0c603a","346013.5","645.1000000014901","88","1","swim","","","","",""
"dual-task","null","null","null","","arctic","swim","711.1000000014901","","t","null","88","88","1","swim-dual-task","","t","lowercase","360000","0","4","2dce521b165388ea453a5ef88a9d91d5ca9090802003e1507aa6e53ddb0c603a","360008.700000003","711.1000000014901","88","1","swim","","","","",""
"dual-task","null","null","null","","arctic","swim","580.8999999985099","","F","null","77","77","1","swim-dual-task","","F","uppercase","368000","0","4","2dce521b165388ea453a5ef88a9d91d5ca9090802003e1507aa6e53ddb0c603a","368001.700000003","580.8999999985099","77","1","swim","","","","",""
"dual-task","null","null","null","","arctic","swim","807.5999999940395","","h","null","88","88","1","swim-dual-task","","h","lowercase","378000","0","4","2dce521b165388ea453a5ef88a9d91d5ca9090802003e1507aa6e53ddb0c603a","378013.30000000447","807.5999999940395","88","1","swim","","","","",""
"dual-task","null","null","null","","arctic","swim","1293.8999999985099","","n","null","88","88","1","swim-dual-task","","n","lowercase","386000","0","4","2dce521b165388ea453a5ef88a9d91d5ca9090802003e1507aa6e53ddb0c603a","386013.700000003","1293.8999999985099","88","1","swim","","","","",""
"dual-task","null","null","null","","arctic","swim","641.8999999985099","","f","null","88","88","1","swim-dual-task","","f","lowercase","398000","0","4","2dce521b165388ea453a5ef88a9d91d5ca9090802003e1507aa6e53ddb0c603a","398003","641.8999999985099","88","1","swim","","","","",""
"dual-task","null","null","null","","arctic","swim","630.5","","R","null","77","77","1","swim-dual-task","","R","uppercase","408000","0","4","2dce521b165388ea453a5ef88a9d91d5ca9090802003e1507aa6e53ddb0c603a","408001.200000003","630.5","77","1","swim","","","","",""
"dual-task","null","null","null","","arctic","swim","951.1000000014901","","b","null","88","88","1","swim-dual-task","","b","lowercase","418000","0","4","2dce521b165388ea453a5ef88a9d91d5ca9090802003e1507aa6e53ddb0c603a","418007","951.1000000014901","88","1","swim","","","","",""
"dual-task","null","null","null","","arctic","swim","741.5","","N","null","77","77","1","swim-dual-task","","N","uppercase","426000","0","4","2dce521b165388ea453a5ef88a9d91d5ca9090802003e1507aa6e53ddb0c603a","426002.200000003","741.5","77","1","swim","","","","",""
"dual-task","null","null","null","","arctic","swim","792.2999999970198","","e","null","88","88","1","swim-dual-task","","e","lowercase","432000","0","4","2dce521b165388ea453a5ef88a9d91d5ca9090802003e1507aa6e53ddb0c603a","432001.700000003","792.2999999970198","88","1","swim","","","","",""
"dual-task","null","null","null","","arctic","swim","667.8000000044703","","R","null","77","77","1","swim-dual-task","","R","uppercase","440000","0","4","2dce521b165388ea453a5ef88a9d91d5ca9090802003e1507aa6e53ddb0c603a","440014.8999999985","667.8000000044703","77","1","swim","","","","",""
"dual-task","null","null","null","","arctic","swim","732","","D","null","77","77","1","swim-dual-task","","D","uppercase","448000","0","4","2dce521b165388ea453a5ef88a9d91d5ca9090802003e1507aa6e53ddb0c603a","448013","732","77","1","swim","","","","",""
"dual-task","null","null","null","","arctic","swim","724.3999999985099","","F","null","77","77","1","swim-dual-task","","F","uppercase","458000","0","4","2dce521b165388ea453a5ef88a9d91d5ca9090802003e1507aa6e53ddb0c603a","458008.200000003","724.3999999985099","77","1","swim","","","","",""
"dual-task","null","null","null","","arctic","swim","779.7999999970198","","t","null","88","88","1","swim-dual-task","","t","lowercase","472000","0","4","2dce521b165388ea453a5ef88a9d91d5ca9090802003e1507aa6e53ddb0c603a","472002.1000000015","779.7999999970198","88","1","swim","","","","",""
"dual-task","null","null","null","","arctic","swim","1100.7999999970198","","r","null","88","88","1","swim-dual-task","","r","lowercase","484000","0","4","2dce521b165388ea453a5ef88a9d91d5ca9090802003e1507aa6e53ddb0c603a","484007.200000003","1100.7999999970198","88","1","swim","","","","",""
"dual-task","null","null","null","","arctic","swim","689.2000000029802","","E","null","77","77","1","swim-dual-task","","E","uppercase","492000","0","4","2dce521b165388ea453a5ef88a9d91d5ca9090802003e1507aa6e53ddb0c603a","492004.5","689.2000000029802","77","1","swim","","","","",""
"dual-task","null","null","null","","arctic","swim","660","","H","null","77","77","1","swim-dual-task","","H","uppercase","502000","0","4","2dce521b165388ea453a5ef88a9d91d5ca9090802003e1507aa6e53ddb0c603a","502009.1000000015","660","77","1","swim","","","","",""
"dual-task","null","null","null","","arctic","swim","893.6000000014901","","h","null","88","88","1","swim-dual-task","","h","lowercase","514000","0","4","2dce521b165388ea453a5ef88a9d91d5ca9090802003e1507aa6e53ddb0c603a","514013.3999999985","893.6000000014901","88","1","swim","","","","",""
"dual-task","null","null","null","","arctic","swim","804.5","","r","null","88","88","1","swim-dual-task","","r","lowercase","526000","0","4","2dce521b165388ea453a5ef88a9d91d5ca9090802003e1507aa6e53ddb0c603a","526003.5","804.5","88","1","swim","","","","",""
"dual-task","null","null","null","","arctic","swim","551.6000000014901","","B","null","77","77","1","swim-dual-task","","B","uppercase","538000","0","4","2dce521b165388ea453a5ef88a9d91d5ca9090802003e1507aa6e53ddb0c603a","538004.5","551.6000000014901","77","1","swim","","","","",""
"dual-task","null","null","null","","arctic","swim","767.8999999985099","","a","null","88","88","1","swim-dual-task","","a","lowercase","548000","0","4","2dce521b165388ea453a5ef88a9d91d5ca9090802003e1507aa6e53ddb0c603a","548001.1000000015","767.8999999985099","88","1","swim","","","","",""
"dual-task","null","null","null","","arctic","swim","830.5","","q","null","88","88","1","swim-dual-task","","q","lowercase","560000","0","4","2dce521b165388ea453a5ef88a9d91d5ca9090802003e1507aa6e53ddb0c603a","560013.5","830.5","88","1","swim","","","","",""
"dual-task","null","null","null","","arctic","swim","738.6000000014901","","g","null","88","88","1","swim-dual-task","","g","lowercase","570000","0","4","2dce521b165388ea453a5ef88a9d91d5ca9090802003e1507aa6e53ddb0c603a","570007.200000003","738.6000000014901","88","1","swim","","","","",""
"dual-task","null","null","null","","arctic","swim","516.1000000014901","","T","null","88","77","0","swim-dual-task","","T","uppercase","576000","0","4","2dce521b165388ea453a5ef88a9d91d5ca9090802003e1507aa6e53ddb0c603a","576014.8999999985","516.1000000014901","88","0","swim","","","","",""
"dual-task","null","null","null","","arctic","swim","519.6000000014901","","R","null","77","77","1","swim-dual-task","","R","uppercase","584000","0","4","2dce521b165388ea453a5ef88a9d91d5ca9090802003e1507aa6e53ddb0c603a","584011.1000000015","519.6000000014901","77","1","swim","","","","",""
"dual-task","null","null","null","","arctic","swim","1078.2999999970198","","Q","null","77","77","1","swim-dual-task","","Q","uppercase","596000","0","4","2dce521b165388ea453a5ef88a9d91d5ca9090802003e1507aa6e53ddb0c603a","596014.8000000045","1078.2999999970198","77","1","swim","","","","",""
"dual-task","null","null","null","","arctic","swim","779.2000000029802","","f","null","88","88","1","swim-dual-task","","f","lowercase","608000","0","4","2dce521b165388ea453a5ef88a9d91d5ca9090802003e1507aa6e53ddb0c603a","608014.8999999985","779.2000000029802","88","1","swim","","","","",""
"dual-task","null","null","null","","arctic","swim","589.8999999985099","","q","null","88","88","1","swim-dual-task","","q","lowercase","618000","0","4","2dce521b165388ea453a5ef88a9d91d5ca9090802003e1507aa6e53ddb0c603a","618003.700000003","589.8999999985099","88","1","swim","","","","",""
"dual-task","null","null","null","","arctic","swim","840.7999999970198","","e","null","88","88","1","swim-dual-task","","e","lowercase","626000","0","4","2dce521b165388ea453a5ef88a9d91d5ca9090802003e1507aa6e53ddb0c603a","626015.200000003","840.7999999970198","88","1","swim","","","","",""
"dual-task","null","null","null","","arctic","swim","636.8999999985099","","Q","null","77","77","1","swim-dual-task","","Q","uppercase","638000","0","4","2dce521b165388ea453a5ef88a9d91d5ca9090802003e1507aa6e53ddb0c603a","638006.200000003","636.8999999985099","77","1","swim","","","","",""
"dual-task","null","null","null","","arctic","swim","NA","","r","null","NA","88","0","swim-dual-task","","r","lowercase","644000","1","4","2dce521b165388ea453a5ef88a9d91d5ca9090802003e1507aa6e53ddb0c603a","644003.3000000045","NA","NA","0","swim","","","","",""
"dual-task","null","null","null","","arctic","swim","803.1000000014901","","D","null","77","77","1","swim-dual-task","","D","uppercase","658000","0","4","2dce521b165388ea453a5ef88a9d91d5ca9090802003e1507aa6e53ddb0c603a","658003","803.1000000014901","77","1","swim","","","","",""
"dual-task","null","null","null","","arctic","swim","691.5","","E","null","77","77","1","swim-dual-task","","E","uppercase","668000","0","4","2dce521b165388ea453a5ef88a9d91d5ca9090802003e1507aa6e53ddb0c603a","668014.200000003","691.5","77","1","swim","","","","",""
"dual-task","null","null","null","","arctic","swim","616.1000000014901","","q","null","88","88","1","swim-dual-task","","q","lowercase","678000","0","4","2dce521b165388ea453a5ef88a9d91d5ca9090802003e1507aa6e53ddb0c603a","678002","616.1000000014901","88","1","swim","","","","",""
"dual-task","null","null","null","","arctic","swim","590.8999999985099","","g","null","88","88","1","swim-dual-task","","g","lowercase","686000","0","4","2dce521b165388ea453a5ef88a9d91d5ca9090802003e1507aa6e53ddb0c603a","686002","590.8999999985099","88","1","swim","","","","",""
"dual-task","null","null","null","","arctic","swim","596.6000000014901","","t","null","88","88","1","swim-dual-task","","t","lowercase","698000","0","4","2dce521b165388ea453a5ef88a9d91d5ca9090802003e1507aa6e53ddb0c603a","698008.3999999985","596.6000000014901","88","1","swim","","","","",""
"dual-task","null","null","null","","arctic","swim","689.6000000014901","","N","null","77","77","1","swim-dual-task","","N","uppercase","706000","0","4","2dce521b165388ea453a5ef88a9d91d5ca9090802003e1507aa6e53ddb0c603a","706015.200000003","689.6000000014901","77","1","swim","","","","",""
"dual-task","null","null","null","","arctic","swim","615.2000000029802","","A","null","77","77","1","swim-dual-task","","A","uppercase","714000","0","4","2dce521b165388ea453a5ef88a9d91d5ca9090802003e1507aa6e53ddb0c603a","714014.8000000045","615.2000000029802","77","1","swim","","","","",""
"dual-task","null","null","null","","arctic","swim","1008.8999999985099","","b","null","88","88","1","swim-dual-task","","b","lowercase","728000","0","4","2dce521b165388ea453a5ef88a9d91d5ca9090802003e1507aa6e53ddb0c603a","728010.200000003","1008.8999999985099","88","1","swim","","","","",""
"dual-task","null","null","null","","arctic","swim","641","","g","null","88","88","1","swim-dual-task","","g","lowercase","738000","0","4","2dce521b165388ea453a5ef88a9d91d5ca9090802003e1507aa6e53ddb0c603a","738001.8999999985","641","88","1","swim","","","","",""
"dual-task","null","null","null","","arctic","swim","656","","F","null","77","77","1","swim-dual-task","","F","uppercase","750000","0","4","2dce521b165388ea453a5ef88a9d91d5ca9090802003e1507aa6e53ddb0c603a","750000.1000000015","656","77","1","swim","","","","",""
"dual-task","null","null","null","","arctic","swim","586.5999999940395","","d","null","88","88","1","swim-dual-task","","d","lowercase","758000","0","4","2dce521b165388ea453a5ef88a9d91d5ca9090802003e1507aa6e53ddb0c603a","758006.200000003","586.5999999940395","88","1","swim","","","","",""
"dual-task","null","null","null","","arctic","swim","631.5","","N","null","77","77","1","swim-dual-task","","N","uppercase","764000","0","4","2dce521b165388ea453a5ef88a9d91d5ca9090802003e1507aa6e53ddb0c603a","764010.700000003","631.5","77","1","swim","","","","",""
"dual-task","null","null","null","","arctic","swim","598.5999999940395","","Q","null","77","77","1","swim-dual-task","","Q","uppercase","774000","0","4","2dce521b165388ea453a5ef88a9d91d5ca9090802003e1507aa6e53ddb0c603a","774006.3000000045","598.5999999940395","77","1","swim","","","","",""
"dual-task","null","null","null","","arctic","swim","564.1000000014901","","R","null","77","77","1","swim-dual-task","","R","uppercase","780000","0","4","2dce521b165388ea453a5ef88a9d91d5ca9090802003e1507aa6e53ddb0c603a","780005.1000000015","564.1000000014901","77","1","swim","","","","",""
"dual-task","null","null","null","","arctic","swim","644.6999999955297","","g","null","88","88","1","swim-dual-task","","g","lowercase","786000","0","4","2dce521b165388ea453a5ef88a9d91d5ca9090802003e1507aa6e53ddb0c603a","786010.200000003","644.6999999955297","88","1","swim","","","","",""
"dual-task","null","null","null","","arctic","swim","607.7000000029802","","D","null","77","77","1","swim-dual-task","","D","uppercase","796000","0","4","2dce521b165388ea453a5ef88a9d91d5ca9090802003e1507aa6e53ddb0c603a","796010.3999999985","607.7000000029802","77","1","swim","","","","",""
"audio-keyboard-response","62","1974702","0.0-6.0-2.0-1.0","2dce521b165388ea453a5ef88a9d91d5ca9090802003e1507aa6e53ddb0c603a","arctic","swim","null","","audio/story_swim_scrambled.mp3","","null","","","","","","","","","","","","","","","","","","","",""
"html-button-response","63","1977540","0.0-6.0-2.0-2.0","2dce521b165388ea453a5ef88a9d91d5ca9090802003e1507aa6e53ddb0c603a","arctic","swim","2838","","<p>This concludes the story. Thank you for listening.</p><p>You will now answer some questions about the content of the story.</p>","0","","","","","","","","","","","","","","","","","","","","",""
"survey-multi-choice","64","1980449","0.0-6.0-2.0-3.0-0.0","2dce521b165388ea453a5ef88a9d91d5ca9090802003e1507aa6e53ddb0c603a","arctic","swim","2907","","<b>What is the narrator afraid of, aside from the water?</b>","","","","1","swim-comprehension","","","","","","","","","","","","","{""Q0"":""Heights""}","","","",""
"survey-multi-choice","65","1992288","0.0-6.0-2.0-3.0-0.1","2dce521b165388ea453a5ef88a9d91d5ca9090802003e1507aa6e53ddb0c603a","arctic","swim","11588","","<b>What was the final step of the first swim test in the pool?</b>","","","","1","swim-comprehension","","","","","","","","","","","","","{""Q0"":""Tread water with hands above the water""}","","","",""
"survey-multi-choice","66","1999647","0.0-6.0-2.0-3.0-0.2","2dce521b165388ea453a5ef88a9d91d5ca9090802003e1507aa6e53ddb0c603a","arctic","swim","7096","","<b>What were the astronaut candidates trained to do at the naval air station?</b>","","","","1","swim-comprehension","","","","","","","","","","","","","{""Q0"":""Eject out of aircraft and survive in water long enough to be rescued""}","","","",""
"survey-multi-choice","67","2004843","0.0-6.0-2.0-3.0-0.3","2dce521b165388ea453a5ef88a9d91d5ca9090802003e1507aa6e53ddb0c603a","arctic","swim","4945","","<b>How many astronaut candidates passed the first swim test?</b>","","","","1","swim-comprehension","","","","","","","","","","","","","{""Q0"":""All of them""}","","","",""
"survey-multi-choice","68","2015403","0.0-6.0-2.0-3.0-0.4","2dce521b165388ea453a5ef88a9d91d5ca9090802003e1507aa6e53ddb0c603a","arctic","swim","10306","","<b>How many astronaut candidates reported for duty at the Johnson Space Center?</b>","","","","0","swim-comprehension","","","","","","","","","","","","","{""Q0"":""One hundred""}","","","",""
"survey-multi-choice","69","2028398","0.0-6.0-2.0-3.0-0.5","2dce521b165388ea453a5ef88a9d91d5ca9090802003e1507aa6e53ddb0c603a","arctic","swim","12743","","<b>How did the narrator train for his swim test?</b>","","","","0","swim-comprehension","","","","","","","","","","","","","{""Q0"":""Swam at the lake every day""}","","","",""
"survey-multi-choice","70","2037723","0.0-6.0-2.0-3.0-0.6","2dce521b165388ea453a5ef88a9d91d5ca9090802003e1507aa6e53ddb0c603a","arctic","swim","9072","","<b>How often does the narrator swim, now that he is a good swimmer?</b>","","","","1","swim-comprehension","","","","","","","","","","","","","{""Q0"":""Never swam again in his life""}","","","",""
"survey-multi-choice","71","2041631","0.0-6.0-2.0-3.0-0.7","2dce521b165388ea453a5ef88a9d91d5ca9090802003e1507aa6e53ddb0c603a","arctic","swim","3656","","<b>Where is the home of naval aviation?</b>","","","","1","swim-comprehension","","","","","","","","","","","","","{""Q0"":""Pensacola""}","","","",""
"survey-multi-choice","72","2048328","0.0-6.0-2.0-3.0-0.8","2dce521b165388ea453a5ef88a9d91d5ca9090802003e1507aa6e53ddb0c603a","arctic","swim","6444","","<b>How many times did the astronaut candidates have to complete the final exercise to pass?</b>","","","","0","swim-comprehension","","","","","","","","","","","","","{""Q0"":""One""}","","","",""
"survey-multi-choice","73","2063405","0.0-6.0-2.0-3.0-0.9","2dce521b165388ea453a5ef88a9d91d5ca9090802003e1507aa6e53ddb0c603a","arctic","swim","14825","","<b>What gave the narrator his greatest feeling of accomplishment?</b>","","","","1","swim-comprehension","","","","","","","","","","","","","{""Q0"":""Passing the water survival course""}","","","",""
"html-button-response","74","2065468","0.0-6.0-2.0-4.0","2dce521b165388ea453a5ef88a9d91d5ca9090802003e1507aa6e53ddb0c603a","arctic","swim","1811","","<p>Thank you for your responses.</p><p>You will now answer some questions about your impressions of the story.</p>","0","","","","","","","","","","","","","","","","","","","","",""
"html-button-response","75","2071732","0.0-6.0-2.0-5.0-0.0","2dce521b165388ea453a5ef88a9d91d5ca9090802003e1507aa6e53ddb0c603a","arctic","swim","6264","","A1","1","","","","swim-engagement","","","","","","","","","","","","","","2","absorption","",""
"html-button-response","76","2076793","0.0-6.0-2.0-5.0-0.1","2dce521b165388ea453a5ef88a9d91d5ca9090802003e1507aa6e53ddb0c603a","arctic","swim","4809","","A2","4","","","","swim-engagement","","","","","","","","","","","","","","5","absorption","",""
"html-button-response","77","2081000","0.0-6.0-2.0-5.0-0.2","2dce521b165388ea453a5ef88a9d91d5ca9090802003e1507aa6e53ddb0c603a","arctic","swim","3956","","EE5","1","","","","swim-engagement","","","","","","","","","","","","","","2","emo-engage","",""
"html-button-response","78","2083270","0.0-6.0-2.0-5.0-0.3","2dce521b165388ea453a5ef88a9d91d5ca9090802003e1507aa6e53ddb0c603a","arctic","swim","2019","","A3","1","","","","swim-engagement","","","","","","","","","","","","","","2","absorption","",""
"html-button-response","79","2085930","0.0-6.0-2.0-5.0-0.4","2dce521b165388ea453a5ef88a9d91d5ca9090802003e1507aa6e53ddb0c603a","arctic","swim","2408","","A5","0","","","","swim-engagement","","","","","","","","","","","","","","1","absorption","",""
"html-button-response","80","2089307","0.0-6.0-2.0-5.0-0.5","2dce521b165388ea453a5ef88a9d91d5ca9090802003e1507aa6e53ddb0c603a","arctic","swim","3126","","A4","0","","","","swim-engagement","","","","","","","","","","","","","","1","absorption","",""
"html-button-response","81","2091175","0.0-6.0-2.0-5.0-0.6","2dce521b165388ea453a5ef88a9d91d5ca9090802003e1507aa6e53ddb0c603a","arctic","swim","1617","","E8","0","","","","swim-engagement","","","","","","","","","","","","","","1","enjoyment","",""
"html-button-response","82","2095088","0.0-6.0-2.0-5.0-0.7","2dce521b165388ea453a5ef88a9d91d5ca9090802003e1507aa6e53ddb0c603a","arctic","swim","3660","","MS2","2","","","","swim-engagement","","","","","","","","","","","","","","3","mental-sim","",""
"html-button-response","83","2098616","0.0-6.0-2.0-5.0-0.8","2dce521b165388ea453a5ef88a9d91d5ca9090802003e1507aa6e53ddb0c603a","arctic","swim","3275","","EE2","1","","","","swim-engagement","","","","","","","","","","","","","","2","emo-engage","",""
"html-button-response","84","2102052","0.0-6.0-2.0-5.0-0.9","2dce521b165388ea453a5ef88a9d91d5ca9090802003e1507aa6e53ddb0c603a","arctic","swim","3185","","EE1","1","","","","swim-engagement","","","","","","","","","","","","","","2","emo-engage","",""
"html-button-response","85","2104150","0.0-6.0-2.0-5.0-0.10","2dce521b165388ea453a5ef88a9d91d5ca9090802003e1507aa6e53ddb0c603a","arctic","swim","1846","","EE3","1","","","","swim-engagement","","","","","","","","","","","","","","2","emo-engage","",""
"html-button-response","86","2106124","0.0-6.0-2.0-5.0-0.11","2dce521b165388ea453a5ef88a9d91d5ca9090802003e1507aa6e53ddb0c603a","arctic","swim","1722","","E10","0","","","","swim-engagement","","","","","","","","","","","","","","1","enjoyment","",""
"html-button-response","87","2108599","0.0-6.0-2.0-5.0-0.12","2dce521b165388ea453a5ef88a9d91d5ca9090802003e1507aa6e53ddb0c603a","arctic","swim","2222","","E7","2","","","","swim-engagement","","","","","","","","","","","","","","3","enjoyment","",""
"html-button-response","88","2112273","0.0-6.0-2.0-5.0-0.13","2dce521b165388ea453a5ef88a9d91d5ca9090802003e1507aa6e53ddb0c603a","arctic","swim","3423","","MS1","5","","","","swim-engagement","","","","","","","","","","","","","","6","mental-sim","",""
"html-button-response","89","2114951","0.0-6.0-2.0-5.0-0.14","2dce521b165388ea453a5ef88a9d91d5ca9090802003e1507aa6e53ddb0c603a","arctic","swim","2427","","MS3","3","","","","swim-engagement","","","","","","","","","","","","","","4","mental-sim","",""
"html-button-response","90","2117752","0.0-6.0-2.0-5.0-0.15","2dce521b165388ea453a5ef88a9d91d5ca9090802003e1507aa6e53ddb0c603a","arctic","swim","2549","","EE4","0","","","","swim-engagement","","","","","","","","","","","","","","1","emo-engage","",""
"html-button-response","91","2119066","0.0-6.0-2.0-5.0-0.16","2dce521b165388ea453a5ef88a9d91d5ca9090802003e1507aa6e53ddb0c603a","arctic","swim","1062","","E1","0","","","","swim-engagement","","","","","","","","","","","","","","1","enjoyment","",""
"html-button-response","92","2120186","0.0-6.0-2.0-5.0-0.17","2dce521b165388ea453a5ef88a9d91d5ca9090802003e1507aa6e53ddb0c603a","arctic","swim","869","","E6","0","","","","swim-engagement","","","","","","","","","","","","","","1","enjoyment","",""
"html-button-response","93","2121458","0.0-8.0","2dce521b165388ea453a5ef88a9d91d5ca9090802003e1507aa6e53ddb0c603a","arctic","swim","1021","","<p>Thank you for your responses.</p><p>You will now answer some demographic, hearing, and general health questions.</p>","0","","","","","","","","","","","","","","","","","","","","",""
"survey-multi-choice","94","2124005","0.0-9.0-0.0","2dce521b165388ea453a5ef88a9d91d5ca9090802003e1507aa6e53ddb0c603a","arctic","swim","2544","","","","","","","survey","","","","","","","","","","","","","{""Q0"":""Chrome""}","","","browser",""
"survey-text","95","2126519","0.0-9.0-1.0","2dce521b165388ea453a5ef88a9d91d5ca9090802003e1507aa6e53ddb0c603a","arctic","swim","2260.2999999970198","","","","","","","survey","","","","","","","","","","","","","{""AGE"":""35""}","","","age","35"
"survey-multi-choice","96","2128537","0.0-9.0-2.0","2dce521b165388ea453a5ef88a9d91d5ca9090802003e1507aa6e53ddb0c603a","arctic","swim","1765","","","","","","","survey","","","","","","","","","","","","","{""Q0"":""Male""}","","","gender","Male"
"survey-multi-choice","97","2130209","0.0-9.0-4.0","2dce521b165388ea453a5ef88a9d91d5ca9090802003e1507aa6e53ddb0c603a","arctic","swim","1422","","","","","","","survey","","","","","","","","","","","","","{""Q0"":""Right""}","","","handedness","Right"
"survey-multi-choice","98","2133165","0.0-9.0-5.0","2dce521b165388ea453a5ef88a9d91d5ca9090802003e1507aa6e53ddb0c603a","arctic","swim","2704","","","","","","","survey","","","","","","","","","","","","","{""Q0"":""High school""}","","","education","High school"
"survey-text","99","2137210","0.0-10.0-0.0","2dce521b165388ea453a5ef88a9d91d5ca9090802003e1507aa6e53ddb0c603a","arctic","swim","3792.0999999940395","","","","","","","survey","","","","","","","","","","","","","{""L1"":""English""}","","","first-language","English"
"survey-text","100","2141060","0.0-10.0-1.0","2dce521b165388ea453a5ef88a9d91d5ca9090802003e1507aa6e53ddb0c603a","arctic","swim","3596.5","","","","","","","survey","","","","","","","","","","","","","{""L2name"":"""",""L2fluency"":"""",""L3name"":"""",""L3fluency"":"""",""L4name"":"""",""L4fluency"":""""}","","","additional-languages","{""L2name"":"""",""L2fluency"":"""",""L3name"":"""",""L3fluency"":"""",""L4name"":"""",""L4fluency"":""""}"
"survey-multi-choice","101","2144134","0.0-10.0-2.0","2dce521b165388ea453a5ef88a9d91d5ca9090802003e1507aa6e53ddb0c603a","arctic","swim","2822","","","","","","","survey","","","","","","","","","","","","","{""Q0"":""No""}","","","hearing-aid","No"
"survey-multi-choice","102","2146748","0.0-10.0-3.0","2dce521b165388ea453a5ef88a9d91d5ca9090802003e1507aa6e53ddb0c603a","arctic","swim","2363","","","","","","","survey","","","","","","","","","","","","","{""Q0"":""Never""}","","","ringing-ears","Never"
"survey-multi-choice","103","2148948","0.0-10.0-5.0","2dce521b165388ea453a5ef88a9d91d5ca9090802003e1507aa6e53ddb0c603a","arctic","swim","1948","","","","","","","survey","","","","","","","","","","","","","{""Q0"":""No""}","","","neuro-disease","No"
"survey-multi-choice","104","2152535","0.0-10.0-7.0","2dce521b165388ea453a5ef88a9d91d5ca9090802003e1507aa6e53ddb0c603a","arctic","swim","3335","","","","","","","survey","","","","","","","","","","","","","{""Q0"":""No""}","","","take-meds","No"
"survey-text","105","2157247","0.0-10.0-9.0","2dce521b165388ea453a5ef88a9d91d5ca9090802003e1507aa6e53ddb0c603a","arctic","swim","4457.39999999851","","","","","","","survey","","","","","","","","","","","","","{""HC"":""""}","","","health-concerns",""
"html-button-response","106","2160414","0.0-11.0-0.0","2dce521b165388ea453a5ef88a9d91d5ca9090802003e1507aa6e53ddb0c603a","arctic","swim","2914","","<p>How would you describe your musical skills/experiences?</p>","5","","","","survey","","","","","","","","","","","","","","","","music-skill","6"
"survey-multi-choice","107","2162412","0.0-11.0-1.0","2dce521b165388ea453a5ef88a9d91d5ca9090802003e1507aa6e53ddb0c603a","arctic","swim","1746","","","","","","","survey","","","","","","","","","","","","","{""Q0"":""Yes""}","","","music-instrument","Yes"
"survey-text","108","2165594","0.0-11.0-2.0-0.0","2dce521b165388ea453a5ef88a9d91d5ca9090802003e1507aa6e53ddb0c603a","arctic","swim","2929","","","","","","","survey","","","","","","","","","","","","","{""MEXP"":""4""}","","","music-training-yrs","4"
"html-button-response","109","2167636","0.0-12.0-0.0","2dce521b165388ea453a5ef88a9d91d5ca9090802003e1507aa6e53ddb0c603a","arctic","swim","1790","","<p>How would you describe your general hearing abilities?</p>","5","","","","survey","","","","","","","","","","","","","","","","ssq-01","6"
"html-button-response","110","2174357","0.0-12.0-1.0","2dce521b165388ea453a5ef88a9d91d5ca9090802003e1507aa6e53ddb0c603a","arctic","swim","6470","","<p>When you talk with someone at a place that strongly reverberates/echoes (e.g., in a church or train station),</br>can you understand what the person says?</p>","10","","","","survey","","","","","","","","","","","","","","","","ssq-02","10"
"html-button-response","111","2180456","0.0-12.0-2.0","2dce521b165388ea453a5ef88a9d91d5ca9090802003e1507aa6e53ddb0c603a","arctic","swim","5846","","<p>When you are with a group (~5 people) in a lively restaurant, can you follow the group's conversation?</p>","9","","","","survey","","","","","","","","","","","","","","","","ssq-03","9"
"html-button-response","112","2189705","0.0-12.0-3.0","2dce521b165388ea453a5ef88a9d91d5ca9090802003e1507aa6e53ddb0c603a","arctic","swim","8998","","<p>Based on the sound of a bus or truck, can you tell whether it is moving towards or away from you?</p>","7","","","","survey","","","","","","","","","","","","","","","","ssq-04","7"
"html-button-response","113","2195552","0.0-12.0-4.0","2dce521b165388ea453a5ef88a9d91d5ca9090802003e1507aa6e53ddb0c603a","arctic","swim","5595","","<p>When you are in an unknown environment, can you tell from which direction a brief sound originates?</p>","8","","","","survey","","","","","","","","","","","","","","","","ssq-05","8"
"html-button-response","114","2202159","0.0-12.0-5.0","2dce521b165388ea453a5ef88a9d91d5ca9090802003e1507aa6e53ddb0c603a","arctic","swim","6355","","<p>Are you able to ignore distracting sounds when you concentrate on a specific aspect of your acoustic surrounding?</p>","9","","","","survey","","","","","","","","","","","","","","","","ssq-06","9"
"fullscreen","115","2203411","0.0-13.0","2dce521b165388ea453a5ef88a9d91d5ca9090802003e1507aa6e53ddb0c603a","arctic","swim","","","","","","","","","true","","","","","","","","","","","","","","","",""
