"trial_type","trial_index","time_elapsed","internal_node_id","ParticipantID","firstStory","scramStory","rt","url","stimulus","button_pressed","key_press","correctRESP","correct","designation","success","letterStim","letterType","ONSET","TIMEOUT","CONDITION","Participant","ONSET_ACTUAL","RT","RESP","ACC","STORY","responses","response","type","surveyQuestion","QRESP"
"pavlovia","0","5","0.0-0.0","ddb6b0997c7940e6b58932b3ef6445d2facde761490adef9dfc2ee0c80dedeb7","swim","arctic","","","","","","","","","","","","","","","","","","","","","","","","",""
"external-html","1","3282","0.0-1.0","ddb6b0997c7940e6b58932b3ef6445d2facde761490adef9dfc2ee0c80dedeb7","swim","arctic","2806","consent/consent_updated.html","","","","","","","","","","","","","","","","","","","","","","",""
"html-button-response","2","19370","0.0-2.0-0.0","ddb6b0997c7940e6b58932b3ef6445d2facde761490adef9dfc2ee0c80dedeb7","swim","arctic","16087","","<p>Before we begin the main task, you will complete a short volume calibration and headphone check.</p><p>Please make sure you are in a quiet listening environment, that you are wearing headphones, and that your computer's volume is turned on.<p></p>","0","","","","","","","","","","","","","","","","","","","","",""
"html-button-response","3","22315","0.0-2.0-1.0","ddb6b0997c7940e6b58932b3ef6445d2facde761490adef9dfc2ee0c80dedeb7","swim","arctic","2692","","<p>The volume calibration will be first.</p><p>You will hear a thirty-second noise. Please adjust your computer's volume so that this noise is being presented at a comfortable level.<p></p>","0","","","","","","","","","","","","","","","","","","","","",""
"audio-button-response","4","29910","0.0-2.0-2.0","ddb6b0997c7940e6b58932b3ef6445d2facde761490adef9dfc2ee0c80dedeb7","swim","arctic","7331","","audio/volumetest.mp3","0","","","","","","","","","","","","","","","","","","","","",""
"html-keyboard-response","5","56496","0.0-3.0-0.0","ddb6b0997c7940e6b58932b3ef6445d2facde761490adef9dfc2ee0c80dedeb7","swim","arctic","26584","","<p>You will now complete a short headphone check.</p><p>On each trial, you will hear three tones. One of these tones will be quieter than the others. Your task is to identify whether the quiet tone occurred first, second, or third.</p><p>There are six trials in total.<p></p><p></p>(Press SPACEBAR to begin)","","32","","","","","","","","","","","","","","","","","","","",""
"html-keyboard-response","6","57261","0.0-3.0-1.0-0.0","ddb6b0997c7940e6b58932b3ef6445d2facde761490adef9dfc2ee0c80dedeb7","swim","arctic","null","","<div style=""font-size:60px;"">+</div>","","null","","","","","","","","","","","","","","","","","","","",""
"audio-button-response","7","61672","0.0-3.0-1.0-1.0","ddb6b0997c7940e6b58932b3ef6445d2facde761490adef9dfc2ee0c80dedeb7","swim","arctic","4410","","audio/t1_1.mp3","0","","0","1","headphone-test","","","","","","","","","","","","","","","","",""
"html-keyboard-response","8","62174","0.0-3.0-1.0-2.0","ddb6b0997c7940e6b58932b3ef6445d2facde761490adef9dfc2ee0c80dedeb7","swim","arctic","null","","<p>Correct</p>","","null","","","","","","","","","","","","","","","","","","","",""
"html-keyboard-response","9","62681","0.0-3.0-1.0-0.1","ddb6b0997c7940e6b58932b3ef6445d2facde761490adef9dfc2ee0c80dedeb7","swim","arctic","null","","<div style=""font-size:60px;"">+</div>","","null","","","","","","","","","","","","","","","","","","","",""
"audio-button-response","10","66683","0.0-3.0-1.0-1.1","ddb6b0997c7940e6b58932b3ef6445d2facde761490adef9dfc2ee0c80dedeb7","swim","arctic","4000","","audio/t2_1.mp3","1","","1","1","headphone-test","","","","","","","","","","","","","","","","",""
"html-keyboard-response","11","67189","0.0-3.0-1.0-2.1","ddb6b0997c7940e6b58932b3ef6445d2facde761490adef9dfc2ee0c80dedeb7","swim","arctic","null","","<p>Correct</p>","","null","","","","","","","","","","","","","","","","","","","",""
"html-keyboard-response","12","67694","0.0-3.0-1.0-0.2","ddb6b0997c7940e6b58932b3ef6445d2facde761490adef9dfc2ee0c80dedeb7","swim","arctic","null","","<div style=""font-size:60px;"">+</div>","","null","","","","","","","","","","","","","","","","","","","",""
"audio-button-response","13","71251","0.0-3.0-1.0-1.2","ddb6b0997c7940e6b58932b3ef6445d2facde761490adef9dfc2ee0c80dedeb7","swim","arctic","3556","","audio/t3_1.mp3","2","","2","1","headphone-test","","","","","","","","","","","","","","","","",""
"html-keyboard-response","14","71766","0.0-3.0-1.0-2.2","ddb6b0997c7940e6b58932b3ef6445d2facde761490adef9dfc2ee0c80dedeb7","swim","arctic","null","","<p>Correct</p>","","null","","","","","","","","","","","","","","","","","","","",""
"html-keyboard-response","15","72267","0.0-3.0-1.0-0.3","ddb6b0997c7940e6b58932b3ef6445d2facde761490adef9dfc2ee0c80dedeb7","swim","arctic","null","","<div style=""font-size:60px;"">+</div>","","null","","","","","","","","","","","","","","","","","","","",""
"audio-button-response","16","76420","0.0-3.0-1.0-1.3","ddb6b0997c7940e6b58932b3ef6445d2facde761490adef9dfc2ee0c80dedeb7","swim","arctic","4152","","audio/t3_2.mp3","2","","2","1","headphone-test","","","","","","","","","","","","","","","","",""
"html-keyboard-response","17","76923","0.0-3.0-1.0-2.3","ddb6b0997c7940e6b58932b3ef6445d2facde761490adef9dfc2ee0c80dedeb7","swim","arctic","null","","<p>Correct</p>","","null","","","","","","","","","","","","","","","","","","","",""
"html-keyboard-response","18","77423","0.0-3.0-1.0-0.4","ddb6b0997c7940e6b58932b3ef6445d2facde761490adef9dfc2ee0c80dedeb7","swim","arctic","null","","<div style=""font-size:60px;"">+</div>","","null","","","","","","","","","","","","","","","","","","","",""
"audio-button-response","19","81026","0.0-3.0-1.0-1.4","ddb6b0997c7940e6b58932b3ef6445d2facde761490adef9dfc2ee0c80dedeb7","swim","arctic","3603","","audio/t2_2.mp3","1","","1","1","headphone-test","","","","","","","","","","","","","","","","",""
"html-keyboard-response","20","81533","0.0-3.0-1.0-2.4","ddb6b0997c7940e6b58932b3ef6445d2facde761490adef9dfc2ee0c80dedeb7","swim","arctic","null","","<p>Correct</p>","","null","","","","","","","","","","","","","","","","","","","",""
"html-keyboard-response","21","82039","0.0-3.0-1.0-0.5","ddb6b0997c7940e6b58932b3ef6445d2facde761490adef9dfc2ee0c80dedeb7","swim","arctic","null","","<div style=""font-size:60px;"">+</div>","","null","","","","","","","","","","","","","","","","","","","",""
"audio-button-response","22","85667","0.0-3.0-1.0-1.5","ddb6b0997c7940e6b58932b3ef6445d2facde761490adef9dfc2ee0c80dedeb7","swim","arctic","3627","","audio/t1_2.mp3","0","","0","1","headphone-test","","","","","","","","","","","","","","","","",""
"html-keyboard-response","23","86168","0.0-3.0-1.0-2.5","ddb6b0997c7940e6b58932b3ef6445d2facde761490adef9dfc2ee0c80dedeb7","swim","arctic","null","","<p>Correct</p>","","null","","","","","","","","","","","","","","","","","","","",""
"fullscreen","24","88896","0.0-4.0","ddb6b0997c7940e6b58932b3ef6445d2facde761490adef9dfc2ee0c80dedeb7","swim","arctic","","","","","","","","","true","","","","","","","","","","","","","","","",""
"html-button-response","25","96610","0.0-5.0-0.0","ddb6b0997c7940e6b58932b3ef6445d2facde761490adef9dfc2ee0c80dedeb7","swim","arctic","7713","","<p>There are two blocks to this experiment.</p><p>In each block, you will hear a ~13.5 minute story. One of the stories will be scrambled. Please listen carefully to both stories and understand them as best you can.</p><p>After each story, you will be asked some questions to assess your comprehension.</p>","0","","","","","","","","","","","","","","","","","","","","",""
"html-button-response","26","108423","0.0-5.0-1.0","ddb6b0997c7940e6b58932b3ef6445d2facde761490adef9dfc2ee0c80dedeb7","swim","arctic","11813","","<p>During each story, there will be an additional task.</p><p>A letter will occasionally appear on the screen.</br>Your job is to - as quickly as you can - decide whether the letter is lowercase or uppercase and press one of two keys on the keyboard:</p><p>If the letter is <b>lowercase</b>, press key &lt;<b>x</b>&gt;.</p><p>If the letter is <b>uppercase</b>, press key &lt;<b>m</b>&gt;.</p>","0","","","","","","","","","","","","","","","","","","","","",""
"html-keyboard-response","27","114912","0.0-5.0-2.0","ddb6b0997c7940e6b58932b3ef6445d2facde761490adef9dfc2ee0c80dedeb7","swim","arctic","6489","","<p>Because we want your responses to be as quick as possible, please keep your index fingers over the keys while listening.</p><p>Each block lasts about 20 minutes.</p><p><b>Press &lt;x&gt; or &lt;m&gt; to start the first block!</b></p>","","88","","","","","","","","","","","","","","","","","","","",""
"html-keyboard-response","28","115424","0.0-7.0-0.0-0.0","ddb6b0997c7940e6b58932b3ef6445d2facde761490adef9dfc2ee0c80dedeb7","swim","arctic","null","","<div style=""font-size:60px;"" tabindex=""0"">+</div>","","null","","","","","","","","","","","","","","","","","","","",""
"dual-task","null","null","null","","swim","arctic","589","","a","null","88","88","1","swim-dual-task","","a","lowercase","16000","0","5","ddb6b0997c7940e6b58932b3ef6445d2facde761490adef9dfc2ee0c80dedeb7","16005","589","88","1","swim","","","","",""
"dual-task","null","null","null","","swim","arctic","530","","f","null","88","88","1","swim-dual-task","","f","lowercase","26000","0","5","ddb6b0997c7940e6b58932b3ef6445d2facde761490adef9dfc2ee0c80dedeb7","26000","530","88","1","swim","","","","",""
"dual-task","null","null","null","","swim","arctic","530","","G","null","77","77","1","swim-dual-task","","G","uppercase","38000","0","5","ddb6b0997c7940e6b58932b3ef6445d2facde761490adef9dfc2ee0c80dedeb7","38012","530","77","1","swim","","","","",""
"dual-task","null","null","null","","swim","arctic","1072","","D","null","77","77","1","swim-dual-task","","D","uppercase","48000","0","5","ddb6b0997c7940e6b58932b3ef6445d2facde761490adef9dfc2ee0c80dedeb7","48002","1072","77","1","swim","","","","",""
"dual-task","null","null","null","","swim","arctic","609","","t","null","88","88","1","swim-dual-task","","t","lowercase","54000","0","5","ddb6b0997c7940e6b58932b3ef6445d2facde761490adef9dfc2ee0c80dedeb7","54005","609","88","1","swim","","","","",""
"dual-task","null","null","null","","swim","arctic","515","","G","null","77","77","1","swim-dual-task","","G","uppercase","64000","0","5","ddb6b0997c7940e6b58932b3ef6445d2facde761490adef9dfc2ee0c80dedeb7","64007","515","77","1","swim","","","","",""
"dual-task","null","null","null","","swim","arctic","554","","q","null","88","88","1","swim-dual-task","","q","lowercase","74000","0","5","ddb6b0997c7940e6b58932b3ef6445d2facde761490adef9dfc2ee0c80dedeb7","74004","554","88","1","swim","","","","",""
"dual-task","null","null","null","","swim","arctic","562","","e","null","88","88","1","swim-dual-task","","e","lowercase","80000","0","5","ddb6b0997c7940e6b58932b3ef6445d2facde761490adef9dfc2ee0c80dedeb7","80004","562","88","1","swim","","","","",""
"dual-task","null","null","null","","swim","arctic","494","","Q","null","77","77","1","swim-dual-task","","Q","uppercase","92000","0","5","ddb6b0997c7940e6b58932b3ef6445d2facde761490adef9dfc2ee0c80dedeb7","92004","494","77","1","swim","","","","",""
"dual-task","null","null","null","","swim","arctic","606","","Q","null","77","77","1","swim-dual-task","","Q","uppercase","104000","0","5","ddb6b0997c7940e6b58932b3ef6445d2facde761490adef9dfc2ee0c80dedeb7","104013","606","77","1","swim","","","","",""
"dual-task","null","null","null","","swim","arctic","660","","t","null","88","88","1","swim-dual-task","","t","lowercase","112000","0","5","ddb6b0997c7940e6b58932b3ef6445d2facde761490adef9dfc2ee0c80dedeb7","112006","660","88","1","swim","","","","",""
"dual-task","null","null","null","","swim","arctic","569","","N","null","77","77","1","swim-dual-task","","N","uppercase","126000","0","5","ddb6b0997c7940e6b58932b3ef6445d2facde761490adef9dfc2ee0c80dedeb7","126001","569","77","1","swim","","","","",""
"dual-task","null","null","null","","swim","arctic","549","","b","null","88","88","1","swim-dual-task","","b","lowercase","138000","0","5","ddb6b0997c7940e6b58932b3ef6445d2facde761490adef9dfc2ee0c80dedeb7","138005","549","88","1","swim","","","","",""
"dual-task","null","null","null","","swim","arctic","510","","B","null","77","77","1","swim-dual-task","","B","uppercase","144000","0","5","ddb6b0997c7940e6b58932b3ef6445d2facde761490adef9dfc2ee0c80dedeb7","144001","510","77","1","swim","","","","",""
"dual-task","null","null","null","","swim","arctic","494","","T","null","77","77","1","swim-dual-task","","T","uppercase","156000","0","5","ddb6b0997c7940e6b58932b3ef6445d2facde761490adef9dfc2ee0c80dedeb7","156000","494","77","1","swim","","","","",""
"dual-task","null","null","null","","swim","arctic","515","","A","null","77","77","1","swim-dual-task","","A","uppercase","168000","0","5","ddb6b0997c7940e6b58932b3ef6445d2facde761490adef9dfc2ee0c80dedeb7","168011","515","77","1","swim","","","","",""
"dual-task","null","null","null","","swim","arctic","496","","D","null","77","77","1","swim-dual-task","","D","uppercase","178000","0","5","ddb6b0997c7940e6b58932b3ef6445d2facde761490adef9dfc2ee0c80dedeb7","178002","496","77","1","swim","","","","",""
"dual-task","null","null","null","","swim","arctic","508","","a","null","88","88","1","swim-dual-task","","a","lowercase","186000","0","5","ddb6b0997c7940e6b58932b3ef6445d2facde761490adef9dfc2ee0c80dedeb7","186011","508","88","1","swim","","","","",""
"dual-task","null","null","null","","swim","arctic","549","","n","null","88","88","1","swim-dual-task","","n","lowercase","194000","0","5","ddb6b0997c7940e6b58932b3ef6445d2facde761490adef9dfc2ee0c80dedeb7","194005","549","88","1","swim","","","","",""
"dual-task","null","null","null","","swim","arctic","443","","a","null","88","88","1","swim-dual-task","","a","lowercase","204000","0","5","ddb6b0997c7940e6b58932b3ef6445d2facde761490adef9dfc2ee0c80dedeb7","204012","443","88","1","swim","","","","",""
"dual-task","null","null","null","","swim","arctic","571","","G","null","77","77","1","swim-dual-task","","G","uppercase","212000","0","5","ddb6b0997c7940e6b58932b3ef6445d2facde761490adef9dfc2ee0c80dedeb7","212012","571","77","1","swim","","","","",""
"dual-task","null","null","null","","swim","arctic","722","","h","null","88","88","1","swim-dual-task","","h","lowercase","224000","0","5","ddb6b0997c7940e6b58932b3ef6445d2facde761490adef9dfc2ee0c80dedeb7","224013","722","88","1","swim","","","","",""
"dual-task","null","null","null","","swim","arctic","529","","B","null","77","77","1","swim-dual-task","","B","uppercase","236000","0","5","ddb6b0997c7940e6b58932b3ef6445d2facde761490adef9dfc2ee0c80dedeb7","236009","529","77","1","swim","","","","",""
"dual-task","null","null","null","","swim","arctic","564","","h","null","88","88","1","swim-dual-task","","h","lowercase","248000","0","5","ddb6b0997c7940e6b58932b3ef6445d2facde761490adef9dfc2ee0c80dedeb7","248006","564","88","1","swim","","","","",""
"dual-task","null","null","null","","swim","arctic","486","","n","null","88","88","1","swim-dual-task","","n","lowercase","254000","0","5","ddb6b0997c7940e6b58932b3ef6445d2facde761490adef9dfc2ee0c80dedeb7","254001","486","88","1","swim","","","","",""
"dual-task","null","null","null","","swim","arctic","675","","e","null","88","88","1","swim-dual-task","","e","lowercase","266000","0","5","ddb6b0997c7940e6b58932b3ef6445d2facde761490adef9dfc2ee0c80dedeb7","266007","675","88","1","swim","","","","",""
"dual-task","null","null","null","","swim","arctic","615","","R","null","77","77","1","swim-dual-task","","R","uppercase","276000","0","5","ddb6b0997c7940e6b58932b3ef6445d2facde761490adef9dfc2ee0c80dedeb7","276003","615","77","1","swim","","","","",""
"dual-task","null","null","null","","swim","arctic","557","","d","null","88","88","1","swim-dual-task","","d","lowercase","290000","0","5","ddb6b0997c7940e6b58932b3ef6445d2facde761490adef9dfc2ee0c80dedeb7","290010","557","88","1","swim","","","","",""
"dual-task","null","null","null","","swim","arctic","488","","A","null","77","77","1","swim-dual-task","","A","uppercase","298000","0","5","ddb6b0997c7940e6b58932b3ef6445d2facde761490adef9dfc2ee0c80dedeb7","298003","488","77","1","swim","","","","",""
"dual-task","null","null","null","","swim","arctic","459","","b","null","88","88","1","swim-dual-task","","b","lowercase","308000","0","5","ddb6b0997c7940e6b58932b3ef6445d2facde761490adef9dfc2ee0c80dedeb7","308007","459","88","1","swim","","","","",""
"dual-task","null","null","null","","swim","arctic","590","","r","null","88","88","1","swim-dual-task","","r","lowercase","320000","0","5","ddb6b0997c7940e6b58932b3ef6445d2facde761490adef9dfc2ee0c80dedeb7","320008","590","88","1","swim","","","","",""
"dual-task","null","null","null","","swim","arctic","387","","B","null","77","77","1","swim-dual-task","","B","uppercase","332000","0","5","ddb6b0997c7940e6b58932b3ef6445d2facde761490adef9dfc2ee0c80dedeb7","332008","387","77","1","swim","","","","",""
"dual-task","null","null","null","","swim","arctic","595","","b","null","88","88","1","swim-dual-task","","b","lowercase","342000","0","5","ddb6b0997c7940e6b58932b3ef6445d2facde761490adef9dfc2ee0c80dedeb7","342012","595","88","1","swim","","","","",""
"dual-task","null","null","null","","swim","arctic","489","","a","null","88","88","1","swim-dual-task","","a","lowercase","354000","0","5","ddb6b0997c7940e6b58932b3ef6445d2facde761490adef9dfc2ee0c80dedeb7","354002","489","88","1","swim","","","","",""
"dual-task","null","null","null","","swim","arctic","561","","f","null","88","88","1","swim-dual-task","","f","lowercase","362000","0","5","ddb6b0997c7940e6b58932b3ef6445d2facde761490adef9dfc2ee0c80dedeb7","362014","561","88","1","swim","","","","",""
"dual-task","null","null","null","","swim","arctic","483","","q","null","88","88","1","swim-dual-task","","q","lowercase","370000","0","5","ddb6b0997c7940e6b58932b3ef6445d2facde761490adef9dfc2ee0c80dedeb7","370000","483","88","1","swim","","","","",""
"dual-task","null","null","null","","swim","arctic","516","","H","null","77","77","1","swim-dual-task","","H","uppercase","380000","0","5","ddb6b0997c7940e6b58932b3ef6445d2facde761490adef9dfc2ee0c80dedeb7","380003","516","77","1","swim","","","","",""
"dual-task","null","null","null","","swim","arctic","437","","b","null","88","88","1","swim-dual-task","","b","lowercase","388000","0","5","ddb6b0997c7940e6b58932b3ef6445d2facde761490adef9dfc2ee0c80dedeb7","388014","437","88","1","swim","","","","",""
"dual-task","null","null","null","","swim","arctic","571","","A","null","77","77","1","swim-dual-task","","A","uppercase","402000","0","5","ddb6b0997c7940e6b58932b3ef6445d2facde761490adef9dfc2ee0c80dedeb7","402012","571","77","1","swim","","","","",""
"dual-task","null","null","null","","swim","arctic","461","","r","null","88","88","1","swim-dual-task","","r","lowercase","412000","0","5","ddb6b0997c7940e6b58932b3ef6445d2facde761490adef9dfc2ee0c80dedeb7","412002","461","88","1","swim","","","","",""
"dual-task","null","null","null","","swim","arctic","575","","n","null","88","88","1","swim-dual-task","","n","lowercase","422000","0","5","ddb6b0997c7940e6b58932b3ef6445d2facde761490adef9dfc2ee0c80dedeb7","422004","575","88","1","swim","","","","",""
"dual-task","null","null","null","","swim","arctic","510","","N","null","77","77","1","swim-dual-task","","N","uppercase","432000","0","5","ddb6b0997c7940e6b58932b3ef6445d2facde761490adef9dfc2ee0c80dedeb7","432000","510","77","1","swim","","","","",""
"dual-task","null","null","null","","swim","arctic","619","","n","null","88","88","1","swim-dual-task","","n","lowercase","444000","0","5","ddb6b0997c7940e6b58932b3ef6445d2facde761490adef9dfc2ee0c80dedeb7","444004","619","88","1","swim","","","","",""
"dual-task","null","null","null","","swim","arctic","471","","H","null","77","77","1","swim-dual-task","","H","uppercase","450000","0","5","ddb6b0997c7940e6b58932b3ef6445d2facde761490adef9dfc2ee0c80dedeb7","450000","471","77","1","swim","","","","",""
"dual-task","null","null","null","","swim","arctic","555","","D","null","77","77","1","swim-dual-task","","D","uppercase","464000","0","5","ddb6b0997c7940e6b58932b3ef6445d2facde761490adef9dfc2ee0c80dedeb7","464004","555","77","1","swim","","","","",""
"dual-task","null","null","null","","swim","arctic","499","","D","null","77","77","1","swim-dual-task","","D","uppercase","470000","0","5","ddb6b0997c7940e6b58932b3ef6445d2facde761490adef9dfc2ee0c80dedeb7","470012","499","77","1","swim","","","","",""
"dual-task","null","null","null","","swim","arctic","785","","F","null","77","77","1","swim-dual-task","","F","uppercase","482000","0","5","ddb6b0997c7940e6b58932b3ef6445d2facde761490adef9dfc2ee0c80dedeb7","482002","785","77","1","swim","","","","",""
"dual-task","null","null","null","","swim","arctic","491","","H","null","77","77","1","swim-dual-task","","H","uppercase","490000","0","5","ddb6b0997c7940e6b58932b3ef6445d2facde761490adef9dfc2ee0c80dedeb7","490012","491","77","1","swim","","","","",""
"dual-task","null","null","null","","swim","arctic","620","","T","null","77","77","1","swim-dual-task","","T","uppercase","500000","0","5","ddb6b0997c7940e6b58932b3ef6445d2facde761490adef9dfc2ee0c80dedeb7","500000","620","77","1","swim","","","","",""
"dual-task","null","null","null","","swim","arctic","582","","e","null","88","88","1","swim-dual-task","","e","lowercase","506000","0","5","ddb6b0997c7940e6b58932b3ef6445d2facde761490adef9dfc2ee0c80dedeb7","506001","582","88","1","swim","","","","",""
"dual-task","null","null","null","","swim","arctic","966","","Q","null","77","77","1","swim-dual-task","","Q","uppercase","516000","0","5","ddb6b0997c7940e6b58932b3ef6445d2facde761490adef9dfc2ee0c80dedeb7","516009","966","77","1","swim","","","","",""
"dual-task","null","null","null","","swim","arctic","677","","q","null","88","88","1","swim-dual-task","","q","lowercase","530000","0","5","ddb6b0997c7940e6b58932b3ef6445d2facde761490adef9dfc2ee0c80dedeb7","530010","677","88","1","swim","","","","",""
"dual-task","null","null","null","","swim","arctic","507","","G","null","77","77","1","swim-dual-task","","G","uppercase","542000","0","5","ddb6b0997c7940e6b58932b3ef6445d2facde761490adef9dfc2ee0c80dedeb7","542004","507","77","1","swim","","","","",""
"dual-task","null","null","null","","swim","arctic","544","","q","null","88","88","1","swim-dual-task","","q","lowercase","552000","0","5","ddb6b0997c7940e6b58932b3ef6445d2facde761490adef9dfc2ee0c80dedeb7","552011","544","88","1","swim","","","","",""
"dual-task","null","null","null","","swim","arctic","600","","d","null","88","88","1","swim-dual-task","","d","lowercase","564000","0","5","ddb6b0997c7940e6b58932b3ef6445d2facde761490adef9dfc2ee0c80dedeb7","564012","600","88","1","swim","","","","",""
"dual-task","null","null","null","","swim","arctic","547","","A","null","77","77","1","swim-dual-task","","A","uppercase","572000","0","5","ddb6b0997c7940e6b58932b3ef6445d2facde761490adef9dfc2ee0c80dedeb7","572009","547","77","1","swim","","","","",""
"dual-task","null","null","null","","swim","arctic","490","","d","null","88","88","1","swim-dual-task","","d","lowercase","586000","0","5","ddb6b0997c7940e6b58932b3ef6445d2facde761490adef9dfc2ee0c80dedeb7","586009","490","88","1","swim","","","","",""
"dual-task","null","null","null","","swim","arctic","925","","H","null","77","77","1","swim-dual-task","","H","uppercase","598000","0","5","ddb6b0997c7940e6b58932b3ef6445d2facde761490adef9dfc2ee0c80dedeb7","598006","925","77","1","swim","","","","",""
"dual-task","null","null","null","","swim","arctic","694","","F","null","77","77","1","swim-dual-task","","F","uppercase","610000","0","5","ddb6b0997c7940e6b58932b3ef6445d2facde761490adef9dfc2ee0c80dedeb7","610006","694","77","1","swim","","","","",""
"dual-task","null","null","null","","swim","arctic","785","","t","null","88","88","1","swim-dual-task","","t","lowercase","616000","0","5","ddb6b0997c7940e6b58932b3ef6445d2facde761490adef9dfc2ee0c80dedeb7","615999","785","88","1","swim","","","","",""
"dual-task","null","null","null","","swim","arctic","497","","B","null","77","77","1","swim-dual-task","","B","uppercase","630000","0","5","ddb6b0997c7940e6b58932b3ef6445d2facde761490adef9dfc2ee0c80dedeb7","630006","497","77","1","swim","","","","",""
"dual-task","null","null","null","","swim","arctic","603","","E","null","77","77","1","swim-dual-task","","E","uppercase","642000","0","5","ddb6b0997c7940e6b58932b3ef6445d2facde761490adef9dfc2ee0c80dedeb7","642009","603","77","1","swim","","","","",""
"dual-task","null","null","null","","swim","arctic","539","","R","null","77","77","1","swim-dual-task","","R","uppercase","650000","0","5","ddb6b0997c7940e6b58932b3ef6445d2facde761490adef9dfc2ee0c80dedeb7","650012","539","77","1","swim","","","","",""
"dual-task","null","null","null","","swim","arctic","609","","N","null","77","77","1","swim-dual-task","","N","uppercase","658000","0","5","ddb6b0997c7940e6b58932b3ef6445d2facde761490adef9dfc2ee0c80dedeb7","658007","609","77","1","swim","","","","",""
"dual-task","null","null","null","","swim","arctic","566","","g","null","88","88","1","swim-dual-task","","g","lowercase","666000","0","5","ddb6b0997c7940e6b58932b3ef6445d2facde761490adef9dfc2ee0c80dedeb7","666009","566","88","1","swim","","","","",""
"dual-task","null","null","null","","swim","arctic","631","","t","null","88","88","1","swim-dual-task","","t","lowercase","674000","0","5","ddb6b0997c7940e6b58932b3ef6445d2facde761490adef9dfc2ee0c80dedeb7","674001","631","88","1","swim","","","","",""
"dual-task","null","null","null","","swim","arctic","481","","E","null","77","77","1","swim-dual-task","","E","uppercase","684000","0","5","ddb6b0997c7940e6b58932b3ef6445d2facde761490adef9dfc2ee0c80dedeb7","683999","481","77","1","swim","","","","",""
"dual-task","null","null","null","","swim","arctic","578","","e","null","88","88","1","swim-dual-task","","e","lowercase","696000","0","5","ddb6b0997c7940e6b58932b3ef6445d2facde761490adef9dfc2ee0c80dedeb7","696002","578","88","1","swim","","","","",""
"dual-task","null","null","null","","swim","arctic","528","","d","null","88","88","1","swim-dual-task","","d","lowercase","702000","0","5","ddb6b0997c7940e6b58932b3ef6445d2facde761490adef9dfc2ee0c80dedeb7","702007","528","88","1","swim","","","","",""
"dual-task","null","null","null","","swim","arctic","563","","F","null","77","77","1","swim-dual-task","","F","uppercase","716000","0","5","ddb6b0997c7940e6b58932b3ef6445d2facde761490adef9dfc2ee0c80dedeb7","716005","563","77","1","swim","","","","",""
"dual-task","null","null","null","","swim","arctic","511","","R","null","77","77","1","swim-dual-task","","R","uppercase","726000","0","5","ddb6b0997c7940e6b58932b3ef6445d2facde761490adef9dfc2ee0c80dedeb7","726000","511","77","1","swim","","","","",""
"dual-task","null","null","null","","swim","arctic","549","","Q","null","77","77","1","swim-dual-task","","Q","uppercase","732000","0","5","ddb6b0997c7940e6b58932b3ef6445d2facde761490adef9dfc2ee0c80dedeb7","732011","549","77","1","swim","","","","",""
"dual-task","null","null","null","","swim","arctic","506","","F","null","77","77","1","swim-dual-task","","F","uppercase","740000","0","5","ddb6b0997c7940e6b58932b3ef6445d2facde761490adef9dfc2ee0c80dedeb7","740005","506","77","1","swim","","","","",""
"dual-task","null","null","null","","swim","arctic","600","","f","null","88","88","1","swim-dual-task","","f","lowercase","752000","0","5","ddb6b0997c7940e6b58932b3ef6445d2facde761490adef9dfc2ee0c80dedeb7","752004","600","88","1","swim","","","","",""
"dual-task","null","null","null","","swim","arctic","599","","g","null","88","88","1","swim-dual-task","","g","lowercase","764000","0","5","ddb6b0997c7940e6b58932b3ef6445d2facde761490adef9dfc2ee0c80dedeb7","764005","599","88","1","swim","","","","",""
"dual-task","null","null","null","","swim","arctic","550","","h","null","88","88","1","swim-dual-task","","h","lowercase","776000","0","5","ddb6b0997c7940e6b58932b3ef6445d2facde761490adef9dfc2ee0c80dedeb7","776013","550","88","1","swim","","","","",""
"dual-task","null","null","null","","swim","arctic","488","","T","null","77","77","1","swim-dual-task","","T","uppercase","786000","0","5","ddb6b0997c7940e6b58932b3ef6445d2facde761490adef9dfc2ee0c80dedeb7","786004","488","77","1","swim","","","","",""
"dual-task","null","null","null","","swim","arctic","563","","E","null","77","77","1","swim-dual-task","","E","uppercase","798000","0","5","ddb6b0997c7940e6b58932b3ef6445d2facde761490adef9dfc2ee0c80dedeb7","798001","563","77","1","swim","","","","",""
"audio-keyboard-response","29","925476","0.0-7.0-0.0-1.0","ddb6b0997c7940e6b58932b3ef6445d2facde761490adef9dfc2ee0c80dedeb7","swim","arctic","null","","audio/story_swim.mp3","","null","","","","","","","","","","","","","","","","","","","",""
"html-button-response","30","928456","0.0-7.0-0.0-2.0","ddb6b0997c7940e6b58932b3ef6445d2facde761490adef9dfc2ee0c80dedeb7","swim","arctic","2980","","<p>This concludes the story. Thank you for listening.</p><p>You will now answer some questions about the content of the story.</p>","0","","","","","","","","","","","","","","","","","","","","",""
"survey-multi-choice","31","936081","0.0-7.0-0.0-3.0-0.0","ddb6b0997c7940e6b58932b3ef6445d2facde761490adef9dfc2ee0c80dedeb7","swim","arctic","7623","","<b>What was the final step of the first swim test in the pool?</b>","","","","0","swim-comprehension","","","","","","","","","","","","","{""Q0"":""Perform a water rescue""}","","","",""
"survey-multi-choice","32","939752","0.0-7.0-0.0-3.0-0.1","ddb6b0997c7940e6b58932b3ef6445d2facde761490adef9dfc2ee0c80dedeb7","swim","arctic","3415","","<b>How many times did the astronaut candidates have to complete the final exercise to pass?</b>","","","","1","swim-comprehension","","","","","","","","","","","","","{""Q0"":""Two""}","","","",""
"survey-multi-choice","33","945634","0.0-7.0-0.0-3.0-0.2","ddb6b0997c7940e6b58932b3ef6445d2facde761490adef9dfc2ee0c80dedeb7","swim","arctic","5618","","<b>Where is the home of naval aviation?</b>","","","","1","swim-comprehension","","","","","","","","","","","","","{""Q0"":""Pensacola""}","","","",""
"survey-multi-choice","34","954615","0.0-7.0-0.0-3.0-0.3","ddb6b0997c7940e6b58932b3ef6445d2facde761490adef9dfc2ee0c80dedeb7","swim","arctic","8722","","<b>What were the astronaut candidates trained to do at the naval air station?</b>","","","","1","swim-comprehension","","","","","","","","","","","","","{""Q0"":""Eject out of aircraft and survive in water long enough to be rescued""}","","","",""
"survey-multi-choice","35","962042","0.0-7.0-0.0-3.0-0.4","ddb6b0997c7940e6b58932b3ef6445d2facde761490adef9dfc2ee0c80dedeb7","swim","arctic","7169","","<b>What gave the narrator his greatest feeling of accomplishment?</b>","","","","1","swim-comprehension","","","","","","","","","","","","","{""Q0"":""Passing the water survival course""}","","","",""
"survey-multi-choice","36","971223","0.0-7.0-0.0-3.0-0.5","ddb6b0997c7940e6b58932b3ef6445d2facde761490adef9dfc2ee0c80dedeb7","swim","arctic","8919","","<b>How many astronaut candidates reported for duty at the Johnson Space Center?</b>","","","","1","swim-comprehension","","","","","","","","","","","","","{""Q0"":""Forty-four""}","","","",""
"survey-multi-choice","37","976193","0.0-7.0-0.0-3.0-0.6","ddb6b0997c7940e6b58932b3ef6445d2facde761490adef9dfc2ee0c80dedeb7","swim","arctic","4717","","<b>How often does the narrator swim, now that he is a good swimmer?</b>","","","","1","swim-comprehension","","","","","","","","","","","","","{""Q0"":""Never swam again in his life""}","","","",""
"survey-multi-choice","38","981218","0.0-7.0-0.0-3.0-0.7","ddb6b0997c7940e6b58932b3ef6445d2facde761490adef9dfc2ee0c80dedeb7","swim","arctic","4764","","<b>How many astronaut candidates passed the first swim test?</b>","","","","1","swim-comprehension","","","","","","","","","","","","","{""Q0"":""All of them""}","","","",""
"survey-multi-choice","39","984935","0.0-7.0-0.0-3.0-0.8","ddb6b0997c7940e6b58932b3ef6445d2facde761490adef9dfc2ee0c80dedeb7","swim","arctic","3453","","<b>What is the narrator afraid of, aside from the water?</b>","","","","1","swim-comprehension","","","","","","","","","","","","","{""Q0"":""Heights""}","","","",""
"survey-multi-choice","40","990696","0.0-7.0-0.0-3.0-0.9","ddb6b0997c7940e6b58932b3ef6445d2facde761490adef9dfc2ee0c80dedeb7","swim","arctic","5509","","<b>How did the narrator train for his swim test?</b>","","","","1","swim-comprehension","","","","","","","","","","","","","{""Q0"":""Took his kids to the pool every day""}","","","",""
"html-button-response","41","992402","0.0-7.0-0.0-4.0","ddb6b0997c7940e6b58932b3ef6445d2facde761490adef9dfc2ee0c80dedeb7","swim","arctic","1445","","<p>Thank you for your responses.</p><p>You will now answer some questions about your impressions of the story.</p>","0","","","","","","","","","","","","","","","","","","","","",""
"html-button-response","42","1001099","0.0-7.0-0.0-5.0-0.0","ddb6b0997c7940e6b58932b3ef6445d2facde761490adef9dfc2ee0c80dedeb7","swim","arctic","8697","","A5","2","","","","swim-engagement","","","","","","","","","","","","","","3","absorption","",""
"html-button-response","43","1004238","0.0-7.0-0.0-5.0-0.1","ddb6b0997c7940e6b58932b3ef6445d2facde761490adef9dfc2ee0c80dedeb7","swim","arctic","2885","","EE2","5","","","","swim-engagement","","","","","","","","","","","","","","6","emo-engage","",""
"html-button-response","44","1006622","0.0-7.0-0.0-5.0-0.2","ddb6b0997c7940e6b58932b3ef6445d2facde761490adef9dfc2ee0c80dedeb7","swim","arctic","2118","","EE4","5","","","","swim-engagement","","","","","","","","","","","","","","6","emo-engage","",""
"html-button-response","45","1009648","0.0-7.0-0.0-5.0-0.3","ddb6b0997c7940e6b58932b3ef6445d2facde761490adef9dfc2ee0c80dedeb7","swim","arctic","2770","","A3","5","","","","swim-engagement","","","","","","","","","","","","","","6","absorption","",""
"html-button-response","46","1013396","0.0-7.0-0.0-5.0-0.4","ddb6b0997c7940e6b58932b3ef6445d2facde761490adef9dfc2ee0c80dedeb7","swim","arctic","3491","","A4","3","","","","swim-engagement","","","","","","","","","","","","","","4","absorption","",""
"html-button-response","47","1016358","0.0-7.0-0.0-5.0-0.5","ddb6b0997c7940e6b58932b3ef6445d2facde761490adef9dfc2ee0c80dedeb7","swim","arctic","2701","","EE3","4","","","","swim-engagement","","","","","","","","","","","","","","5","emo-engage","",""
"html-button-response","48","1019011","0.0-7.0-0.0-5.0-0.6","ddb6b0997c7940e6b58932b3ef6445d2facde761490adef9dfc2ee0c80dedeb7","swim","arctic","2390","","MS1","5","","","","swim-engagement","","","","","","","","","","","","","","6","mental-sim","",""
"html-button-response","49","1023947","0.0-7.0-0.0-5.0-0.7","ddb6b0997c7940e6b58932b3ef6445d2facde761490adef9dfc2ee0c80dedeb7","swim","arctic","4679","","MS2","5","","","","swim-engagement","","","","","","","","","","","","","","6","mental-sim","",""
"html-button-response","50","1027696","0.0-7.0-0.0-5.0-0.8","ddb6b0997c7940e6b58932b3ef6445d2facde761490adef9dfc2ee0c80dedeb7","swim","arctic","3486","","A1","4","","","","swim-engagement","","","","","","","","","","","","","","5","absorption","",""
"html-button-response","51","1030146","0.0-7.0-0.0-5.0-0.9","ddb6b0997c7940e6b58932b3ef6445d2facde761490adef9dfc2ee0c80dedeb7","swim","arctic","2186","","E7","6","","","","swim-engagement","","","","","","","","","","","","","","7","enjoyment","",""
"html-button-response","52","1031809","0.0-7.0-0.0-5.0-0.10","ddb6b0997c7940e6b58932b3ef6445d2facde761490adef9dfc2ee0c80dedeb7","swim","arctic","1398","","E6","6","","","","swim-engagement","","","","","","","","","","","","","","7","enjoyment","",""
"html-button-response","53","1035782","0.0-7.0-0.0-5.0-0.11","ddb6b0997c7940e6b58932b3ef6445d2facde761490adef9dfc2ee0c80dedeb7","swim","arctic","3708","","EE1","5","","","","swim-engagement","","","","","","","","","","","","","","6","emo-engage","",""
"html-button-response","54","1038299","0.0-7.0-0.0-5.0-0.12","ddb6b0997c7940e6b58932b3ef6445d2facde761490adef9dfc2ee0c80dedeb7","swim","arctic","2250","","A2","6","","","","swim-engagement","","","","","","","","","","","","","","7","absorption","",""
"html-button-response","55","1040992","0.0-7.0-0.0-5.0-0.13","ddb6b0997c7940e6b58932b3ef6445d2facde761490adef9dfc2ee0c80dedeb7","swim","arctic","2435","","E8","5","","","","swim-engagement","","","","","","","","","","","","","","6","enjoyment","",""
"html-button-response","56","1042949","0.0-7.0-0.0-5.0-0.14","ddb6b0997c7940e6b58932b3ef6445d2facde761490adef9dfc2ee0c80dedeb7","swim","arctic","1702","","E10","6","","","","swim-engagement","","","","","","","","","","","","","","7","enjoyment","",""
"html-button-response","57","1045007","0.0-7.0-0.0-5.0-0.15","ddb6b0997c7940e6b58932b3ef6445d2facde761490adef9dfc2ee0c80dedeb7","swim","arctic","1797","","E1","5","","","","swim-engagement","","","","","","","","","","","","","","6","enjoyment","",""
"html-button-response","58","1047902","0.0-7.0-0.0-5.0-0.16","ddb6b0997c7940e6b58932b3ef6445d2facde761490adef9dfc2ee0c80dedeb7","swim","arctic","2637","","MS3","6","","","","swim-engagement","","","","","","","","","","","","","","7","mental-sim","",""
"html-button-response","59","1050415","0.0-7.0-0.0-5.0-0.17","ddb6b0997c7940e6b58932b3ef6445d2facde761490adef9dfc2ee0c80dedeb7","swim","arctic","2250","","EE5","6","","","","swim-engagement","","","","","","","","","","","","","","7","emo-engage","",""
"html-keyboard-response","60","1056442","0.0-7.0-1.0","ddb6b0997c7940e6b58932b3ef6445d2facde761490adef9dfc2ee0c80dedeb7","swim","arctic","5765","","<p>Thank you for your responses. You will now listen to the second story.</p><p>Remember, as you listen to the story you will see letters appear on the screen.</br>As quickly as possible, press <b>&lt;x&gt;</b> if the letter is lowercase and <b>&lt;m&gt;</b> if the letter is uppercase.</p><p>Press <b>&lt;x&gt;</b> or <b>&lt;m&gt;</b> to begin listening!</p>","","88","","","","","","","","","","","","","","","","","","","",""
"html-keyboard-response","61","1056949","0.0-7.0-2.0-0.0","ddb6b0997c7940e6b58932b3ef6445d2facde761490adef9dfc2ee0c80dedeb7","swim","arctic","null","","<div style=""font-size:60px;"" tabindex=""0"">+</div>","","null","","","","","","","","","","","","","","","","","","","",""
"dual-task","null","null","null","","swim","arctic","519","","E","null","77","77","1","arctic-dual-task","","E","uppercase","18000","0","5","ddb6b0997c7940e6b58932b3ef6445d2facde761490adef9dfc2ee0c80dedeb7","18008","519","77","1","arctic","","","","",""
"dual-task","null","null","null","","swim","arctic","521","","n","null","88","88","1","arctic-dual-task","","n","lowercase","32000","0","5","ddb6b0997c7940e6b58932b3ef6445d2facde761490adef9dfc2ee0c80dedeb7","32010","521","88","1","arctic","","","","",""
"dual-task","null","null","null","","swim","arctic","491","","F","null","77","77","1","arctic-dual-task","","F","uppercase","42000","0","5","ddb6b0997c7940e6b58932b3ef6445d2facde761490adef9dfc2ee0c80dedeb7","42004","491","77","1","arctic","","","","",""
"dual-task","null","null","null","","swim","arctic","504","","q","null","88","88","1","arctic-dual-task","","q","lowercase","56000","0","5","ddb6b0997c7940e6b58932b3ef6445d2facde761490adef9dfc2ee0c80dedeb7","56008","504","88","1","arctic","","","","",""
"dual-task","null","null","null","","swim","arctic","486","","F","null","77","77","1","arctic-dual-task","","F","uppercase","68000","0","5","ddb6b0997c7940e6b58932b3ef6445d2facde761490adef9dfc2ee0c80dedeb7","68009","486","77","1","arctic","","","","",""
"dual-task","null","null","null","","swim","arctic","522","","e","null","88","88","1","arctic-dual-task","","e","lowercase","82000","0","5","ddb6b0997c7940e6b58932b3ef6445d2facde761490adef9dfc2ee0c80dedeb7","82010","522","88","1","arctic","","","","",""
"dual-task","null","null","null","","swim","arctic","463","","a","null","88","88","1","arctic-dual-task","","a","lowercase","88000","0","5","ddb6b0997c7940e6b58932b3ef6445d2facde761490adef9dfc2ee0c80dedeb7","88004","463","88","1","arctic","","","","",""
"dual-task","null","null","null","","swim","arctic","554","","D","null","77","77","1","arctic-dual-task","","D","uppercase","100000","0","5","ddb6b0997c7940e6b58932b3ef6445d2facde761490adef9dfc2ee0c80dedeb7","100005","554","77","1","arctic","","","","",""
"dual-task","null","null","null","","swim","arctic","604","","B","null","77","77","1","arctic-dual-task","","B","uppercase","108000","0","5","ddb6b0997c7940e6b58932b3ef6445d2facde761490adef9dfc2ee0c80dedeb7","108011","604","77","1","arctic","","","","",""
"dual-task","null","null","null","","swim","arctic","520","","D","null","77","77","1","arctic-dual-task","","D","uppercase","116000","0","5","ddb6b0997c7940e6b58932b3ef6445d2facde761490adef9dfc2ee0c80dedeb7","116000","520","77","1","arctic","","","","",""
"dual-task","null","null","null","","swim","arctic","540","","R","null","77","77","1","arctic-dual-task","","R","uppercase","124000","0","5","ddb6b0997c7940e6b58932b3ef6445d2facde761490adef9dfc2ee0c80dedeb7","124011","540","77","1","arctic","","","","",""
"dual-task","null","null","null","","swim","arctic","604","","f","null","88","88","1","arctic-dual-task","","f","lowercase","134000","0","5","ddb6b0997c7940e6b58932b3ef6445d2facde761490adef9dfc2ee0c80dedeb7","134004","604","88","1","arctic","","","","",""
"dual-task","null","null","null","","swim","arctic","554","","t","null","88","88","1","arctic-dual-task","","t","lowercase","144000","0","5","ddb6b0997c7940e6b58932b3ef6445d2facde761490adef9dfc2ee0c80dedeb7","144010","554","88","1","arctic","","","","",""
"dual-task","null","null","null","","swim","arctic","696","","b","null","88","88","1","arctic-dual-task","","b","lowercase","150000","0","5","ddb6b0997c7940e6b58932b3ef6445d2facde761490adef9dfc2ee0c80dedeb7","150004","696","88","1","arctic","","","","",""
"dual-task","null","null","null","","swim","arctic","573","","f","null","88","88","1","arctic-dual-task","","f","lowercase","160000","0","5","ddb6b0997c7940e6b58932b3ef6445d2facde761490adef9dfc2ee0c80dedeb7","160006","573","88","1","arctic","","","","",""
"dual-task","null","null","null","","swim","arctic","615","","G","null","77","77","1","arctic-dual-task","","G","uppercase","170000","0","5","ddb6b0997c7940e6b58932b3ef6445d2facde761490adef9dfc2ee0c80dedeb7","170013","615","77","1","arctic","","","","",""
"dual-task","null","null","null","","swim","arctic","582","","q","null","88","88","1","arctic-dual-task","","q","lowercase","176000","0","5","ddb6b0997c7940e6b58932b3ef6445d2facde761490adef9dfc2ee0c80dedeb7","176005","582","88","1","arctic","","","","",""
"dual-task","null","null","null","","swim","arctic","547","","h","null","88","88","1","arctic-dual-task","","h","lowercase","188000","0","5","ddb6b0997c7940e6b58932b3ef6445d2facde761490adef9dfc2ee0c80dedeb7","188008","547","88","1","arctic","","","","",""
"dual-task","null","null","null","","swim","arctic","508","","D","null","77","77","1","arctic-dual-task","","D","uppercase","194000","0","5","ddb6b0997c7940e6b58932b3ef6445d2facde761490adef9dfc2ee0c80dedeb7","194004","508","77","1","arctic","","","","",""
"dual-task","null","null","null","","swim","arctic","739","","B","null","77","77","1","arctic-dual-task","","B","uppercase","204000","0","5","ddb6b0997c7940e6b58932b3ef6445d2facde761490adef9dfc2ee0c80dedeb7","204009","739","77","1","arctic","","","","",""
"dual-task","null","null","null","","swim","arctic","635","","t","null","88","88","1","arctic-dual-task","","t","lowercase","214000","0","5","ddb6b0997c7940e6b58932b3ef6445d2facde761490adef9dfc2ee0c80dedeb7","214001","635","88","1","arctic","","","","",""
"dual-task","null","null","null","","swim","arctic","389","","F","null","77","77","1","arctic-dual-task","","F","uppercase","224000","0","5","ddb6b0997c7940e6b58932b3ef6445d2facde761490adef9dfc2ee0c80dedeb7","224006","389","77","1","arctic","","","","",""
"dual-task","null","null","null","","swim","arctic","704","","d","null","88","88","1","arctic-dual-task","","d","lowercase","230000","0","5","ddb6b0997c7940e6b58932b3ef6445d2facde761490adef9dfc2ee0c80dedeb7","230000","704","88","1","arctic","","","","",""
"dual-task","null","null","null","","swim","arctic","493","","a","null","88","88","1","arctic-dual-task","","a","lowercase","244000","0","5","ddb6b0997c7940e6b58932b3ef6445d2facde761490adef9dfc2ee0c80dedeb7","244015","493","88","1","arctic","","","","",""
"dual-task","null","null","null","","swim","arctic","555","","T","null","77","77","1","arctic-dual-task","","T","uppercase","258000","0","5","ddb6b0997c7940e6b58932b3ef6445d2facde761490adef9dfc2ee0c80dedeb7","258013","555","77","1","arctic","","","","",""
"dual-task","null","null","null","","swim","arctic","517","","g","null","88","88","1","arctic-dual-task","","g","lowercase","266000","0","5","ddb6b0997c7940e6b58932b3ef6445d2facde761490adef9dfc2ee0c80dedeb7","266007","517","88","1","arctic","","","","",""
"dual-task","null","null","null","","swim","arctic","527","","q","null","88","88","1","arctic-dual-task","","q","lowercase","276000","0","5","ddb6b0997c7940e6b58932b3ef6445d2facde761490adef9dfc2ee0c80dedeb7","276009","527","88","1","arctic","","","","",""
"dual-task","null","null","null","","swim","arctic","426","","B","null","77","77","1","arctic-dual-task","","B","uppercase","290000","0","5","ddb6b0997c7940e6b58932b3ef6445d2facde761490adef9dfc2ee0c80dedeb7","290002","426","77","1","arctic","","","","",""
"dual-task","null","null","null","","swim","arctic","562","","h","null","88","88","1","arctic-dual-task","","h","lowercase","298000","0","5","ddb6b0997c7940e6b58932b3ef6445d2facde761490adef9dfc2ee0c80dedeb7","298014","562","88","1","arctic","","","","",""
"dual-task","null","null","null","","swim","arctic","506","","T","null","77","77","1","arctic-dual-task","","T","uppercase","306000","0","5","ddb6b0997c7940e6b58932b3ef6445d2facde761490adef9dfc2ee0c80dedeb7","306014","506","77","1","arctic","","","","",""
"dual-task","null","null","null","","swim","arctic","557","","a","null","88","88","1","arctic-dual-task","","a","lowercase","316000","0","5","ddb6b0997c7940e6b58932b3ef6445d2facde761490adef9dfc2ee0c80dedeb7","316015","557","88","1","arctic","","","","",""
"dual-task","null","null","null","","swim","arctic","395","","H","null","77","77","1","arctic-dual-task","","H","uppercase","328000","0","5","ddb6b0997c7940e6b58932b3ef6445d2facde761490adef9dfc2ee0c80dedeb7","328013","395","77","1","arctic","","","","",""
"dual-task","null","null","null","","swim","arctic","509","","T","null","77","77","1","arctic-dual-task","","T","uppercase","342000","0","5","ddb6b0997c7940e6b58932b3ef6445d2facde761490adef9dfc2ee0c80dedeb7","342003","509","77","1","arctic","","","","",""
"dual-task","null","null","null","","swim","arctic","522","","A","null","77","77","1","arctic-dual-task","","A","uppercase","354000","0","5","ddb6b0997c7940e6b58932b3ef6445d2facde761490adef9dfc2ee0c80dedeb7","354015","522","77","1","arctic","","","","",""
"dual-task","null","null","null","","swim","arctic","470","","A","null","77","77","1","arctic-dual-task","","A","uppercase","364000","0","5","ddb6b0997c7940e6b58932b3ef6445d2facde761490adef9dfc2ee0c80dedeb7","364014","470","77","1","arctic","","","","",""
"dual-task","null","null","null","","swim","arctic","456","","A","null","77","77","1","arctic-dual-task","","A","uppercase","372000","0","5","ddb6b0997c7940e6b58932b3ef6445d2facde761490adef9dfc2ee0c80dedeb7","372012","456","77","1","arctic","","","","",""
"dual-task","null","null","null","","swim","arctic","641","","t","null","88","88","1","arctic-dual-task","","t","lowercase","378000","0","5","ddb6b0997c7940e6b58932b3ef6445d2facde761490adef9dfc2ee0c80dedeb7","378011","641","88","1","arctic","","","","",""
"dual-task","null","null","null","","swim","arctic","762","","E","null","77","77","1","arctic-dual-task","","E","uppercase","388000","0","5","ddb6b0997c7940e6b58932b3ef6445d2facde761490adef9dfc2ee0c80dedeb7","388002","762","77","1","arctic","","","","",""
"dual-task","null","null","null","","swim","arctic","557","","G","null","77","77","1","arctic-dual-task","","G","uppercase","394000","0","5","ddb6b0997c7940e6b58932b3ef6445d2facde761490adef9dfc2ee0c80dedeb7","394003","557","77","1","arctic","","","","",""
"dual-task","null","null","null","","swim","arctic","658","","n","null","88","88","1","arctic-dual-task","","n","lowercase","406000","0","5","ddb6b0997c7940e6b58932b3ef6445d2facde761490adef9dfc2ee0c80dedeb7","406011","658","88","1","arctic","","","","",""
"dual-task","null","null","null","","swim","arctic","501","","R","null","77","77","1","arctic-dual-task","","R","uppercase","412000","0","5","ddb6b0997c7940e6b58932b3ef6445d2facde761490adef9dfc2ee0c80dedeb7","412015","501","77","1","arctic","","","","",""
"dual-task","null","null","null","","swim","arctic","865","","r","null","88","88","1","arctic-dual-task","","r","lowercase","426000","0","5","ddb6b0997c7940e6b58932b3ef6445d2facde761490adef9dfc2ee0c80dedeb7","426003","865","88","1","arctic","","","","",""
"dual-task","null","null","null","","swim","arctic","596","","a","null","88","88","1","arctic-dual-task","","a","lowercase","438000","0","5","ddb6b0997c7940e6b58932b3ef6445d2facde761490adef9dfc2ee0c80dedeb7","438004","596","88","1","arctic","","","","",""
"dual-task","null","null","null","","swim","arctic","512","","g","null","88","88","1","arctic-dual-task","","g","lowercase","450000","0","5","ddb6b0997c7940e6b58932b3ef6445d2facde761490adef9dfc2ee0c80dedeb7","450012","512","88","1","arctic","","","","",""
"dual-task","null","null","null","","swim","arctic","622","","Q","null","77","77","1","arctic-dual-task","","Q","uppercase","462000","0","5","ddb6b0997c7940e6b58932b3ef6445d2facde761490adef9dfc2ee0c80dedeb7","462002","622","77","1","arctic","","","","",""
"dual-task","null","null","null","","swim","arctic","509","","D","null","77","77","1","arctic-dual-task","","D","uppercase","474000","0","5","ddb6b0997c7940e6b58932b3ef6445d2facde761490adef9dfc2ee0c80dedeb7","474007","509","77","1","arctic","","","","",""
"dual-task","null","null","null","","swim","arctic","555","","h","null","88","88","1","arctic-dual-task","","h","lowercase","482000","0","5","ddb6b0997c7940e6b58932b3ef6445d2facde761490adef9dfc2ee0c80dedeb7","482009","555","88","1","arctic","","","","",""
"dual-task","null","null","null","","swim","arctic","515","","A","null","77","77","1","arctic-dual-task","","A","uppercase","488000","0","5","ddb6b0997c7940e6b58932b3ef6445d2facde761490adef9dfc2ee0c80dedeb7","488009","515","77","1","arctic","","","","",""
"dual-task","null","null","null","","swim","arctic","490","","d","null","88","88","1","arctic-dual-task","","d","lowercase","494000","0","5","ddb6b0997c7940e6b58932b3ef6445d2facde761490adef9dfc2ee0c80dedeb7","494014","490","88","1","arctic","","","","",""
"dual-task","null","null","null","","swim","arctic","602","","e","null","88","88","1","arctic-dual-task","","e","lowercase","500000","0","5","ddb6b0997c7940e6b58932b3ef6445d2facde761490adef9dfc2ee0c80dedeb7","500014","602","88","1","arctic","","","","",""
"dual-task","null","null","null","","swim","arctic","532","","T","null","77","77","1","arctic-dual-task","","T","uppercase","508000","0","5","ddb6b0997c7940e6b58932b3ef6445d2facde761490adef9dfc2ee0c80dedeb7","508004","532","77","1","arctic","","","","",""
"dual-task","null","null","null","","swim","arctic","479","","G","null","77","77","1","arctic-dual-task","","G","uppercase","522000","0","5","ddb6b0997c7940e6b58932b3ef6445d2facde761490adef9dfc2ee0c80dedeb7","522013","479","77","1","arctic","","","","",""
"dual-task","null","null","null","","swim","arctic","482","","R","null","77","77","1","arctic-dual-task","","R","uppercase","534000","0","5","ddb6b0997c7940e6b58932b3ef6445d2facde761490adef9dfc2ee0c80dedeb7","534006","482","77","1","arctic","","","","",""
"dual-task","null","null","null","","swim","arctic","1069","","r","null","88","88","1","arctic-dual-task","","r","lowercase","546000","0","5","ddb6b0997c7940e6b58932b3ef6445d2facde761490adef9dfc2ee0c80dedeb7","546012","1069","88","1","arctic","","","","",""
"dual-task","null","null","null","","swim","arctic","559","","H","null","77","77","1","arctic-dual-task","","H","uppercase","560000","0","5","ddb6b0997c7940e6b58932b3ef6445d2facde761490adef9dfc2ee0c80dedeb7","560010","559","77","1","arctic","","","","",""
"dual-task","null","null","null","","swim","arctic","562","","h","null","88","88","1","arctic-dual-task","","h","lowercase","574000","0","5","ddb6b0997c7940e6b58932b3ef6445d2facde761490adef9dfc2ee0c80dedeb7","574003","562","88","1","arctic","","","","",""
"dual-task","null","null","null","","swim","arctic","529","","e","null","88","88","1","arctic-dual-task","","e","lowercase","588000","0","5","ddb6b0997c7940e6b58932b3ef6445d2facde761490adef9dfc2ee0c80dedeb7","588004","529","88","1","arctic","","","","",""
"dual-task","null","null","null","","swim","arctic","742","","b","null","88","88","1","arctic-dual-task","","b","lowercase","602000","0","5","ddb6b0997c7940e6b58932b3ef6445d2facde761490adef9dfc2ee0c80dedeb7","602003","742","88","1","arctic","","","","",""
"dual-task","null","null","null","","swim","arctic","547","","N","null","77","77","1","arctic-dual-task","","N","uppercase","610000","0","5","ddb6b0997c7940e6b58932b3ef6445d2facde761490adef9dfc2ee0c80dedeb7","610002","547","77","1","arctic","","","","",""
"dual-task","null","null","null","","swim","arctic","560","","t","null","88","88","1","arctic-dual-task","","t","lowercase","620000","0","5","ddb6b0997c7940e6b58932b3ef6445d2facde761490adef9dfc2ee0c80dedeb7","620005","560","88","1","arctic","","","","",""
"dual-task","null","null","null","","swim","arctic","522","","f","null","88","88","1","arctic-dual-task","","f","lowercase","634000","0","5","ddb6b0997c7940e6b58932b3ef6445d2facde761490adef9dfc2ee0c80dedeb7","634003","522","88","1","arctic","","","","",""
"dual-task","null","null","null","","swim","arctic","486","","N","null","77","77","1","arctic-dual-task","","N","uppercase","648000","0","5","ddb6b0997c7940e6b58932b3ef6445d2facde761490adef9dfc2ee0c80dedeb7","648002","486","77","1","arctic","","","","",""
"dual-task","null","null","null","","swim","arctic","454","","N","null","77","77","1","arctic-dual-task","","N","uppercase","656000","0","5","ddb6b0997c7940e6b58932b3ef6445d2facde761490adef9dfc2ee0c80dedeb7","656006","454","77","1","arctic","","","","",""
"dual-task","null","null","null","","swim","arctic","446","","H","null","77","77","1","arctic-dual-task","","H","uppercase","668000","0","5","ddb6b0997c7940e6b58932b3ef6445d2facde761490adef9dfc2ee0c80dedeb7","668010","446","77","1","arctic","","","","",""
"dual-task","null","null","null","","swim","arctic","534","","r","null","88","88","1","arctic-dual-task","","r","lowercase","676000","0","5","ddb6b0997c7940e6b58932b3ef6445d2facde761490adef9dfc2ee0c80dedeb7","676015","534","88","1","arctic","","","","",""
"dual-task","null","null","null","","swim","arctic","828","","d","null","88","88","1","arctic-dual-task","","d","lowercase","690000","0","5","ddb6b0997c7940e6b58932b3ef6445d2facde761490adef9dfc2ee0c80dedeb7","690005","828","88","1","arctic","","","","",""
"dual-task","null","null","null","","swim","arctic","516","","G","null","77","77","1","arctic-dual-task","","G","uppercase","700000","0","5","ddb6b0997c7940e6b58932b3ef6445d2facde761490adef9dfc2ee0c80dedeb7","700009","516","77","1","arctic","","","","",""
"dual-task","null","null","null","","swim","arctic","471","","r","null","77","88","0","arctic-dual-task","","r","lowercase","708000","0","5","ddb6b0997c7940e6b58932b3ef6445d2facde761490adef9dfc2ee0c80dedeb7","708010","471","77","0","arctic","","","","",""
"dual-task","null","null","null","","swim","arctic","551","","b","null","88","88","1","arctic-dual-task","","b","lowercase","720000","0","5","ddb6b0997c7940e6b58932b3ef6445d2facde761490adef9dfc2ee0c80dedeb7","720006","551","88","1","arctic","","","","",""
"dual-task","null","null","null","","swim","arctic","426","","e","null","88","88","1","arctic-dual-task","","e","lowercase","726000","0","5","ddb6b0997c7940e6b58932b3ef6445d2facde761490adef9dfc2ee0c80dedeb7","726007","426","88","1","arctic","","","","",""
"dual-task","null","null","null","","swim","arctic","538","","Q","null","77","77","1","arctic-dual-task","","Q","uppercase","736000","0","5","ddb6b0997c7940e6b58932b3ef6445d2facde761490adef9dfc2ee0c80dedeb7","736011","538","77","1","arctic","","","","",""
"dual-task","null","null","null","","swim","arctic","493","","g","null","88","88","1","arctic-dual-task","","g","lowercase","746000","0","5","ddb6b0997c7940e6b58932b3ef6445d2facde761490adef9dfc2ee0c80dedeb7","746013","493","88","1","arctic","","","","",""
"dual-task","null","null","null","","swim","arctic","698","","Q","null","77","77","1","arctic-dual-task","","Q","uppercase","758000","0","5","ddb6b0997c7940e6b58932b3ef6445d2facde761490adef9dfc2ee0c80dedeb7","758003","698","77","1","arctic","","","","",""
"dual-task","null","null","null","","swim","arctic","533","","q","null","88","88","1","arctic-dual-task","","q","lowercase","764000","0","5","ddb6b0997c7940e6b58932b3ef6445d2facde761490adef9dfc2ee0c80dedeb7","764008","533","88","1","arctic","","","","",""
"dual-task","null","null","null","","swim","arctic","544","","f","null","88","88","1","arctic-dual-task","","f","lowercase","774000","0","5","ddb6b0997c7940e6b58932b3ef6445d2facde761490adef9dfc2ee0c80dedeb7","774009","544","88","1","arctic","","","","",""
"dual-task","null","null","null","","swim","arctic","572","","R","null","77","77","1","arctic-dual-task","","R","uppercase","786000","0","5","ddb6b0997c7940e6b58932b3ef6445d2facde761490adef9dfc2ee0c80dedeb7","786013","572","77","1","arctic","","","","",""
"audio-keyboard-response","62","1854974","0.0-7.0-2.0-1.0","ddb6b0997c7940e6b58932b3ef6445d2facde761490adef9dfc2ee0c80dedeb7","swim","arctic","null","","audio/story_arctic_scrambled.mp3","","null","","","","","","","","","","","","","","","","","","","",""
"html-button-response","63","1857697","0.0-7.0-2.0-2.0","ddb6b0997c7940e6b58932b3ef6445d2facde761490adef9dfc2ee0c80dedeb7","swim","arctic","2723","","<p>This concludes the story. Thank you for listening.</p><p>You will now answer some questions about the content of the story.</p>","0","","","","","","","","","","","","","","","","","","","","",""
"survey-multi-choice","64","1863702","0.0-7.0-2.0-3.0-0.0","ddb6b0997c7940e6b58932b3ef6445d2facde761490adef9dfc2ee0c80dedeb7","swim","arctic","6004","","<b>Which dog on the narrator&#39;s dog team never followed instructions?</b>","","","","1","arctic-comprehension","","","","","","","","","","","","","{""Q0"":""Robert""}","","","",""
"survey-multi-choice","65","1884176","0.0-7.0-2.0-3.0-0.1","ddb6b0997c7940e6b58932b3ef6445d2facde761490adef9dfc2ee0c80dedeb7","swim","arctic","20219","","<b>How did the narrator prepare for her expedition?</b>","","","","1","arctic-comprehension","","","","","","","","","","","","","{""Q0"":""Trained in Alaska learning how to dogsled""}","","","",""
"survey-multi-choice","66","1889564","0.0-7.0-2.0-3.0-0.2","ddb6b0997c7940e6b58932b3ef6445d2facde761490adef9dfc2ee0c80dedeb7","swim","arctic","5133","","<b>How did the narrator&#39;s encounter with the polar bears end?</b>","","","","1","arctic-comprehension","","","","","","","","","","","","","{""Q0"":""The bears walked back to their den.""}","","","",""
"survey-multi-choice","67","1893432","0.0-7.0-2.0-3.0-0.3","ddb6b0997c7940e6b58932b3ef6445d2facde761490adef9dfc2ee0c80dedeb7","swim","arctic","3603","","<b>What was the objective of the narrator&#39;s expedition?</b>","","","","1","arctic-comprehension","","","","","","","","","","","","","{""Q0"":""Dogsled across Arctic America""}","","","",""
"survey-multi-choice","68","1896940","0.0-7.0-2.0-3.0-0.4","ddb6b0997c7940e6b58932b3ef6445d2facde761490adef9dfc2ee0c80dedeb7","swim","arctic","3252","","<b>What is the name of the narrator&#39;s neighbour?</b>","","","","1","arctic-comprehension","","","","","","","","","","","","","{""Q0"":""Dave""}","","","",""
"survey-multi-choice","69","1903912","0.0-7.0-2.0-3.0-0.5","ddb6b0997c7940e6b58932b3ef6445d2facde761490adef9dfc2ee0c80dedeb7","swim","arctic","6713","","<b>How many sponsorships did the narrator receive to support her expedition?</b>","","","","1","arctic-comprehension","","","","","","","","","","","","","{""Q0"":""None""}","","","",""
"survey-multi-choice","70","1910817","0.0-7.0-2.0-3.0-0.6","ddb6b0997c7940e6b58932b3ef6445d2facde761490adef9dfc2ee0c80dedeb7","swim","arctic","6644","","<b>How did the dogs respond when they saw the bears?</b>","","","","1","arctic-comprehension","","","","","","","","","","","","","{""Q0"":""Approached them""}","","","",""
"survey-multi-choice","71","1920386","0.0-7.0-2.0-3.0-0.7","ddb6b0997c7940e6b58932b3ef6445d2facde761490adef9dfc2ee0c80dedeb7","swim","arctic","9305","","<b>What were the weather conditions in the Arctic like the winter of the narrator&#39;s expedition?</b>","","","","1","arctic-comprehension","","","","","","","","","","","","","{""Q0"":""There were more storms than any other winter in recorded history.""}","","","",""
"survey-multi-choice","72","1927803","0.0-7.0-2.0-3.0-0.8","ddb6b0997c7940e6b58932b3ef6445d2facde761490adef9dfc2ee0c80dedeb7","swim","arctic","7157","","<b>How did the narrator&#39;s neighbour respond when she told him about her expedition?</b>","","","","1","arctic-comprehension","","","","","","","","","","","","","{""Q0"":""He said she was going to fail.""}","","","",""
"survey-multi-choice","73","1931042","0.0-7.0-2.0-3.0-0.9","ddb6b0997c7940e6b58932b3ef6445d2facde761490adef9dfc2ee0c80dedeb7","swim","arctic","2987","","<b>What did the narrator do for leisure while in her tent?</b>","","","","1","arctic-comprehension","","","","","","","","","","","","","{""Q0"":""Read""}","","","",""
"html-button-response","74","1932574","0.0-7.0-2.0-4.0","ddb6b0997c7940e6b58932b3ef6445d2facde761490adef9dfc2ee0c80dedeb7","swim","arctic","1271","","<p>Thank you for your responses.</p><p>You will now answer some questions about your impressions of the story.</p>","0","","","","","","","","","","","","","","","","","","","","",""
"html-button-response","75","1936171","0.0-7.0-2.0-5.0-0.0","ddb6b0997c7940e6b58932b3ef6445d2facde761490adef9dfc2ee0c80dedeb7","swim","arctic","3597","","EE3","2","","","","arctic-engagement","","","","","","","","","","","","","","3","emo-engage","",""
"html-button-response","76","1939922","0.0-7.0-2.0-5.0-0.1","ddb6b0997c7940e6b58932b3ef6445d2facde761490adef9dfc2ee0c80dedeb7","swim","arctic","3499","","E6","2","","","","arctic-engagement","","","","","","","","","","","","","","3","enjoyment","",""
"html-button-response","77","1941905","0.0-7.0-2.0-5.0-0.2","ddb6b0997c7940e6b58932b3ef6445d2facde761490adef9dfc2ee0c80dedeb7","swim","arctic","1730","","E8","1","","","","arctic-engagement","","","","","","","","","","","","","","2","enjoyment","",""
"html-button-response","78","1944124","0.0-7.0-2.0-5.0-0.3","ddb6b0997c7940e6b58932b3ef6445d2facde761490adef9dfc2ee0c80dedeb7","swim","arctic","1957","","MS3","1","","","","arctic-engagement","","","","","","","","","","","","","","2","mental-sim","",""
"html-button-response","79","1947418","0.0-7.0-2.0-5.0-0.4","ddb6b0997c7940e6b58932b3ef6445d2facde761490adef9dfc2ee0c80dedeb7","swim","arctic","3031","","EE1","2","","","","arctic-engagement","","","","","","","","","","","","","","3","emo-engage","",""
"html-button-response","80","1950546","0.0-7.0-2.0-5.0-0.5","ddb6b0997c7940e6b58932b3ef6445d2facde761490adef9dfc2ee0c80dedeb7","swim","arctic","2874","","EE2","5","","","","arctic-engagement","","","","","","","","","","","","","","6","emo-engage","",""
"html-button-response","81","1953203","0.0-7.0-2.0-5.0-0.6","ddb6b0997c7940e6b58932b3ef6445d2facde761490adef9dfc2ee0c80dedeb7","swim","arctic","2406","","EE5","3","","","","arctic-engagement","","","","","","","","","","","","","","4","emo-engage","",""
"html-button-response","82","1955726","0.0-7.0-2.0-5.0-0.7","ddb6b0997c7940e6b58932b3ef6445d2facde761490adef9dfc2ee0c80dedeb7","swim","arctic","2258","","A5","1","","","","arctic-engagement","","","","","","","","","","","","","","2","absorption","",""
"html-button-response","83","1958825","0.0-7.0-2.0-5.0-0.8","ddb6b0997c7940e6b58932b3ef6445d2facde761490adef9dfc2ee0c80dedeb7","swim","arctic","2835","","MS2","0","","","","arctic-engagement","","","","","","","","","","","","","","1","mental-sim","",""
"html-button-response","84","1960823","0.0-7.0-2.0-5.0-0.9","ddb6b0997c7940e6b58932b3ef6445d2facde761490adef9dfc2ee0c80dedeb7","swim","arctic","1737","","A4","0","","","","arctic-engagement","","","","","","","","","","","","","","1","absorption","",""
"html-button-response","85","1964076","0.0-7.0-2.0-5.0-0.10","ddb6b0997c7940e6b58932b3ef6445d2facde761490adef9dfc2ee0c80dedeb7","swim","arctic","2998","","E1","3","","","","arctic-engagement","","","","","","","","","","","","","","4","enjoyment","",""
"html-button-response","86","1966876","0.0-7.0-2.0-5.0-0.11","ddb6b0997c7940e6b58932b3ef6445d2facde761490adef9dfc2ee0c80dedeb7","swim","arctic","2543","","EE4","2","","","","arctic-engagement","","","","","","","","","","","","","","3","emo-engage","",""
"html-button-response","87","1969978","0.0-7.0-2.0-5.0-0.12","ddb6b0997c7940e6b58932b3ef6445d2facde761490adef9dfc2ee0c80dedeb7","swim","arctic","2849","","E10","0","","","","arctic-engagement","","","","","","","","","","","","","","1","enjoyment","",""
"html-button-response","88","1973409","0.0-7.0-2.0-5.0-0.13","ddb6b0997c7940e6b58932b3ef6445d2facde761490adef9dfc2ee0c80dedeb7","swim","arctic","3172","","A1","0","","","","arctic-engagement","","","","","","","","","","","","","","1","absorption","",""
"html-button-response","89","1975608","0.0-7.0-2.0-5.0-0.14","ddb6b0997c7940e6b58932b3ef6445d2facde761490adef9dfc2ee0c80dedeb7","swim","arctic","1948","","A3","1","","","","arctic-engagement","","","","","","","","","","","","","","2","absorption","",""
"html-button-response","90","1977529","0.0-7.0-2.0-5.0-0.15","ddb6b0997c7940e6b58932b3ef6445d2facde761490adef9dfc2ee0c80dedeb7","swim","arctic","1667","","A2","1","","","","arctic-engagement","","","","","","","","","","","","","","2","absorption","",""
"html-button-response","91","1979821","0.0-7.0-2.0-5.0-0.16","ddb6b0997c7940e6b58932b3ef6445d2facde761490adef9dfc2ee0c80dedeb7","swim","arctic","2035","","E7","2","","","","arctic-engagement","","","","","","","","","","","","","","3","enjoyment","",""
"html-button-response","92","1983638","0.0-7.0-2.0-5.0-0.17","ddb6b0997c7940e6b58932b3ef6445d2facde761490adef9dfc2ee0c80dedeb7","swim","arctic","3553","","MS1","1","","","","arctic-engagement","","","","","","","","","","","","","","2","mental-sim","",""
"html-button-response","93","1985006","0.0-8.0","ddb6b0997c7940e6b58932b3ef6445d2facde761490adef9dfc2ee0c80dedeb7","swim","arctic","1111","","<p>Thank you for your responses.</p><p>You will now answer some demographic, hearing, and general health questions.</p>","0","","","","","","","","","","","","","","","","","","","","",""
"survey-multi-choice","94","1987397","0.0-9.0-0.0","ddb6b0997c7940e6b58932b3ef6445d2facde761490adef9dfc2ee0c80dedeb7","swim","arctic","2390","","","","","","","survey","","","","","","","","","","","","","{""Q0"":""Firefox""}","","","browser",""
"survey-text","95","1990330","0.0-9.0-1.0","ddb6b0997c7940e6b58932b3ef6445d2facde761490adef9dfc2ee0c80dedeb7","swim","arctic","2668","","","","","","","survey","","","","","","","","","","","","","{""AGE"":""30""}","","","age","30"
"survey-multi-choice","96","1992187","0.0-9.0-2.0","ddb6b0997c7940e6b58932b3ef6445d2facde761490adef9dfc2ee0c80dedeb7","swim","arctic","1598","","","","","","","survey","","","","","","","","","","","","","{""Q0"":""Male""}","","","gender","Male"
"survey-multi-choice","97","1994136","0.0-9.0-4.0","ddb6b0997c7940e6b58932b3ef6445d2facde761490adef9dfc2ee0c80dedeb7","swim","arctic","1687","","","","","","","survey","","","","","","","","","","","","","{""Q0"":""Right""}","","","handedness","Right"
"survey-multi-choice","98","1996600","0.0-9.0-5.0","ddb6b0997c7940e6b58932b3ef6445d2facde761490adef9dfc2ee0c80dedeb7","swim","arctic","2203","","","","","","","survey","","","","","","","","","","","","","{""Q0"":""High school""}","","","education","High school"
"survey-text","99","2000196","0.0-10.0-0.0","ddb6b0997c7940e6b58932b3ef6445d2facde761490adef9dfc2ee0c80dedeb7","swim","arctic","3338","","","","","","","survey","","","","","","","","","","","","","{""L1"":""English""}","","","first-language","English"
"survey-text","100","2006351","0.0-10.0-1.0","ddb6b0997c7940e6b58932b3ef6445d2facde761490adef9dfc2ee0c80dedeb7","swim","arctic","5888","","","","","","","survey","","","","","","","","","","","","","{""L2name"":"""",""L2fluency"":"""",""L3name"":"""",""L3fluency"":"""",""L4name"":"""",""L4fluency"":""""}","","","additional-languages","{""L2name"":"""",""L2fluency"":"""",""L3name"":"""",""L3fluency"":"""",""L4name"":"""",""L4fluency"":""""}"
"survey-multi-choice","101","2008950","0.0-10.0-2.0","ddb6b0997c7940e6b58932b3ef6445d2facde761490adef9dfc2ee0c80dedeb7","swim","arctic","2334","","","","","","","survey","","","","","","","","","","","","","{""Q0"":""No""}","","","hearing-aid","No"
"survey-multi-choice","102","2012689","0.0-10.0-3.0","ddb6b0997c7940e6b58932b3ef6445d2facde761490adef9dfc2ee0c80dedeb7","swim","arctic","3483","","","","","","","survey","","","","","","","","","","","","","{""Q0"":""Sometimes""}","","","ringing-ears","Sometimes"
"survey-multi-choice","103","2014876","0.0-10.0-4.0-0.0","ddb6b0997c7940e6b58932b3ef6445d2facde761490adef9dfc2ee0c80dedeb7","swim","arctic","1927","","","","","","","survey","","","","","","","","","","","","","{""Q0"":""Both Ears""}","","","ringing-ear-loc","Both Ears"
"survey-multi-choice","104","2017168","0.0-10.0-5.0","ddb6b0997c7940e6b58932b3ef6445d2facde761490adef9dfc2ee0c80dedeb7","swim","arctic","2039","","","","","","","survey","","","","","","","","","","","","","{""Q0"":""No""}","","","neuro-disease","No"
"survey-multi-choice","105","2020253","0.0-10.0-7.0","ddb6b0997c7940e6b58932b3ef6445d2facde761490adef9dfc2ee0c80dedeb7","swim","arctic","2828","","","","","","","survey","","","","","","","","","","","","","{""Q0"":""No""}","","","take-meds","No"
"survey-text","106","2023272","0.0-10.0-9.0","ddb6b0997c7940e6b58932b3ef6445d2facde761490adef9dfc2ee0c80dedeb7","swim","arctic","2760","","","","","","","survey","","","","","","","","","","","","","{""HC"":""""}","","","health-concerns",""
"html-button-response","107","2026913","0.0-11.0-0.0","ddb6b0997c7940e6b58932b3ef6445d2facde761490adef9dfc2ee0c80dedeb7","swim","arctic","3378","","<p>How would you describe your musical skills/experiences?</p>","1","","","","survey","","","","","","","","","","","","","","","","music-skill","2"
"survey-multi-choice","108","2030332","0.0-11.0-1.0","ddb6b0997c7940e6b58932b3ef6445d2facde761490adef9dfc2ee0c80dedeb7","swim","arctic","3164","","","","","","","survey","","","","","","","","","","","","","{""Q0"":""No""}","","","music-instrument","No"
"html-button-response","109","2035373","0.0-12.0-0.0","ddb6b0997c7940e6b58932b3ef6445d2facde761490adef9dfc2ee0c80dedeb7","swim","arctic","4784","","<p>How would you describe your general hearing abilities?</p>","3","","","","survey","","","","","","","","","","","","","","","","ssq-01","4"
"html-button-response","110","2045344","0.0-12.0-1.0","ddb6b0997c7940e6b58932b3ef6445d2facde761490adef9dfc2ee0c80dedeb7","swim","arctic","9716","","<p>When you talk with someone at a place that strongly reverberates/echoes (e.g., in a church or train station),</br>can you understand what the person says?</p>","8","","","","survey","","","","","","","","","","","","","","","","ssq-02","8"
"html-button-response","111","2048481","0.0-12.0-2.0","ddb6b0997c7940e6b58932b3ef6445d2facde761490adef9dfc2ee0c80dedeb7","swim","arctic","2877","","<p>When you are with a group (~5 people) in a lively restaurant, can you follow the group's conversation?</p>","7","","","","survey","","","","","","","","","","","","","","","","ssq-03","7"
"html-button-response","112","2054467","0.0-12.0-3.0","ddb6b0997c7940e6b58932b3ef6445d2facde761490adef9dfc2ee0c80dedeb7","swim","arctic","5731","","<p>Based on the sound of a bus or truck, can you tell whether it is moving towards or away from you?</p>","9","","","","survey","","","","","","","","","","","","","","","","ssq-04","9"
"html-button-response","113","2058470","0.0-12.0-4.0","ddb6b0997c7940e6b58932b3ef6445d2facde761490adef9dfc2ee0c80dedeb7","swim","arctic","3749","","<p>When you are in an unknown environment, can you tell from which direction a brief sound originates?</p>","9","","","","survey","","","","","","","","","","","","","","","","ssq-05","9"
"html-button-response","114","2065437","0.0-12.0-5.0","ddb6b0997c7940e6b58932b3ef6445d2facde761490adef9dfc2ee0c80dedeb7","swim","arctic","6710","","<p>Are you able to ignore distracting sounds when you concentrate on a specific aspect of your acoustic surrounding?</p>","5","","","","survey","","","","","","","","","","","","","","","","ssq-06","5"
"fullscreen","115","2066701","0.0-13.0","ddb6b0997c7940e6b58932b3ef6445d2facde761490adef9dfc2ee0c80dedeb7","swim","arctic","","","","","","","","","true","","","","","","","","","","","","","","","",""
