"trial_type","trial_index","time_elapsed","internal_node_id","ParticipantID","firstStory","scramStory","rt","url","stimulus","button_pressed","key_press","correctRESP","correct","designation","success","letterStim","letterType","ONSET","TIMEOUT","CONDITION","Participant","ONSET_ACTUAL","RT","RESP","ACC","STORY","responses","response","type","surveyQuestion","QRESP"
"pavlovia","0","5","0.0-0.0","1fc5e3b02c98fae7db80273041975b9b018157b7b7fe74ac500132f781c98ee3","swim","arctic","","","","","","","","","","","","","","","","","","","","","","","","",""
"external-html","1","3252","0.0-1.0","1fc5e3b02c98fae7db80273041975b9b018157b7b7fe74ac500132f781c98ee3","swim","arctic","3132","consent/consent_updated.html","","","","","","","","","","","","","","","","","","","","","","",""
"html-button-response","2","6086","0.0-2.0-0.0","1fc5e3b02c98fae7db80273041975b9b018157b7b7fe74ac500132f781c98ee3","swim","arctic","2834","","<p>Before we begin the main task, you will complete a short volume calibration and headphone check.</p><p>Please make sure you are in a quiet listening environment, that you are wearing headphones, and that your computer's volume is turned on.<p></p>","0","","","","","","","","","","","","","","","","","","","","",""
"html-button-response","3","8840","0.0-2.0-1.0","1fc5e3b02c98fae7db80273041975b9b018157b7b7fe74ac500132f781c98ee3","swim","arctic","2499","","<p>The volume calibration will be first.</p><p>You will hear a thirty-second noise. Please adjust your computer's volume so that this noise is being presented at a comfortable level.<p></p>","0","","","","","","","","","","","","","","","","","","","","",""
"audio-button-response","4","13221","0.0-2.0-2.0","1fc5e3b02c98fae7db80273041975b9b018157b7b7fe74ac500132f781c98ee3","swim","arctic","4123","","audio/volumetest.mp3","0","","","","","","","","","","","","","","","","","","","","",""
"html-keyboard-response","5","20676","0.0-3.0-0.0","1fc5e3b02c98fae7db80273041975b9b018157b7b7fe74ac500132f781c98ee3","swim","arctic","7453","","<p>You will now complete a short headphone check.</p><p>On each trial, you will hear three tones. One of these tones will be quieter than the others. Your task is to identify whether the quiet tone occurred first, second, or third.</p><p>There are six trials in total.<p></p><p></p>(Press SPACEBAR to begin)","","32","","","","","","","","","","","","","","","","","","","",""
"html-keyboard-response","6","21439","0.0-3.0-1.0-0.0","1fc5e3b02c98fae7db80273041975b9b018157b7b7fe74ac500132f781c98ee3","swim","arctic","null","","<div style=""font-size:60px;"">+</div>","","null","","","","","","","","","","","","","","","","","","","",""
"audio-button-response","7","25633","0.0-3.0-1.0-1.0","1fc5e3b02c98fae7db80273041975b9b018157b7b7fe74ac500132f781c98ee3","swim","arctic","4192","","audio/t3_2.mp3","2","","2","1","headphone-test","","","","","","","","","","","","","","","","",""
"html-keyboard-response","8","26138","0.0-3.0-1.0-2.0","1fc5e3b02c98fae7db80273041975b9b018157b7b7fe74ac500132f781c98ee3","swim","arctic","null","","<p>Correct</p>","","null","","","","","","","","","","","","","","","","","","","",""
"html-keyboard-response","9","26651","0.0-3.0-1.0-0.1","1fc5e3b02c98fae7db80273041975b9b018157b7b7fe74ac500132f781c98ee3","swim","arctic","null","","<div style=""font-size:60px;"">+</div>","","null","","","","","","","","","","","","","","","","","","","",""
"audio-button-response","10","30511","0.0-3.0-1.0-1.1","1fc5e3b02c98fae7db80273041975b9b018157b7b7fe74ac500132f781c98ee3","swim","arctic","3858","","audio/t2_2.mp3","1","","1","1","headphone-test","","","","","","","","","","","","","","","","",""
"html-keyboard-response","11","31018","0.0-3.0-1.0-2.1","1fc5e3b02c98fae7db80273041975b9b018157b7b7fe74ac500132f781c98ee3","swim","arctic","null","","<p>Correct</p>","","null","","","","","","","","","","","","","","","","","","","",""
"html-keyboard-response","12","31534","0.0-3.0-1.0-0.2","1fc5e3b02c98fae7db80273041975b9b018157b7b7fe74ac500132f781c98ee3","swim","arctic","null","","<div style=""font-size:60px;"">+</div>","","null","","","","","","","","","","","","","","","","","","","",""
"audio-button-response","13","35803","0.0-3.0-1.0-1.2","1fc5e3b02c98fae7db80273041975b9b018157b7b7fe74ac500132f781c98ee3","swim","arctic","4267","","audio/t2_1.mp3","1","","1","1","headphone-test","","","","","","","","","","","","","","","","",""
"html-keyboard-response","14","36305","0.0-3.0-1.0-2.2","1fc5e3b02c98fae7db80273041975b9b018157b7b7fe74ac500132f781c98ee3","swim","arctic","null","","<p>Correct</p>","","null","","","","","","","","","","","","","","","","","","","",""
"html-keyboard-response","15","36807","0.0-3.0-1.0-0.3","1fc5e3b02c98fae7db80273041975b9b018157b7b7fe74ac500132f781c98ee3","swim","arctic","null","","<div style=""font-size:60px;"">+</div>","","null","","","","","","","","","","","","","","","","","","","",""
"audio-button-response","16","40836","0.0-3.0-1.0-1.3","1fc5e3b02c98fae7db80273041975b9b018157b7b7fe74ac500132f781c98ee3","swim","arctic","4028","","audio/t3_1.mp3","2","","2","1","headphone-test","","","","","","","","","","","","","","","","",""
"html-keyboard-response","17","41337","0.0-3.0-1.0-2.3","1fc5e3b02c98fae7db80273041975b9b018157b7b7fe74ac500132f781c98ee3","swim","arctic","null","","<p>Correct</p>","","null","","","","","","","","","","","","","","","","","","","",""
"html-keyboard-response","18","41839","0.0-3.0-1.0-0.4","1fc5e3b02c98fae7db80273041975b9b018157b7b7fe74ac500132f781c98ee3","swim","arctic","null","","<div style=""font-size:60px;"">+</div>","","null","","","","","","","","","","","","","","","","","","","",""
"audio-button-response","19","46046","0.0-3.0-1.0-1.4","1fc5e3b02c98fae7db80273041975b9b018157b7b7fe74ac500132f781c98ee3","swim","arctic","4206","","audio/t1_2.mp3","0","","0","1","headphone-test","","","","","","","","","","","","","","","","",""
"html-keyboard-response","20","46549","0.0-3.0-1.0-2.4","1fc5e3b02c98fae7db80273041975b9b018157b7b7fe74ac500132f781c98ee3","swim","arctic","null","","<p>Correct</p>","","null","","","","","","","","","","","","","","","","","","","",""
"html-keyboard-response","21","47063","0.0-3.0-1.0-0.5","1fc5e3b02c98fae7db80273041975b9b018157b7b7fe74ac500132f781c98ee3","swim","arctic","null","","<div style=""font-size:60px;"">+</div>","","null","","","","","","","","","","","","","","","","","","","",""
"audio-button-response","22","50880","0.0-3.0-1.0-1.5","1fc5e3b02c98fae7db80273041975b9b018157b7b7fe74ac500132f781c98ee3","swim","arctic","3814","","audio/t1_1.mp3","0","","0","1","headphone-test","","","","","","","","","","","","","","","","",""
"html-keyboard-response","23","51381","0.0-3.0-1.0-2.5","1fc5e3b02c98fae7db80273041975b9b018157b7b7fe74ac500132f781c98ee3","swim","arctic","null","","<p>Correct</p>","","null","","","","","","","","","","","","","","","","","","","",""
"fullscreen","24","53495","0.0-4.0","1fc5e3b02c98fae7db80273041975b9b018157b7b7fe74ac500132f781c98ee3","swim","arctic","","","","","","","","","true","","","","","","","","","","","","","","","",""
"html-button-response","25","58718","0.0-5.0-0.0","1fc5e3b02c98fae7db80273041975b9b018157b7b7fe74ac500132f781c98ee3","swim","arctic","5222","","<p>There are two blocks to this experiment.</p><p>In each block, you will hear a ~13.5 minute story. One of the stories will be scrambled. Please listen carefully to both stories and understand them as best you can.</p><p>After each story, you will be asked some questions to assess your comprehension.</p>","0","","","","","","","","","","","","","","","","","","","","",""
"html-button-response","26","66903","0.0-5.0-1.0","1fc5e3b02c98fae7db80273041975b9b018157b7b7fe74ac500132f781c98ee3","swim","arctic","8185","","<p>During each story, there will be an additional task.</p><p>A letter will occasionally appear on the screen.</br>Your job is to - as quickly as you can - decide whether the letter is lowercase or uppercase and press one of two keys on the keyboard:</p><p>If the letter is <b>lowercase</b>, press key &lt;<b>x</b>&gt;.</p><p>If the letter is <b>uppercase</b>, press key &lt;<b>m</b>&gt;.</p>","0","","","","","","","","","","","","","","","","","","","","",""
"html-keyboard-response","27","71556","0.0-5.0-2.0","1fc5e3b02c98fae7db80273041975b9b018157b7b7fe74ac500132f781c98ee3","swim","arctic","4653","","<p>Because we want your responses to be as quick as possible, please keep your index fingers over the keys while listening.</p><p>Each block lasts about 20 minutes.</p><p><b>Press &lt;x&gt; or &lt;m&gt; to start the first block!</b></p>","","88","","","","","","","","","","","","","","","","","","","",""
"html-keyboard-response","28","72068","0.0-7.0-0.0-0.0","1fc5e3b02c98fae7db80273041975b9b018157b7b7fe74ac500132f781c98ee3","swim","arctic","null","","<div style=""font-size:60px;"" tabindex=""0"">+</div>","","null","","","","","","","","","","","","","","","","","","","",""
"dual-task","null","null","null","","swim","arctic","1692","","E","null","77","77","1","swim-dual-task","","E","uppercase","14000","0","3","1fc5e3b02c98fae7db80273041975b9b018157b7b7fe74ac500132f781c98ee3","14006.800000000745","1692","77","1","swim","","","","",""
"dual-task","null","null","null","","swim","arctic","1163.0999999977648","","G","null","77","77","1","swim-dual-task","","G","uppercase","20000","0","3","1fc5e3b02c98fae7db80273041975b9b018157b7b7fe74ac500132f781c98ee3","20007.60000000149","1163.0999999977648","77","1","swim","","","","",""
"dual-task","null","null","null","","swim","arctic","1117.0999999977648","","G","null","77","77","1","swim-dual-task","","G","uppercase","32000","0","3","1fc5e3b02c98fae7db80273041975b9b018157b7b7fe74ac500132f781c98ee3","32010.400000002235","1117.0999999977648","77","1","swim","","","","",""
"dual-task","null","null","null","","swim","arctic","1223.4000000022352","","h","null","88","88","1","swim-dual-task","","h","lowercase","44000","0","3","1fc5e3b02c98fae7db80273041975b9b018157b7b7fe74ac500132f781c98ee3","44006.900000002235","1223.4000000022352","88","1","swim","","","","",""
"dual-task","null","null","null","","swim","arctic","540.3000000007451","","f","null","88","88","1","swim-dual-task","","f","lowercase","56000","0","3","1fc5e3b02c98fae7db80273041975b9b018157b7b7fe74ac500132f781c98ee3","56013.800000000745","540.3000000007451","88","1","swim","","","","",""
"dual-task","null","null","null","","swim","arctic","546","","Q","null","77","77","1","swim-dual-task","","Q","uppercase","66000","0","3","1fc5e3b02c98fae7db80273041975b9b018157b7b7fe74ac500132f781c98ee3","66014.60000000149","546","77","1","swim","","","","",""
"dual-task","null","null","null","","swim","arctic","785.6999999992549","","r","null","88","88","1","swim-dual-task","","r","lowercase","80000","0","3","1fc5e3b02c98fae7db80273041975b9b018157b7b7fe74ac500132f781c98ee3","80009.40000000224","785.6999999992549","88","1","swim","","","","",""
"dual-task","null","null","null","","swim","arctic","914.8000000007451","","h","null","77","88","0","swim-dual-task","","h","lowercase","88000","0","3","1fc5e3b02c98fae7db80273041975b9b018157b7b7fe74ac500132f781c98ee3","88006.30000000075","914.8000000007451","77","0","swim","","","","",""
"dual-task","null","null","null","","swim","arctic","577.6999999992549","","r","null","88","88","1","swim-dual-task","","r","lowercase","96000","0","3","1fc5e3b02c98fae7db80273041975b9b018157b7b7fe74ac500132f781c98ee3","96007","577.6999999992549","88","1","swim","","","","",""
"dual-task","null","null","null","","swim","arctic","564.1000000014901","","T","null","77","77","1","swim-dual-task","","T","uppercase","106000","0","3","1fc5e3b02c98fae7db80273041975b9b018157b7b7fe74ac500132f781c98ee3","105999.80000000075","564.1000000014901","77","1","swim","","","","",""
"dual-task","null","null","null","","swim","arctic","542.9000000022352","","h","null","88","88","1","swim-dual-task","","h","lowercase","112000","0","3","1fc5e3b02c98fae7db80273041975b9b018157b7b7fe74ac500132f781c98ee3","112009.80000000075","542.9000000022352","88","1","swim","","","","",""
"dual-task","null","null","null","","swim","arctic","450","","D","null","77","77","1","swim-dual-task","","D","uppercase","120000","0","3","1fc5e3b02c98fae7db80273041975b9b018157b7b7fe74ac500132f781c98ee3","120004.5","450","77","1","swim","","","","",""
"dual-task","null","null","null","","swim","arctic","599.6999999992549","","N","null","77","77","1","swim-dual-task","","N","uppercase","134000","0","3","1fc5e3b02c98fae7db80273041975b9b018157b7b7fe74ac500132f781c98ee3","134008.30000000075","599.6999999992549","77","1","swim","","","","",""
"dual-task","null","null","null","","swim","arctic","992.2999999970198","","n","null","88","88","1","swim-dual-task","","n","lowercase","144000","0","3","1fc5e3b02c98fae7db80273041975b9b018157b7b7fe74ac500132f781c98ee3","144004.6000000015","992.2999999970198","88","1","swim","","","","",""
"dual-task","null","null","null","","swim","arctic","686.8000000007451","","F","null","77","77","1","swim-dual-task","","F","uppercase","152000","0","3","1fc5e3b02c98fae7db80273041975b9b018157b7b7fe74ac500132f781c98ee3","152002.5","686.8000000007451","77","1","swim","","","","",""
"dual-task","null","null","null","","swim","arctic","855.6000000014901","","R","null","77","77","1","swim-dual-task","","R","uppercase","164000","0","3","1fc5e3b02c98fae7db80273041975b9b018157b7b7fe74ac500132f781c98ee3","164012.30000000075","855.6000000014901","77","1","swim","","","","",""
"dual-task","null","null","null","","swim","arctic","501.5","","A","null","77","77","1","swim-dual-task","","A","uppercase","176000","0","3","1fc5e3b02c98fae7db80273041975b9b018157b7b7fe74ac500132f781c98ee3","176004.5","501.5","77","1","swim","","","","",""
"dual-task","null","null","null","","swim","arctic","NA","","n","null","NA","88","0","swim-dual-task","","n","lowercase","188000","1","3","1fc5e3b02c98fae7db80273041975b9b018157b7b7fe74ac500132f781c98ee3","188011.90000000224","NA","NA","0","swim","","","","",""
"dual-task","null","null","null","","swim","arctic","942.6000000014901","","q","null","77","88","0","swim-dual-task","","q","lowercase","198000","0","3","1fc5e3b02c98fae7db80273041975b9b018157b7b7fe74ac500132f781c98ee3","198008.80000000075","942.6000000014901","77","0","swim","","","","",""
"dual-task","null","null","null","","swim","arctic","617.9000000022352","","B","null","77","77","1","swim-dual-task","","B","uppercase","208000","0","3","1fc5e3b02c98fae7db80273041975b9b018157b7b7fe74ac500132f781c98ee3","208010","617.9000000022352","77","1","swim","","","","",""
"dual-task","null","null","null","","swim","arctic","451.30000000074506","","E","null","77","77","1","swim-dual-task","","E","uppercase","218000","0","3","1fc5e3b02c98fae7db80273041975b9b018157b7b7fe74ac500132f781c98ee3","218006.30000000075","451.30000000074506","77","1","swim","","","","",""
"dual-task","null","null","null","","swim","arctic","1250.699999999255","","q","null","88","88","1","swim-dual-task","","q","lowercase","228000","0","3","1fc5e3b02c98fae7db80273041975b9b018157b7b7fe74ac500132f781c98ee3","228011.30000000075","1250.699999999255","88","1","swim","","","","",""
"dual-task","null","null","null","","swim","arctic","861.5","","A","null","77","77","1","swim-dual-task","","A","uppercase","240000","0","3","1fc5e3b02c98fae7db80273041975b9b018157b7b7fe74ac500132f781c98ee3","240007.80000000075","861.5","77","1","swim","","","","",""
"dual-task","null","null","null","","swim","arctic","1025","","d","null","88","88","1","swim-dual-task","","d","lowercase","252000","0","3","1fc5e3b02c98fae7db80273041975b9b018157b7b7fe74ac500132f781c98ee3","252016","1025","88","1","swim","","","","",""
"dual-task","null","null","null","","swim","arctic","957.3000000007451","","g","null","88","88","1","swim-dual-task","","g","lowercase","260000","0","3","1fc5e3b02c98fae7db80273041975b9b018157b7b7fe74ac500132f781c98ee3","260002.6000000015","957.3000000007451","88","1","swim","","","","",""
"dual-task","null","null","null","","swim","arctic","823","","D","null","77","77","1","swim-dual-task","","D","uppercase","274000","0","3","1fc5e3b02c98fae7db80273041975b9b018157b7b7fe74ac500132f781c98ee3","274015.1000000015","823","77","1","swim","","","","",""
"dual-task","null","null","null","","swim","arctic","1770.3999999985099","","a","null","77","88","0","swim-dual-task","","a","lowercase","284000","0","3","1fc5e3b02c98fae7db80273041975b9b018157b7b7fe74ac500132f781c98ee3","284010.30000000075","1770.3999999985099","77","0","swim","","","","",""
"dual-task","null","null","null","","swim","arctic","1335.199999999255","","b","null","88","88","1","swim-dual-task","","b","lowercase","296000","0","3","1fc5e3b02c98fae7db80273041975b9b018157b7b7fe74ac500132f781c98ee3","296003.30000000075","1335.199999999255","88","1","swim","","","","",""
"dual-task","null","null","null","","swim","arctic","943.8999999985099","","b","null","88","88","1","swim-dual-task","","b","lowercase","310000","0","3","1fc5e3b02c98fae7db80273041975b9b018157b7b7fe74ac500132f781c98ee3","310012.200000003","943.8999999985099","88","1","swim","","","","",""
"dual-task","null","null","null","","swim","arctic","1365.1000000014901","","H","null","77","77","1","swim-dual-task","","H","uppercase","318000","0","3","1fc5e3b02c98fae7db80273041975b9b018157b7b7fe74ac500132f781c98ee3","318014.5","1365.1000000014901","77","1","swim","","","","",""
"dual-task","null","null","null","","swim","arctic","562.5","","q","null","88","88","1","swim-dual-task","","q","lowercase","328000","0","3","1fc5e3b02c98fae7db80273041975b9b018157b7b7fe74ac500132f781c98ee3","328015.40000000224","562.5","88","1","swim","","","","",""
"dual-task","null","null","null","","swim","arctic","548.8000000007451","","f","null","88","88","1","swim-dual-task","","f","lowercase","334000","0","3","1fc5e3b02c98fae7db80273041975b9b018157b7b7fe74ac500132f781c98ee3","334000.80000000075","548.8000000007451","88","1","swim","","","","",""
"dual-task","null","null","null","","swim","arctic","627.0999999977648","","b","null","88","88","1","swim-dual-task","","b","lowercase","344000","0","3","1fc5e3b02c98fae7db80273041975b9b018157b7b7fe74ac500132f781c98ee3","344011.200000003","627.0999999977648","88","1","swim","","","","",""
"dual-task","null","null","null","","swim","arctic","516.8999999985099","","N","null","77","77","1","swim-dual-task","","N","uppercase","352000","0","3","1fc5e3b02c98fae7db80273041975b9b018157b7b7fe74ac500132f781c98ee3","352006.1000000015","516.8999999985099","77","1","swim","","","","",""
"dual-task","null","null","null","","swim","arctic","405.80000000074506","","F","null","77","77","1","swim-dual-task","","F","uppercase","366000","0","3","1fc5e3b02c98fae7db80273041975b9b018157b7b7fe74ac500132f781c98ee3","366001.90000000224","405.80000000074506","77","1","swim","","","","",""
"dual-task","null","null","null","","swim","arctic","472.69999999925494","","N","null","77","77","1","swim-dual-task","","N","uppercase","374000","0","3","1fc5e3b02c98fae7db80273041975b9b018157b7b7fe74ac500132f781c98ee3","374010.80000000075","472.69999999925494","77","1","swim","","","","",""
"dual-task","null","null","null","","swim","arctic","439.80000000074506","","f","null","88","88","1","swim-dual-task","","f","lowercase","382000","0","3","1fc5e3b02c98fae7db80273041975b9b018157b7b7fe74ac500132f781c98ee3","382005.30000000075","439.80000000074506","88","1","swim","","","","",""
"dual-task","null","null","null","","swim","arctic","345.30000000074506","","R","null","77","77","1","swim-dual-task","","R","uppercase","392000","0","3","1fc5e3b02c98fae7db80273041975b9b018157b7b7fe74ac500132f781c98ee3","392002.5","345.30000000074506","77","1","swim","","","","",""
"dual-task","null","null","null","","swim","arctic","394","","F","null","77","77","1","swim-dual-task","","F","uppercase","400000","0","3","1fc5e3b02c98fae7db80273041975b9b018157b7b7fe74ac500132f781c98ee3","400007.200000003","394","77","1","swim","","","","",""
"dual-task","null","null","null","","swim","arctic","525.9000000022352","","t","null","88","88","1","swim-dual-task","","t","lowercase","414000","0","3","1fc5e3b02c98fae7db80273041975b9b018157b7b7fe74ac500132f781c98ee3","414005.200000003","525.9000000022352","88","1","swim","","","","",""
"dual-task","null","null","null","","swim","arctic","453.8999999985099","","G","null","77","77","1","swim-dual-task","","G","uppercase","424000","0","3","1fc5e3b02c98fae7db80273041975b9b018157b7b7fe74ac500132f781c98ee3","424003.6000000015","453.8999999985099","77","1","swim","","","","",""
"dual-task","null","null","null","","swim","arctic","503.3999999985099","","q","null","88","88","1","swim-dual-task","","q","lowercase","434000","0","3","1fc5e3b02c98fae7db80273041975b9b018157b7b7fe74ac500132f781c98ee3","434009.80000000075","503.3999999985099","88","1","swim","","","","",""
"dual-task","null","null","null","","swim","arctic","NA","","t","null","NA","88","0","swim-dual-task","","t","lowercase","446000","1","3","1fc5e3b02c98fae7db80273041975b9b018157b7b7fe74ac500132f781c98ee3","446015","NA","NA","0","swim","","","","",""
"dual-task","null","null","null","","swim","arctic","1145.3999999985099","","E","null","77","77","1","swim-dual-task","","E","uppercase","456000","0","3","1fc5e3b02c98fae7db80273041975b9b018157b7b7fe74ac500132f781c98ee3","456008.700000003","1145.3999999985099","77","1","swim","","","","",""
"dual-task","null","null","null","","swim","arctic","1756.2000000029802","","e","null","88","88","1","swim-dual-task","","e","lowercase","466000","0","3","1fc5e3b02c98fae7db80273041975b9b018157b7b7fe74ac500132f781c98ee3","466009.200000003","1756.2000000029802","88","1","swim","","","","",""
"dual-task","null","null","null","","swim","arctic","NA","","B","null","NA","77","0","swim-dual-task","","B","uppercase","478000","1","3","1fc5e3b02c98fae7db80273041975b9b018157b7b7fe74ac500132f781c98ee3","478000","NA","NA","0","swim","","","","",""
"dual-task","null","null","null","","swim","arctic","1358.300000000745","","E","null","77","77","1","swim-dual-task","","E","uppercase","488000","0","3","1fc5e3b02c98fae7db80273041975b9b018157b7b7fe74ac500132f781c98ee3","488015.1000000015","1358.300000000745","77","1","swim","","","","",""
"dual-task","null","null","null","","swim","arctic","NA","","f","null","NA","88","0","swim-dual-task","","f","lowercase","498000","1","3","1fc5e3b02c98fae7db80273041975b9b018157b7b7fe74ac500132f781c98ee3","498011","NA","NA","0","swim","","","","",""
"dual-task","null","null","null","","swim","arctic","NA","","A","null","NA","77","0","swim-dual-task","","A","uppercase","512000","1","3","1fc5e3b02c98fae7db80273041975b9b018157b7b7fe74ac500132f781c98ee3","512014.30000000075","NA","NA","0","swim","","","","",""
"dual-task","null","null","null","","swim","arctic","404.8999999985099","","g","null","77","88","0","swim-dual-task","","g","lowercase","518000","0","3","1fc5e3b02c98fae7db80273041975b9b018157b7b7fe74ac500132f781c98ee3","518016.200000003","404.8999999985099","77","0","swim","","","","",""
"dual-task","null","null","null","","swim","arctic","502.5","","d","null","88","88","1","swim-dual-task","","d","lowercase","524000","0","3","1fc5e3b02c98fae7db80273041975b9b018157b7b7fe74ac500132f781c98ee3","524001.40000000224","502.5","88","1","swim","","","","",""
"dual-task","null","null","null","","swim","arctic","411","","R","null","77","77","1","swim-dual-task","","R","uppercase","536000","0","3","1fc5e3b02c98fae7db80273041975b9b018157b7b7fe74ac500132f781c98ee3","536009.9000000022","411","77","1","swim","","","","",""
"dual-task","null","null","null","","swim","arctic","428","","e","null","88","88","1","swim-dual-task","","e","lowercase","550000","0","3","1fc5e3b02c98fae7db80273041975b9b018157b7b7fe74ac500132f781c98ee3","550008.200000003","428","88","1","swim","","","","",""
"dual-task","null","null","null","","swim","arctic","749.6000000014901","","n","null","88","88","1","swim-dual-task","","n","lowercase","556000","0","3","1fc5e3b02c98fae7db80273041975b9b018157b7b7fe74ac500132f781c98ee3","556014","749.6000000014901","88","1","swim","","","","",""
"dual-task","null","null","null","","swim","arctic","535.5","","Q","null","88","77","0","swim-dual-task","","Q","uppercase","562000","0","3","1fc5e3b02c98fae7db80273041975b9b018157b7b7fe74ac500132f781c98ee3","562001.4000000022","535.5","88","0","swim","","","","",""
"dual-task","null","null","null","","swim","arctic","903.8000000007451","","B","null","77","77","1","swim-dual-task","","B","uppercase","568000","0","3","1fc5e3b02c98fae7db80273041975b9b018157b7b7fe74ac500132f781c98ee3","568002.3000000007","903.8000000007451","77","1","swim","","","","",""
"dual-task","null","null","null","","swim","arctic","796.8000000007451","","a","null","88","88","1","swim-dual-task","","a","lowercase","580000","0","3","1fc5e3b02c98fae7db80273041975b9b018157b7b7fe74ac500132f781c98ee3","580007.5","796.8000000007451","88","1","swim","","","","",""
"dual-task","null","null","null","","swim","arctic","819.6000000014901","","B","null","77","77","1","swim-dual-task","","B","uppercase","590000","0","3","1fc5e3b02c98fae7db80273041975b9b018157b7b7fe74ac500132f781c98ee3","590007.5","819.6000000014901","77","1","swim","","","","",""
"dual-task","null","null","null","","swim","arctic","1031.8999999985099","","e","null","88","88","1","swim-dual-task","","e","lowercase","604000","0","3","1fc5e3b02c98fae7db80273041975b9b018157b7b7fe74ac500132f781c98ee3","604002.8000000007","1031.8999999985099","88","1","swim","","","","",""
"dual-task","null","null","null","","swim","arctic","1112.800000000745","","Q","null","77","77","1","swim-dual-task","","Q","uppercase","614000","0","3","1fc5e3b02c98fae7db80273041975b9b018157b7b7fe74ac500132f781c98ee3","614006.4000000022","1112.800000000745","77","1","swim","","","","",""
"dual-task","null","null","null","","swim","arctic","1026.800000000745","","A","null","77","77","1","swim-dual-task","","A","uppercase","624000","0","3","1fc5e3b02c98fae7db80273041975b9b018157b7b7fe74ac500132f781c98ee3","624013.9000000022","1026.800000000745","77","1","swim","","","","",""
"dual-task","null","null","null","","swim","arctic","NA","","r","null","NA","88","0","swim-dual-task","","r","lowercase","632000","1","3","1fc5e3b02c98fae7db80273041975b9b018157b7b7fe74ac500132f781c98ee3","632015.200000003","NA","NA","0","swim","","","","",""
"dual-task","null","null","null","","swim","arctic","749.6999999992549","","H","null","77","77","1","swim-dual-task","","H","uppercase","642000","0","3","1fc5e3b02c98fae7db80273041975b9b018157b7b7fe74ac500132f781c98ee3","642014.6000000015","749.6999999992549","77","1","swim","","","","",""
"dual-task","null","null","null","","swim","arctic","868.1999999992549","","H","null","77","77","1","swim-dual-task","","H","uppercase","648000","0","3","1fc5e3b02c98fae7db80273041975b9b018157b7b7fe74ac500132f781c98ee3","648001.200000003","868.1999999992549","77","1","swim","","","","",""
"dual-task","null","null","null","","swim","arctic","886.1000000014901","","T","null","77","77","1","swim-dual-task","","T","uppercase","660000","0","3","1fc5e3b02c98fae7db80273041975b9b018157b7b7fe74ac500132f781c98ee3","660009.5","886.1000000014901","77","1","swim","","","","",""
"dual-task","null","null","null","","swim","arctic","791.2000000029802","","t","null","88","88","1","swim-dual-task","","t","lowercase","670000","0","3","1fc5e3b02c98fae7db80273041975b9b018157b7b7fe74ac500132f781c98ee3","670005","791.2000000029802","88","1","swim","","","","",""
"dual-task","null","null","null","","swim","arctic","1266.199999999255","","d","null","88","88","1","swim-dual-task","","d","lowercase","680000","0","3","1fc5e3b02c98fae7db80273041975b9b018157b7b7fe74ac500132f781c98ee3","680003.8000000007","1266.199999999255","88","1","swim","","","","",""
"dual-task","null","null","null","","swim","arctic","579.5","","t","null","88","88","1","swim-dual-task","","t","lowercase","692000","0","3","1fc5e3b02c98fae7db80273041975b9b018157b7b7fe74ac500132f781c98ee3","692000.5","579.5","88","1","swim","","","","",""
"dual-task","null","null","null","","swim","arctic","425.8999999985099","","d","null","88","88","1","swim-dual-task","","d","lowercase","702000","0","3","1fc5e3b02c98fae7db80273041975b9b018157b7b7fe74ac500132f781c98ee3","702003.8000000007","425.8999999985099","88","1","swim","","","","",""
"dual-task","null","null","null","","swim","arctic","1117.5","","D","null","77","77","1","swim-dual-task","","D","uppercase","710000","0","3","1fc5e3b02c98fae7db80273041975b9b018157b7b7fe74ac500132f781c98ee3","710010.8000000007","1117.5","77","1","swim","","","","",""
"dual-task","null","null","null","","swim","arctic","1022.1999999992549","","n","null","88","88","1","swim-dual-task","","n","lowercase","718000","0","3","1fc5e3b02c98fae7db80273041975b9b018157b7b7fe74ac500132f781c98ee3","718013.8000000007","1022.1999999992549","88","1","swim","","","","",""
"dual-task","null","null","null","","swim","arctic","1300.1000000014901","","G","null","77","77","1","swim-dual-task","","G","uppercase","730000","0","3","1fc5e3b02c98fae7db80273041975b9b018157b7b7fe74ac500132f781c98ee3","730009.6000000015","1300.1000000014901","77","1","swim","","","","",""
"dual-task","null","null","null","","swim","arctic","1459.6000000014901","","T","null","77","77","1","swim-dual-task","","T","uppercase","742000","0","3","1fc5e3b02c98fae7db80273041975b9b018157b7b7fe74ac500132f781c98ee3","742001.4000000022","1459.6000000014901","77","1","swim","","","","",""
"dual-task","null","null","null","","swim","arctic","1016.1999999992549","","b","null","77","88","0","swim-dual-task","","b","lowercase","748000","0","3","1fc5e3b02c98fae7db80273041975b9b018157b7b7fe74ac500132f781c98ee3","748015.1000000015","1016.1999999992549","77","0","swim","","","","",""
"dual-task","null","null","null","","swim","arctic","450.30000000074506","","R","null","77","77","1","swim-dual-task","","R","uppercase","762000","0","3","1fc5e3b02c98fae7db80273041975b9b018157b7b7fe74ac500132f781c98ee3","762001","450.30000000074506","77","1","swim","","","","",""
"dual-task","null","null","null","","swim","arctic","510.6000000014901","","H","null","77","77","1","swim-dual-task","","H","uppercase","772000","0","3","1fc5e3b02c98fae7db80273041975b9b018157b7b7fe74ac500132f781c98ee3","772003.6000000015","510.6000000014901","77","1","swim","","","","",""
"dual-task","null","null","null","","swim","arctic","1025.1000000014901","","e","null","88","88","1","swim-dual-task","","e","lowercase","784000","0","3","1fc5e3b02c98fae7db80273041975b9b018157b7b7fe74ac500132f781c98ee3","784011.200000003","1025.1000000014901","88","1","swim","","","","",""
"dual-task","null","null","null","","swim","arctic","1162","","D","null","77","77","1","swim-dual-task","","D","uppercase","792000","0","3","1fc5e3b02c98fae7db80273041975b9b018157b7b7fe74ac500132f781c98ee3","792010.6000000015","1162","77","1","swim","","","","",""
"audio-keyboard-response","29","882106","0.0-7.0-0.0-1.0","1fc5e3b02c98fae7db80273041975b9b018157b7b7fe74ac500132f781c98ee3","swim","arctic","null","","audio/story_swim.mp3","","null","","","","","","","","","","","","","","","","","","","",""
"html-button-response","30","1093635","0.0-7.0-0.0-2.0","1fc5e3b02c98fae7db80273041975b9b018157b7b7fe74ac500132f781c98ee3","swim","arctic","211528","","<p>This concludes the story. Thank you for listening.</p><p>You will now answer some questions about the content of the story.</p>","0","","","","","","","","","","","","","","","","","","","","",""
"survey-multi-choice","31","1107428","0.0-7.0-0.0-3.0-0.0","1fc5e3b02c98fae7db80273041975b9b018157b7b7fe74ac500132f781c98ee3","swim","arctic","13790","","<b>How did the narrator train for his swim test?</b>","","","","0","swim-comprehension","","","","","","","","","","","","","{""Q0"":""Signed up for a swim class""}","","","",""
"survey-multi-choice","32","1111807","0.0-7.0-0.0-3.0-0.1","1fc5e3b02c98fae7db80273041975b9b018157b7b7fe74ac500132f781c98ee3","swim","arctic","4124","","<b>What is the narrator afraid of, aside from the water?</b>","","","","1","swim-comprehension","","","","","","","","","","","","","{""Q0"":""Heights""}","","","",""
"survey-multi-choice","33","1119299","0.0-7.0-0.0-3.0-0.2","1fc5e3b02c98fae7db80273041975b9b018157b7b7fe74ac500132f781c98ee3","swim","arctic","7236","","<b>How many astronaut candidates reported for duty at the Johnson Space Center?</b>","","","","1","swim-comprehension","","","","","","","","","","","","","{""Q0"":""Forty-four""}","","","",""
"survey-multi-choice","34","1122617","0.0-7.0-0.0-3.0-0.3","1fc5e3b02c98fae7db80273041975b9b018157b7b7fe74ac500132f781c98ee3","swim","arctic","3059","","<b>Where is the home of naval aviation?</b>","","","","1","swim-comprehension","","","","","","","","","","","","","{""Q0"":""Pensacola""}","","","",""
"survey-multi-choice","35","1128656","0.0-7.0-0.0-3.0-0.4","1fc5e3b02c98fae7db80273041975b9b018157b7b7fe74ac500132f781c98ee3","swim","arctic","5783","","<b>How many times did the astronaut candidates have to complete the final exercise to pass?</b>","","","","1","swim-comprehension","","","","","","","","","","","","","{""Q0"":""Two""}","","","",""
"survey-multi-choice","36","1133449","0.0-7.0-0.0-3.0-0.5","1fc5e3b02c98fae7db80273041975b9b018157b7b7fe74ac500132f781c98ee3","swim","arctic","4534","","<b>How many astronaut candidates passed the first swim test?</b>","","","","1","swim-comprehension","","","","","","","","","","","","","{""Q0"":""All of them""}","","","",""
"survey-multi-choice","37","1140820","0.0-7.0-0.0-3.0-0.6","1fc5e3b02c98fae7db80273041975b9b018157b7b7fe74ac500132f781c98ee3","swim","arctic","7113","","<b>What were the astronaut candidates trained to do at the naval air station?</b>","","","","1","swim-comprehension","","","","","","","","","","","","","{""Q0"":""Eject out of aircraft and survive in water long enough to be rescued""}","","","",""
"survey-multi-choice","38","1146353","0.0-7.0-0.0-3.0-0.7","1fc5e3b02c98fae7db80273041975b9b018157b7b7fe74ac500132f781c98ee3","swim","arctic","5279","","<b>What gave the narrator his greatest feeling of accomplishment?</b>","","","","1","swim-comprehension","","","","","","","","","","","","","{""Q0"":""Passing the water survival course""}","","","",""
"survey-multi-choice","39","1151968","0.0-7.0-0.0-3.0-0.8","1fc5e3b02c98fae7db80273041975b9b018157b7b7fe74ac500132f781c98ee3","swim","arctic","5361","","<b>What was the final step of the first swim test in the pool?</b>","","","","1","swim-comprehension","","","","","","","","","","","","","{""Q0"":""Tread water with hands above the water""}","","","",""
"survey-multi-choice","40","1155725","0.0-7.0-0.0-3.0-0.9","1fc5e3b02c98fae7db80273041975b9b018157b7b7fe74ac500132f781c98ee3","swim","arctic","3500","","<b>How often does the narrator swim, now that he is a good swimmer?</b>","","","","1","swim-comprehension","","","","","","","","","","","","","{""Q0"":""Never swam again in his life""}","","","",""
"html-button-response","41","1157339","0.0-7.0-0.0-4.0","1fc5e3b02c98fae7db80273041975b9b018157b7b7fe74ac500132f781c98ee3","swim","arctic","1361","","<p>Thank you for your responses.</p><p>You will now answer some questions about your impressions of the story.</p>","0","","","","","","","","","","","","","","","","","","","","",""
"html-button-response","42","1160191","0.0-7.0-0.0-5.0-0.0","1fc5e3b02c98fae7db80273041975b9b018157b7b7fe74ac500132f781c98ee3","swim","arctic","2852","","MS1","2","","","","swim-engagement","","","","","","","","","","","","","","3","mental-sim","",""
"html-button-response","43","1162428","0.0-7.0-0.0-5.0-0.1","1fc5e3b02c98fae7db80273041975b9b018157b7b7fe74ac500132f781c98ee3","swim","arctic","1984","","EE4","3","","","","swim-engagement","","","","","","","","","","","","","","4","emo-engage","",""
"html-button-response","44","1168420","0.0-7.0-0.0-5.0-0.2","1fc5e3b02c98fae7db80273041975b9b018157b7b7fe74ac500132f781c98ee3","swim","arctic","5739","","A5","3","","","","swim-engagement","","","","","","","","","","","","","","4","absorption","",""
"html-button-response","45","1170613","0.0-7.0-0.0-5.0-0.3","1fc5e3b02c98fae7db80273041975b9b018157b7b7fe74ac500132f781c98ee3","swim","arctic","1940","","EE2","0","","","","swim-engagement","","","","","","","","","","","","","","1","emo-engage","",""
"html-button-response","46","1172635","0.0-7.0-0.0-5.0-0.4","1fc5e3b02c98fae7db80273041975b9b018157b7b7fe74ac500132f781c98ee3","swim","arctic","1769","","E6","3","","","","swim-engagement","","","","","","","","","","","","","","4","enjoyment","",""
"html-button-response","47","1175175","0.0-7.0-0.0-5.0-0.5","1fc5e3b02c98fae7db80273041975b9b018157b7b7fe74ac500132f781c98ee3","swim","arctic","2288","","EE3","2","","","","swim-engagement","","","","","","","","","","","","","","3","emo-engage","",""
"html-button-response","48","1177005","0.0-7.0-0.0-5.0-0.6","1fc5e3b02c98fae7db80273041975b9b018157b7b7fe74ac500132f781c98ee3","swim","arctic","1578","","A3","3","","","","swim-engagement","","","","","","","","","","","","","","4","absorption","",""
"html-button-response","49","1180316","0.0-7.0-0.0-5.0-0.7","1fc5e3b02c98fae7db80273041975b9b018157b7b7fe74ac500132f781c98ee3","swim","arctic","3059","","MS2","3","","","","swim-engagement","","","","","","","","","","","","","","4","mental-sim","",""
"html-button-response","50","1182205","0.0-7.0-0.0-5.0-0.8","1fc5e3b02c98fae7db80273041975b9b018157b7b7fe74ac500132f781c98ee3","swim","arctic","1635","","E10","4","","","","swim-engagement","","","","","","","","","","","","","","5","enjoyment","",""
"html-button-response","51","1185678","0.0-7.0-0.0-5.0-0.9","1fc5e3b02c98fae7db80273041975b9b018157b7b7fe74ac500132f781c98ee3","swim","arctic","3210","","EE1","3","","","","swim-engagement","","","","","","","","","","","","","","4","emo-engage","",""
"html-button-response","52","1187634","0.0-7.0-0.0-5.0-0.10","1fc5e3b02c98fae7db80273041975b9b018157b7b7fe74ac500132f781c98ee3","swim","arctic","1694","","E1","3","","","","swim-engagement","","","","","","","","","","","","","","4","enjoyment","",""
"html-button-response","53","1189708","0.0-7.0-0.0-5.0-0.11","1fc5e3b02c98fae7db80273041975b9b018157b7b7fe74ac500132f781c98ee3","swim","arctic","1821","","EE5","2","","","","swim-engagement","","","","","","","","","","","","","","3","emo-engage","",""
"html-button-response","54","1191700","0.0-7.0-0.0-5.0-0.12","1fc5e3b02c98fae7db80273041975b9b018157b7b7fe74ac500132f781c98ee3","swim","arctic","1739","","MS3","3","","","","swim-engagement","","","","","","","","","","","","","","4","mental-sim","",""
"html-button-response","55","1193693","0.0-7.0-0.0-5.0-0.13","1fc5e3b02c98fae7db80273041975b9b018157b7b7fe74ac500132f781c98ee3","swim","arctic","1739","","E7","4","","","","swim-engagement","","","","","","","","","","","","","","5","enjoyment","",""
"html-button-response","56","1196047","0.0-7.0-0.0-5.0-0.14","1fc5e3b02c98fae7db80273041975b9b018157b7b7fe74ac500132f781c98ee3","swim","arctic","2103","","A4","2","","","","swim-engagement","","","","","","","","","","","","","","3","absorption","",""
"html-button-response","57","1198032","0.0-7.0-0.0-5.0-0.15","1fc5e3b02c98fae7db80273041975b9b018157b7b7fe74ac500132f781c98ee3","swim","arctic","1732","","E8","0","","","","swim-engagement","","","","","","","","","","","","","","1","enjoyment","",""
"html-button-response","58","1200691","0.0-7.0-0.0-5.0-0.16","1fc5e3b02c98fae7db80273041975b9b018157b7b7fe74ac500132f781c98ee3","swim","arctic","2408","","A1","1","","","","swim-engagement","","","","","","","","","","","","","","2","absorption","",""
"html-button-response","59","1203202","0.0-7.0-0.0-5.0-0.17","1fc5e3b02c98fae7db80273041975b9b018157b7b7fe74ac500132f781c98ee3","swim","arctic","2247","","A2","4","","","","swim-engagement","","","","","","","","","","","","","","5","absorption","",""
"html-keyboard-response","60","1206508","0.0-7.0-1.0","1fc5e3b02c98fae7db80273041975b9b018157b7b7fe74ac500132f781c98ee3","swim","arctic","3053","","<p>Thank you for your responses. You will now listen to the second story.</p><p>Remember, as you listen to the story you will see letters appear on the screen.</br>As quickly as possible, press <b>&lt;x&gt;</b> if the letter is lowercase and <b>&lt;m&gt;</b> if the letter is uppercase.</p><p>Press <b>&lt;x&gt;</b> or <b>&lt;m&gt;</b> to begin listening!</p>","","88","","","","","","","","","","","","","","","","","","","",""
"html-keyboard-response","61","1207010","0.0-7.0-2.0-0.0","1fc5e3b02c98fae7db80273041975b9b018157b7b7fe74ac500132f781c98ee3","swim","arctic","null","","<div style=""font-size:60px;"" tabindex=""0"">+</div>","","null","","","","","","","","","","","","","","","","","","","",""
"dual-task","null","null","null","","swim","arctic","937.2999999970198","","E","null","77","77","1","arctic-dual-task","","E","uppercase","14000","0","3","1fc5e3b02c98fae7db80273041975b9b018157b7b7fe74ac500132f781c98ee3","14013","937.2999999970198","77","1","arctic","","","","",""
"dual-task","null","null","null","","swim","arctic","1229.7999999970198","","t","null","88","88","1","arctic-dual-task","","t","lowercase","28000","0","3","1fc5e3b02c98fae7db80273041975b9b018157b7b7fe74ac500132f781c98ee3","28008.39999999851","1229.7999999970198","88","1","arctic","","","","",""
"dual-task","null","null","null","","swim","arctic","447.4000000022352","","E","null","77","77","1","arctic-dual-task","","E","uppercase","38000","0","3","1fc5e3b02c98fae7db80273041975b9b018157b7b7fe74ac500132f781c98ee3","38012.800000000745","447.4000000022352","77","1","arctic","","","","",""
"dual-task","null","null","null","","swim","arctic","1005","","d","null","88","88","1","arctic-dual-task","","d","lowercase","50000","0","3","1fc5e3b02c98fae7db80273041975b9b018157b7b7fe74ac500132f781c98ee3","50001.60000000149","1005","88","1","arctic","","","","",""
"dual-task","null","null","null","","swim","arctic","527.7000000029802","","B","null","77","77","1","arctic-dual-task","","B","uppercase","58000","0","3","1fc5e3b02c98fae7db80273041975b9b018157b7b7fe74ac500132f781c98ee3","58014.300000000745","527.7000000029802","77","1","arctic","","","","",""
"dual-task","null","null","null","","swim","arctic","732.6999999992549","","R","null","77","77","1","arctic-dual-task","","R","uppercase","70000","0","3","1fc5e3b02c98fae7db80273041975b9b018157b7b7fe74ac500132f781c98ee3","70008.80000000075","732.6999999992549","77","1","arctic","","","","",""
"dual-task","null","null","null","","swim","arctic","781.5999999977648","","B","null","77","77","1","arctic-dual-task","","B","uppercase","84000","0","3","1fc5e3b02c98fae7db80273041975b9b018157b7b7fe74ac500132f781c98ee3","84005.80000000075","781.5999999977648","77","1","arctic","","","","",""
"dual-task","null","null","null","","swim","arctic","609.3000000007451","","Q","null","77","77","1","arctic-dual-task","","Q","uppercase","98000","0","3","1fc5e3b02c98fae7db80273041975b9b018157b7b7fe74ac500132f781c98ee3","98013.80000000075","609.3000000007451","77","1","arctic","","","","",""
"dual-task","null","null","null","","swim","arctic","1027.1000000014901","","a","null","88","88","1","arctic-dual-task","","a","lowercase","112000","0","3","1fc5e3b02c98fae7db80273041975b9b018157b7b7fe74ac500132f781c98ee3","112007","1027.1000000014901","88","1","arctic","","","","",""
"dual-task","null","null","null","","swim","arctic","1646.9000000022352","","D","null","77","77","1","arctic-dual-task","","D","uppercase","120000","0","3","1fc5e3b02c98fae7db80273041975b9b018157b7b7fe74ac500132f781c98ee3","120004.39999999851","1646.9000000022352","77","1","arctic","","","","",""
"dual-task","null","null","null","","swim","arctic","465.19999999925494","","H","null","77","77","1","arctic-dual-task","","H","uppercase","132000","0","3","1fc5e3b02c98fae7db80273041975b9b018157b7b7fe74ac500132f781c98ee3","132005.5","465.19999999925494","77","1","arctic","","","","",""
"dual-task","null","null","null","","swim","arctic","417.79999999701977","","B","null","77","77","1","arctic-dual-task","","B","uppercase","146000","0","3","1fc5e3b02c98fae7db80273041975b9b018157b7b7fe74ac500132f781c98ee3","146005.6000000015","417.79999999701977","77","1","arctic","","","","",""
"dual-task","null","null","null","","swim","arctic","1053.800000000745","","g","null","77","88","0","arctic-dual-task","","g","lowercase","154000","0","3","1fc5e3b02c98fae7db80273041975b9b018157b7b7fe74ac500132f781c98ee3","154011.5","1053.800000000745","77","0","arctic","","","","",""
"dual-task","null","null","null","","swim","arctic","447.80000000074506","","T","null","77","77","1","arctic-dual-task","","T","uppercase","164000","0","3","1fc5e3b02c98fae7db80273041975b9b018157b7b7fe74ac500132f781c98ee3","164014.19999999925","447.80000000074506","77","1","arctic","","","","",""
"dual-task","null","null","null","","swim","arctic","953","","q","null","88","88","1","arctic-dual-task","","q","lowercase","178000","0","3","1fc5e3b02c98fae7db80273041975b9b018157b7b7fe74ac500132f781c98ee3","178002.30000000075","953","88","1","arctic","","","","",""
"dual-task","null","null","null","","swim","arctic","959.2000000029802","","d","null","88","88","1","arctic-dual-task","","d","lowercase","186000","0","3","1fc5e3b02c98fae7db80273041975b9b018157b7b7fe74ac500132f781c98ee3","186012.80000000075","959.2000000029802","88","1","arctic","","","","",""
"dual-task","null","null","null","","swim","arctic","435.5999999977648","","G","null","77","77","1","arctic-dual-task","","G","uppercase","200000","0","3","1fc5e3b02c98fae7db80273041975b9b018157b7b7fe74ac500132f781c98ee3","200006","435.5999999977648","77","1","arctic","","","","",""
"dual-task","null","null","null","","swim","arctic","539.1000000014901","","A","null","77","77","1","arctic-dual-task","","A","uppercase","212000","0","3","1fc5e3b02c98fae7db80273041975b9b018157b7b7fe74ac500132f781c98ee3","212007.30000000075","539.1000000014901","77","1","arctic","","","","",""
"dual-task","null","null","null","","swim","arctic","1167","","h","null","88","88","1","arctic-dual-task","","h","lowercase","220000","0","3","1fc5e3b02c98fae7db80273041975b9b018157b7b7fe74ac500132f781c98ee3","220013.19999999925","1167","88","1","arctic","","","","",""
"dual-task","null","null","null","","swim","arctic","1152","","a","null","88","88","1","arctic-dual-task","","a","lowercase","234000","0","3","1fc5e3b02c98fae7db80273041975b9b018157b7b7fe74ac500132f781c98ee3","234013.3999999985","1152","88","1","arctic","","","","",""
"dual-task","null","null","null","","swim","arctic","927.8000000007451","","e","null","88","88","1","arctic-dual-task","","e","lowercase","246000","0","3","1fc5e3b02c98fae7db80273041975b9b018157b7b7fe74ac500132f781c98ee3","246007.80000000075","927.8000000007451","88","1","arctic","","","","",""
"dual-task","null","null","null","","swim","arctic","1023.9000000022352","","T","null","77","77","1","arctic-dual-task","","T","uppercase","256000","0","3","1fc5e3b02c98fae7db80273041975b9b018157b7b7fe74ac500132f781c98ee3","256000.30000000075","1023.9000000022352","77","1","arctic","","","","",""
"dual-task","null","null","null","","swim","arctic","NA","","D","null","NA","77","0","arctic-dual-task","","D","uppercase","264000","1","3","1fc5e3b02c98fae7db80273041975b9b018157b7b7fe74ac500132f781c98ee3","264013.6000000015","NA","NA","0","arctic","","","","",""
"dual-task","null","null","null","","swim","arctic","NA","","F","null","NA","77","0","arctic-dual-task","","F","uppercase","274000","1","3","1fc5e3b02c98fae7db80273041975b9b018157b7b7fe74ac500132f781c98ee3","274002.6000000015","NA","NA","0","arctic","","","","",""
"dual-task","null","null","null","","swim","arctic","1263.199999999255","","r","null","88","88","1","arctic-dual-task","","r","lowercase","286000","0","3","1fc5e3b02c98fae7db80273041975b9b018157b7b7fe74ac500132f781c98ee3","286008.5","1263.199999999255","88","1","arctic","","","","",""
"dual-task","null","null","null","","swim","arctic","1010","","h","null","88","88","1","arctic-dual-task","","h","lowercase","296000","0","3","1fc5e3b02c98fae7db80273041975b9b018157b7b7fe74ac500132f781c98ee3","296007.6000000015","1010","88","1","arctic","","","","",""
"dual-task","null","null","null","","swim","arctic","1129","","r","null","88","88","1","arctic-dual-task","","r","lowercase","306000","0","3","1fc5e3b02c98fae7db80273041975b9b018157b7b7fe74ac500132f781c98ee3","306012.69999999925","1129","88","1","arctic","","","","",""
"dual-task","null","null","null","","swim","arctic","697.3999999985099","","F","null","77","77","1","arctic-dual-task","","F","uppercase","314000","0","3","1fc5e3b02c98fae7db80273041975b9b018157b7b7fe74ac500132f781c98ee3","314006.1000000015","697.3999999985099","77","1","arctic","","","","",""
"dual-task","null","null","null","","swim","arctic","NA","","F","null","NA","77","0","arctic-dual-task","","F","uppercase","326000","1","3","1fc5e3b02c98fae7db80273041975b9b018157b7b7fe74ac500132f781c98ee3","326012.19999999925","NA","NA","0","arctic","","","","",""
"dual-task","null","null","null","","swim","arctic","NA","","N","null","NA","77","0","arctic-dual-task","","N","uppercase","334000","1","3","1fc5e3b02c98fae7db80273041975b9b018157b7b7fe74ac500132f781c98ee3","334010.30000000075","NA","NA","0","arctic","","","","",""
"dual-task","null","null","null","","swim","arctic","403.29999999701977","","G","null","77","77","1","arctic-dual-task","","G","uppercase","346000","0","3","1fc5e3b02c98fae7db80273041975b9b018157b7b7fe74ac500132f781c98ee3","346002.6000000015","403.29999999701977","77","1","arctic","","","","",""
"dual-task","null","null","null","","swim","arctic","956.6000000014901","","R","null","77","77","1","arctic-dual-task","","R","uppercase","356000","0","3","1fc5e3b02c98fae7db80273041975b9b018157b7b7fe74ac500132f781c98ee3","356014.5","956.6000000014901","77","1","arctic","","","","",""
"dual-task","null","null","null","","swim","arctic","NA","","e","null","NA","88","0","arctic-dual-task","","e","lowercase","366000","1","3","1fc5e3b02c98fae7db80273041975b9b018157b7b7fe74ac500132f781c98ee3","366008.19999999925","NA","NA","0","arctic","","","","",""
"dual-task","null","null","null","","swim","arctic","1026","","h","null","88","88","1","arctic-dual-task","","h","lowercase","376000","0","3","1fc5e3b02c98fae7db80273041975b9b018157b7b7fe74ac500132f781c98ee3","376002.6000000015","1026","88","1","arctic","","","","",""
"dual-task","null","null","null","","swim","arctic","NA","","q","null","NA","88","0","arctic-dual-task","","q","lowercase","386000","1","3","1fc5e3b02c98fae7db80273041975b9b018157b7b7fe74ac500132f781c98ee3","386002.1000000015","NA","NA","0","arctic","","","","",""
"dual-task","null","null","null","","swim","arctic","NA","","G","null","NA","77","0","arctic-dual-task","","G","uppercase","398000","1","3","1fc5e3b02c98fae7db80273041975b9b018157b7b7fe74ac500132f781c98ee3","398006.3999999985","NA","NA","0","arctic","","","","",""
"dual-task","null","null","null","","swim","arctic","666.3000000007451","","H","null","77","77","1","arctic-dual-task","","H","uppercase","404000","0","3","1fc5e3b02c98fae7db80273041975b9b018157b7b7fe74ac500132f781c98ee3","404007","666.3000000007451","77","1","arctic","","","","",""
"dual-task","null","null","null","","swim","arctic","1656.300000000745","","A","null","77","77","1","arctic-dual-task","","A","uppercase","418000","0","3","1fc5e3b02c98fae7db80273041975b9b018157b7b7fe74ac500132f781c98ee3","418015.8999999985","1656.300000000745","77","1","arctic","","","","",""
"dual-task","null","null","null","","swim","arctic","NA","","e","null","NA","88","0","arctic-dual-task","","e","lowercase","424000","1","3","1fc5e3b02c98fae7db80273041975b9b018157b7b7fe74ac500132f781c98ee3","424006.19999999925","NA","NA","0","arctic","","","","",""
"dual-task","null","null","null","","swim","arctic","522.3999999985099","","E","null","77","77","1","arctic-dual-task","","E","uppercase","436000","0","3","1fc5e3b02c98fae7db80273041975b9b018157b7b7fe74ac500132f781c98ee3","436008.30000000075","522.3999999985099","77","1","arctic","","","","",""
"dual-task","null","null","null","","swim","arctic","NA","","n","null","NA","88","0","arctic-dual-task","","n","lowercase","446000","1","3","1fc5e3b02c98fae7db80273041975b9b018157b7b7fe74ac500132f781c98ee3","446007.1000000015","NA","NA","0","arctic","","","","",""
"dual-task","null","null","null","","swim","arctic","600.3000000007451","","N","null","77","77","1","arctic-dual-task","","N","uppercase","452000","0","3","1fc5e3b02c98fae7db80273041975b9b018157b7b7fe74ac500132f781c98ee3","452006","600.3000000007451","77","1","arctic","","","","",""
"dual-task","null","null","null","","swim","arctic","1444.699999999255","","t","null","88","88","1","arctic-dual-task","","t","lowercase","460000","0","3","1fc5e3b02c98fae7db80273041975b9b018157b7b7fe74ac500132f781c98ee3","460010.3999999985","1444.699999999255","88","1","arctic","","","","",""
"dual-task","null","null","null","","swim","arctic","1941.5","","g","null","88","88","1","arctic-dual-task","","g","lowercase","468000","0","3","1fc5e3b02c98fae7db80273041975b9b018157b7b7fe74ac500132f781c98ee3","468010.3999999985","1941.5","88","1","arctic","","","","",""
"dual-task","null","null","null","","swim","arctic","1669.699999999255","","f","null","88","88","1","arctic-dual-task","","f","lowercase","474000","0","3","1fc5e3b02c98fae7db80273041975b9b018157b7b7fe74ac500132f781c98ee3","474013.5","1669.699999999255","88","1","arctic","","","","",""
"dual-task","null","null","null","","swim","arctic","956.8999999985099","","d","null","88","88","1","arctic-dual-task","","d","lowercase","484000","0","3","1fc5e3b02c98fae7db80273041975b9b018157b7b7fe74ac500132f781c98ee3","484003.1000000015","956.8999999985099","88","1","arctic","","","","",""
"dual-task","null","null","null","","swim","arctic","1941","","e","null","88","88","1","arctic-dual-task","","e","lowercase","498000","0","3","1fc5e3b02c98fae7db80273041975b9b018157b7b7fe74ac500132f781c98ee3","498013.1000000015","1941","88","1","arctic","","","","",""
"dual-task","null","null","null","","swim","arctic","1863.800000000745","","f","null","88","88","1","arctic-dual-task","","f","lowercase","504000","0","3","1fc5e3b02c98fae7db80273041975b9b018157b7b7fe74ac500132f781c98ee3","504004.69999999925","1863.800000000745","88","1","arctic","","","","",""
"dual-task","null","null","null","","swim","arctic","1550.199999999255","","a","null","88","88","1","arctic-dual-task","","a","lowercase","512000","0","3","1fc5e3b02c98fae7db80273041975b9b018157b7b7fe74ac500132f781c98ee3","512001.19999999925","1550.199999999255","88","1","arctic","","","","",""
"dual-task","null","null","null","","swim","arctic","NA","","b","null","NA","88","0","arctic-dual-task","","b","lowercase","518000","1","3","1fc5e3b02c98fae7db80273041975b9b018157b7b7fe74ac500132f781c98ee3","518013.1000000015","NA","NA","0","arctic","","","","",""
"dual-task","null","null","null","","swim","arctic","784.5","","D","null","77","77","1","arctic-dual-task","","D","uppercase","528000","0","3","1fc5e3b02c98fae7db80273041975b9b018157b7b7fe74ac500132f781c98ee3","528003","784.5","77","1","arctic","","","","",""
"dual-task","null","null","null","","swim","arctic","491.5","","n","null","88","88","1","arctic-dual-task","","n","lowercase","536000","0","3","1fc5e3b02c98fae7db80273041975b9b018157b7b7fe74ac500132f781c98ee3","536006","491.5","88","1","arctic","","","","",""
"dual-task","null","null","null","","swim","arctic","608.1999999992549","","E","null","77","77","1","arctic-dual-task","","E","uppercase","548000","0","3","1fc5e3b02c98fae7db80273041975b9b018157b7b7fe74ac500132f781c98ee3","548012.1000000015","608.1999999992549","77","1","arctic","","","","",""
"dual-task","null","null","null","","swim","arctic","343.79999999701977","","H","null","77","77","1","arctic-dual-task","","H","uppercase","556000","0","3","1fc5e3b02c98fae7db80273041975b9b018157b7b7fe74ac500132f781c98ee3","556012.1000000015","343.79999999701977","77","1","arctic","","","","",""
"dual-task","null","null","null","","swim","arctic","523.5999999977648","","D","null","77","77","1","arctic-dual-task","","D","uppercase","568000","0","3","1fc5e3b02c98fae7db80273041975b9b018157b7b7fe74ac500132f781c98ee3","568012.6000000015","523.5999999977648","77","1","arctic","","","","",""
"dual-task","null","null","null","","swim","arctic","1328.699999999255","","n","null","88","88","1","arctic-dual-task","","n","lowercase","576000","0","3","1fc5e3b02c98fae7db80273041975b9b018157b7b7fe74ac500132f781c98ee3","576013.1000000015","1328.699999999255","88","1","arctic","","","","",""
"dual-task","null","null","null","","swim","arctic","1690.800000000745","","N","null","77","77","1","arctic-dual-task","","N","uppercase","584000","0","3","1fc5e3b02c98fae7db80273041975b9b018157b7b7fe74ac500132f781c98ee3","584012.1999999993","1690.800000000745","77","1","arctic","","","","",""
"dual-task","null","null","null","","swim","arctic","1262.699999999255","","q","null","88","88","1","arctic-dual-task","","q","lowercase","592000","0","3","1fc5e3b02c98fae7db80273041975b9b018157b7b7fe74ac500132f781c98ee3","592008.5","1262.699999999255","88","1","arctic","","","","",""
"dual-task","null","null","null","","swim","arctic","817.5","","f","null","88","88","1","arctic-dual-task","","f","lowercase","600000","0","3","1fc5e3b02c98fae7db80273041975b9b018157b7b7fe74ac500132f781c98ee3","600006.3000000007","817.5","88","1","arctic","","","","",""
"dual-task","null","null","null","","swim","arctic","1081.6000000014901","","n","null","88","88","1","arctic-dual-task","","n","lowercase","614000","0","3","1fc5e3b02c98fae7db80273041975b9b018157b7b7fe74ac500132f781c98ee3","614015","1081.6000000014901","88","1","arctic","","","","",""
"dual-task","null","null","null","","swim","arctic","1239.1000000014901","","H","null","77","77","1","arctic-dual-task","","H","uppercase","622000","0","3","1fc5e3b02c98fae7db80273041975b9b018157b7b7fe74ac500132f781c98ee3","622012.1999999993","1239.1000000014901","77","1","arctic","","","","",""
"dual-task","null","null","null","","swim","arctic","1295.6000000014901","","a","null","88","88","1","arctic-dual-task","","a","lowercase","628000","0","3","1fc5e3b02c98fae7db80273041975b9b018157b7b7fe74ac500132f781c98ee3","628005.8999999985","1295.6000000014901","88","1","arctic","","","","",""
"dual-task","null","null","null","","swim","arctic","692.8000000007451","","Q","null","77","77","1","arctic-dual-task","","Q","uppercase","636000","0","3","1fc5e3b02c98fae7db80273041975b9b018157b7b7fe74ac500132f781c98ee3","636011.8000000007","692.8000000007451","77","1","arctic","","","","",""
"dual-task","null","null","null","","swim","arctic","1400.5999999977648","","A","null","77","77","1","arctic-dual-task","","A","uppercase","642000","0","3","1fc5e3b02c98fae7db80273041975b9b018157b7b7fe74ac500132f781c98ee3","642006.1000000015","1400.5999999977648","77","1","arctic","","","","",""
"dual-task","null","null","null","","swim","arctic","478.5","","F","null","77","77","1","arctic-dual-task","","F","uppercase","650000","0","3","1fc5e3b02c98fae7db80273041975b9b018157b7b7fe74ac500132f781c98ee3","650006.8000000007","478.5","77","1","arctic","","","","",""
"dual-task","null","null","null","","swim","arctic","1117","","b","null","88","88","1","arctic-dual-task","","b","lowercase","662000","0","3","1fc5e3b02c98fae7db80273041975b9b018157b7b7fe74ac500132f781c98ee3","662014.3999999985","1117","88","1","arctic","","","","",""
"dual-task","null","null","null","","swim","arctic","1072.5999999977648","","T","null","77","77","1","arctic-dual-task","","T","uppercase","668000","0","3","1fc5e3b02c98fae7db80273041975b9b018157b7b7fe74ac500132f781c98ee3","668006.1999999993","1072.5999999977648","77","1","arctic","","","","",""
"dual-task","null","null","null","","swim","arctic","1953.5","","q","null","88","88","1","arctic-dual-task","","q","lowercase","674000","0","3","1fc5e3b02c98fae7db80273041975b9b018157b7b7fe74ac500132f781c98ee3","674012.6000000015","1953.5","88","1","arctic","","","","",""
"dual-task","null","null","null","","swim","arctic","1161.4000000022352","","g","null","77","88","0","arctic-dual-task","","g","lowercase","682000","0","3","1fc5e3b02c98fae7db80273041975b9b018157b7b7fe74ac500132f781c98ee3","682008.1999999993","1161.4000000022352","77","0","arctic","","","","",""
"dual-task","null","null","null","","swim","arctic","NA","","d","null","NA","88","0","arctic-dual-task","","d","lowercase","696000","1","3","1fc5e3b02c98fae7db80273041975b9b018157b7b7fe74ac500132f781c98ee3","696001","NA","NA","0","arctic","","","","",""
"dual-task","null","null","null","","swim","arctic","889.3999999985099","","R","null","77","77","1","arctic-dual-task","","R","uppercase","704000","0","3","1fc5e3b02c98fae7db80273041975b9b018157b7b7fe74ac500132f781c98ee3","704006.6000000015","889.3999999985099","77","1","arctic","","","","",""
"dual-task","null","null","null","","swim","arctic","466.19999999925494","","T","null","77","77","1","arctic-dual-task","","T","uppercase","710000","0","3","1fc5e3b02c98fae7db80273041975b9b018157b7b7fe74ac500132f781c98ee3","710015.6999999993","466.19999999925494","77","1","arctic","","","","",""
"dual-task","null","null","null","","swim","arctic","609.3000000007451","","N","null","77","77","1","arctic-dual-task","","N","uppercase","722000","0","3","1fc5e3b02c98fae7db80273041975b9b018157b7b7fe74ac500132f781c98ee3","722004","609.3000000007451","77","1","arctic","","","","",""
"dual-task","null","null","null","","swim","arctic","520.3000000007451","","f","null","77","88","0","arctic-dual-task","","f","lowercase","730000","0","3","1fc5e3b02c98fae7db80273041975b9b018157b7b7fe74ac500132f781c98ee3","730011.6999999993","520.3000000007451","77","0","arctic","","","","",""
"dual-task","null","null","null","","swim","arctic","448.20000000298023","","B","null","77","77","1","arctic-dual-task","","B","uppercase","740000","0","3","1fc5e3b02c98fae7db80273041975b9b018157b7b7fe74ac500132f781c98ee3","740014.3999999985","448.20000000298023","77","1","arctic","","","","",""
"dual-task","null","null","null","","swim","arctic","422.8999999985099","","R","null","77","77","1","arctic-dual-task","","R","uppercase","750000","0","3","1fc5e3b02c98fae7db80273041975b9b018157b7b7fe74ac500132f781c98ee3","750008.1000000015","422.8999999985099","77","1","arctic","","","","",""
"dual-task","null","null","null","","swim","arctic","1009.6999999992549","","t","null","88","88","1","arctic-dual-task","","t","lowercase","758000","0","3","1fc5e3b02c98fae7db80273041975b9b018157b7b7fe74ac500132f781c98ee3","758002.1000000015","1009.6999999992549","88","1","arctic","","","","",""
"dual-task","null","null","null","","swim","arctic","447.80000000074506","","A","null","77","77","1","arctic-dual-task","","A","uppercase","772000","0","3","1fc5e3b02c98fae7db80273041975b9b018157b7b7fe74ac500132f781c98ee3","772011.6000000015","447.80000000074506","77","1","arctic","","","","",""
"dual-task","null","null","null","","swim","arctic","561.6000000014901","","g","null","88","88","1","arctic-dual-task","","g","lowercase","782000","0","3","1fc5e3b02c98fae7db80273041975b9b018157b7b7fe74ac500132f781c98ee3","782004.5","561.6000000014901","88","1","arctic","","","","",""
"audio-keyboard-response","62","2005075","0.0-7.0-2.0-1.0","1fc5e3b02c98fae7db80273041975b9b018157b7b7fe74ac500132f781c98ee3","swim","arctic","null","","audio/story_arctic_scrambled.mp3","","null","","","","","","","","","","","","","","","","","","","",""
"html-button-response","63","2007020","0.0-7.0-2.0-2.0","1fc5e3b02c98fae7db80273041975b9b018157b7b7fe74ac500132f781c98ee3","swim","arctic","1944","","<p>This concludes the story. Thank you for listening.</p><p>You will now answer some questions about the content of the story.</p>","0","","","","","","","","","","","","","","","","","","","","",""
"survey-multi-choice","64","2013052","0.0-7.0-2.0-3.0-0.0","1fc5e3b02c98fae7db80273041975b9b018157b7b7fe74ac500132f781c98ee3","swim","arctic","6029","","<b>What were the weather conditions in the Arctic like the winter of the narrator&#39;s expedition?</b>","","","","0","arctic-comprehension","","","","","","","","","","","","","{""Q0"":""It was the coldest winter in recorded history.""}","","","",""
"survey-multi-choice","65","2018298","0.0-7.0-2.0-3.0-0.1","1fc5e3b02c98fae7db80273041975b9b018157b7b7fe74ac500132f781c98ee3","swim","arctic","4988","","<b>How did the narrator&#39;s neighbour respond when she told him about her expedition?</b>","","","","1","arctic-comprehension","","","","","","","","","","","","","{""Q0"":""He said she was going to fail.""}","","","",""
"survey-multi-choice","66","2025136","0.0-7.0-2.0-3.0-0.2","1fc5e3b02c98fae7db80273041975b9b018157b7b7fe74ac500132f781c98ee3","swim","arctic","6564","","<b>What is the name of the narrator&#39;s neighbour?</b>","","","","0","arctic-comprehension","","","","","","","","","","","","","{""Q0"":""Doug""}","","","",""
"survey-multi-choice","67","2029322","0.0-7.0-2.0-3.0-0.3","1fc5e3b02c98fae7db80273041975b9b018157b7b7fe74ac500132f781c98ee3","swim","arctic","3929","","<b>What did the narrator do for leisure while in her tent?</b>","","","","1","arctic-comprehension","","","","","","","","","","","","","{""Q0"":""Read""}","","","",""
"survey-multi-choice","68","2033715","0.0-7.0-2.0-3.0-0.4","1fc5e3b02c98fae7db80273041975b9b018157b7b7fe74ac500132f781c98ee3","swim","arctic","4131","","<b>Which dog on the narrator&#39;s dog team never followed instructions?</b>","","","","0","arctic-comprehension","","","","","","","","","","","","","{""Q0"":""Douggie-dog""}","","","",""
"survey-multi-choice","69","2041299","0.0-7.0-2.0-3.0-0.5","1fc5e3b02c98fae7db80273041975b9b018157b7b7fe74ac500132f781c98ee3","swim","arctic","7324","","<b>What was the objective of the narrator&#39;s expedition?</b>","","","","1","arctic-comprehension","","","","","","","","","","","","","{""Q0"":""Dogsled across Arctic America""}","","","",""
"survey-multi-choice","70","2046958","0.0-7.0-2.0-3.0-0.6","1fc5e3b02c98fae7db80273041975b9b018157b7b7fe74ac500132f781c98ee3","swim","arctic","5406","","<b>How did the narrator&#39;s encounter with the polar bears end?</b>","","","","1","arctic-comprehension","","","","","","","","","","","","","{""Q0"":""The bears walked back to their den.""}","","","",""
"survey-multi-choice","71","2051136","0.0-7.0-2.0-3.0-0.7","1fc5e3b02c98fae7db80273041975b9b018157b7b7fe74ac500132f781c98ee3","swim","arctic","3922","","<b>How did the dogs respond when they saw the bears?</b>","","","","1","arctic-comprehension","","","","","","","","","","","","","{""Q0"":""Approached them""}","","","",""
"survey-multi-choice","72","2055750","0.0-7.0-2.0-3.0-0.8","1fc5e3b02c98fae7db80273041975b9b018157b7b7fe74ac500132f781c98ee3","swim","arctic","4359","","<b>How did the narrator prepare for her expedition?</b>","","","","1","arctic-comprehension","","","","","","","","","","","","","{""Q0"":""Trained in Alaska learning how to dogsled""}","","","",""
"survey-multi-choice","73","2061527","0.0-7.0-2.0-3.0-0.9","1fc5e3b02c98fae7db80273041975b9b018157b7b7fe74ac500132f781c98ee3","swim","arctic","5521","","<b>How many sponsorships did the narrator receive to support her expedition?</b>","","","","1","arctic-comprehension","","","","","","","","","","","","","{""Q0"":""None""}","","","",""
"html-button-response","74","2063245","0.0-7.0-2.0-4.0","1fc5e3b02c98fae7db80273041975b9b018157b7b7fe74ac500132f781c98ee3","swim","arctic","1466","","<p>Thank you for your responses.</p><p>You will now answer some questions about your impressions of the story.</p>","0","","","","","","","","","","","","","","","","","","","","",""
"html-button-response","75","2090032","0.0-7.0-2.0-5.0-0.0","1fc5e3b02c98fae7db80273041975b9b018157b7b7fe74ac500132f781c98ee3","swim","arctic","26786","","E6","1","","","","arctic-engagement","","","","","","","","","","","","","","2","enjoyment","",""
"html-button-response","76","2092083","0.0-7.0-2.0-5.0-0.1","1fc5e3b02c98fae7db80273041975b9b018157b7b7fe74ac500132f781c98ee3","swim","arctic","1799","","EE4","3","","","","arctic-engagement","","","","","","","","","","","","","","4","emo-engage","",""
"html-button-response","77","2093668","0.0-7.0-2.0-5.0-0.2","1fc5e3b02c98fae7db80273041975b9b018157b7b7fe74ac500132f781c98ee3","swim","arctic","1333","","EE3","1","","","","arctic-engagement","","","","","","","","","","","","","","2","emo-engage","",""
"html-button-response","78","2096617","0.0-7.0-2.0-5.0-0.3","1fc5e3b02c98fae7db80273041975b9b018157b7b7fe74ac500132f781c98ee3","swim","arctic","2696","","E10","3","","","","arctic-engagement","","","","","","","","","","","","","","4","enjoyment","",""
"html-button-response","79","2098312","0.0-7.0-2.0-5.0-0.4","1fc5e3b02c98fae7db80273041975b9b018157b7b7fe74ac500132f781c98ee3","swim","arctic","1442","","A3","2","","","","arctic-engagement","","","","","","","","","","","","","","3","absorption","",""
"html-button-response","80","2100208","0.0-7.0-2.0-5.0-0.5","1fc5e3b02c98fae7db80273041975b9b018157b7b7fe74ac500132f781c98ee3","swim","arctic","1645","","E8","0","","","","arctic-engagement","","","","","","","","","","","","","","1","enjoyment","",""
"html-button-response","81","2102208","0.0-7.0-2.0-5.0-0.6","1fc5e3b02c98fae7db80273041975b9b018157b7b7fe74ac500132f781c98ee3","swim","arctic","1746","","A5","2","","","","arctic-engagement","","","","","","","","","","","","","","3","absorption","",""
"html-button-response","82","2104534","0.0-7.0-2.0-5.0-0.7","1fc5e3b02c98fae7db80273041975b9b018157b7b7fe74ac500132f781c98ee3","swim","arctic","2072","","E1","2","","","","arctic-engagement","","","","","","","","","","","","","","3","enjoyment","",""
"html-button-response","83","2107141","0.0-7.0-2.0-5.0-0.8","1fc5e3b02c98fae7db80273041975b9b018157b7b7fe74ac500132f781c98ee3","swim","arctic","2353","","EE1","3","","","","arctic-engagement","","","","","","","","","","","","","","4","emo-engage","",""
"html-button-response","84","2109318","0.0-7.0-2.0-5.0-0.9","1fc5e3b02c98fae7db80273041975b9b018157b7b7fe74ac500132f781c98ee3","swim","arctic","1925","","MS2","3","","","","arctic-engagement","","","","","","","","","","","","","","4","mental-sim","",""
"html-button-response","85","2111933","0.0-7.0-2.0-5.0-0.10","1fc5e3b02c98fae7db80273041975b9b018157b7b7fe74ac500132f781c98ee3","swim","arctic","2362","","A2","4","","","","arctic-engagement","","","","","","","","","","","","","","5","absorption","",""
"html-button-response","86","2126982","0.0-7.0-2.0-5.0-0.11","1fc5e3b02c98fae7db80273041975b9b018157b7b7fe74ac500132f781c98ee3","swim","arctic","14795","","E7","3","","","","arctic-engagement","","","","","","","","","","","","","","4","enjoyment","",""
"html-button-response","87","2129685","0.0-7.0-2.0-5.0-0.12","1fc5e3b02c98fae7db80273041975b9b018157b7b7fe74ac500132f781c98ee3","swim","arctic","2449","","EE5","3","","","","arctic-engagement","","","","","","","","","","","","","","4","emo-engage","",""
"html-button-response","88","2132196","0.0-7.0-2.0-5.0-0.13","1fc5e3b02c98fae7db80273041975b9b018157b7b7fe74ac500132f781c98ee3","swim","arctic","2259","","A1","1","","","","arctic-engagement","","","","","","","","","","","","","","2","absorption","",""
"html-button-response","89","2133581","0.0-7.0-2.0-5.0-0.14","1fc5e3b02c98fae7db80273041975b9b018157b7b7fe74ac500132f781c98ee3","swim","arctic","1133","","EE2","3","","","","arctic-engagement","","","","","","","","","","","","","","4","emo-engage","",""
"html-button-response","90","2136337","0.0-7.0-2.0-5.0-0.15","1fc5e3b02c98fae7db80273041975b9b018157b7b7fe74ac500132f781c98ee3","swim","arctic","2503","","A4","1","","","","arctic-engagement","","","","","","","","","","","","","","2","absorption","",""
"html-button-response","91","2138491","0.0-7.0-2.0-5.0-0.16","1fc5e3b02c98fae7db80273041975b9b018157b7b7fe74ac500132f781c98ee3","swim","arctic","1902","","MS3","3","","","","arctic-engagement","","","","","","","","","","","","","","4","mental-sim","",""
"html-button-response","92","2140216","0.0-7.0-2.0-5.0-0.17","1fc5e3b02c98fae7db80273041975b9b018157b7b7fe74ac500132f781c98ee3","swim","arctic","1473","","MS1","3","","","","arctic-engagement","","","","","","","","","","","","","","4","mental-sim","",""
"html-button-response","93","2141661","0.0-8.0","1fc5e3b02c98fae7db80273041975b9b018157b7b7fe74ac500132f781c98ee3","swim","arctic","1193","","<p>Thank you for your responses.</p><p>You will now answer some demographic, hearing, and general health questions.</p>","0","","","","","","","","","","","","","","","","","","","","",""
"survey-multi-choice","94","2143994","0.0-9.0-0.0","1fc5e3b02c98fae7db80273041975b9b018157b7b7fe74ac500132f781c98ee3","swim","arctic","2331","","","","","","","survey","","","","","","","","","","","","","{""Q0"":""Chrome""}","","","browser",""
"survey-text","95","2148030","0.0-9.0-1.0","1fc5e3b02c98fae7db80273041975b9b018157b7b7fe74ac500132f781c98ee3","swim","arctic","3503.5","","","","","","","survey","","","","","","","","","","","","","{""AGE"":""29""}","","","age","29"
"survey-multi-choice","96","2150600","0.0-9.0-2.0","1fc5e3b02c98fae7db80273041975b9b018157b7b7fe74ac500132f781c98ee3","swim","arctic","2316","","","","","","","survey","","","","","","","","","","","","","{""Q0"":""Male""}","","","gender","Male"
"survey-multi-choice","97","2152933","0.0-9.0-4.0","1fc5e3b02c98fae7db80273041975b9b018157b7b7fe74ac500132f781c98ee3","swim","arctic","2079","","","","","","","survey","","","","","","","","","","","","","{""Q0"":""Right""}","","","handedness","Right"
"survey-multi-choice","98","2155266","0.0-9.0-5.0","1fc5e3b02c98fae7db80273041975b9b018157b7b7fe74ac500132f781c98ee3","swim","arctic","2075","","","","","","","survey","","","","","","","","","","","","","{""Q0"":""College Degree (2 years)""}","","","education","College Degree (2 years)"
"survey-text","99","2159376","0.0-10.0-0.0","1fc5e3b02c98fae7db80273041975b9b018157b7b7fe74ac500132f781c98ee3","swim","arctic","3855.099999997765","","","","","","","survey","","","","","","","","","","","","","{""L1"":""english""}","","","first-language","english"
"survey-text","100","2163747","0.0-10.0-1.0","1fc5e3b02c98fae7db80273041975b9b018157b7b7fe74ac500132f781c98ee3","swim","arctic","4106.60000000149","","","","","","","survey","","","","","","","","","","","","","{""L2name"":"""",""L2fluency"":"""",""L3name"":"""",""L3fluency"":"""",""L4name"":"""",""L4fluency"":""""}","","","additional-languages","{""L2name"":"""",""L2fluency"":"""",""L3name"":"""",""L3fluency"":"""",""L4name"":"""",""L4fluency"":""""}"
"survey-multi-choice","101","2167049","0.0-10.0-2.0","1fc5e3b02c98fae7db80273041975b9b018157b7b7fe74ac500132f781c98ee3","swim","arctic","3047","","","","","","","survey","","","","","","","","","","","","","{""Q0"":""No""}","","","hearing-aid","No"
"survey-multi-choice","102","2169848","0.0-10.0-3.0","1fc5e3b02c98fae7db80273041975b9b018157b7b7fe74ac500132f781c98ee3","swim","arctic","2543","","","","","","","survey","","","","","","","","","","","","","{""Q0"":""Sometimes""}","","","ringing-ears","Sometimes"
"survey-multi-choice","103","2173165","0.0-10.0-4.0-0.0","1fc5e3b02c98fae7db80273041975b9b018157b7b7fe74ac500132f781c98ee3","swim","arctic","3063","","","","","","","survey","","","","","","","","","","","","","{""Q0"":""Left Ear""}","","","ringing-ear-loc","Left Ear"
"survey-multi-choice","104","2176098","0.0-10.0-5.0","1fc5e3b02c98fae7db80273041975b9b018157b7b7fe74ac500132f781c98ee3","swim","arctic","2679","","","","","","","survey","","","","","","","","","","","","","{""Q0"":""No""}","","","neuro-disease","No"
"survey-multi-choice","105","2178727","0.0-10.0-7.0","1fc5e3b02c98fae7db80273041975b9b018157b7b7fe74ac500132f781c98ee3","swim","arctic","2376","","","","","","","survey","","","","","","","","","","","","","{""Q0"":""No""}","","","take-meds","No"
"survey-text","106","2182060","0.0-10.0-9.0","1fc5e3b02c98fae7db80273041975b9b018157b7b7fe74ac500132f781c98ee3","swim","arctic","3068.10000000149","","","","","","","survey","","","","","","","","","","","","","{""HC"":""""}","","","health-concerns",""
"html-button-response","107","2184170","0.0-11.0-0.0","1fc5e3b02c98fae7db80273041975b9b018157b7b7fe74ac500132f781c98ee3","swim","arctic","1858","","<p>How would you describe your musical skills/experiences?</p>","0","","","","survey","","","","","","","","","","","","","","","","music-skill","1"
"survey-multi-choice","108","2186354","0.0-11.0-1.0","1fc5e3b02c98fae7db80273041975b9b018157b7b7fe74ac500132f781c98ee3","swim","arctic","1931","","","","","","","survey","","","","","","","","","","","","","{""Q0"":""No""}","","","music-instrument","No"
"html-button-response","109","2190057","0.0-12.0-0.0","1fc5e3b02c98fae7db80273041975b9b018157b7b7fe74ac500132f781c98ee3","swim","arctic","3451","","<p>How would you describe your general hearing abilities?</p>","5","","","","survey","","","","","","","","","","","","","","","","ssq-01","6"
"html-button-response","110","2194796","0.0-12.0-1.0","1fc5e3b02c98fae7db80273041975b9b018157b7b7fe74ac500132f781c98ee3","swim","arctic","4487","","<p>When you talk with someone at a place that strongly reverberates/echoes (e.g., in a church or train station),</br>can you understand what the person says?</p>","8","","","","survey","","","","","","","","","","","","","","","","ssq-02","8"
"html-button-response","111","2197729","0.0-12.0-2.0","1fc5e3b02c98fae7db80273041975b9b018157b7b7fe74ac500132f781c98ee3","swim","arctic","2679","","<p>When you are with a group (~5 people) in a lively restaurant, can you follow the group's conversation?</p>","8","","","","survey","","","","","","","","","","","","","","","","ssq-03","8"
"html-button-response","112","2200365","0.0-12.0-3.0","1fc5e3b02c98fae7db80273041975b9b018157b7b7fe74ac500132f781c98ee3","swim","arctic","2384","","<p>Based on the sound of a bus or truck, can you tell whether it is moving towards or away from you?</p>","8","","","","survey","","","","","","","","","","","","","","","","ssq-04","8"
"html-button-response","113","2202298","0.0-12.0-4.0","1fc5e3b02c98fae7db80273041975b9b018157b7b7fe74ac500132f781c98ee3","swim","arctic","1680","","<p>When you are in an unknown environment, can you tell from which direction a brief sound originates?</p>","8","","","","survey","","","","","","","","","","","","","","","","ssq-05","8"
"html-button-response","114","2205482","0.0-12.0-5.0","1fc5e3b02c98fae7db80273041975b9b018157b7b7fe74ac500132f781c98ee3","swim","arctic","2931","","<p>Are you able to ignore distracting sounds when you concentrate on a specific aspect of your acoustic surrounding?</p>","7","","","","survey","","","","","","","","","","","","","","","","ssq-06","7"
"fullscreen","115","2206752","0.0-13.0","1fc5e3b02c98fae7db80273041975b9b018157b7b7fe74ac500132f781c98ee3","swim","arctic","","","","","","","","","true","","","","","","","","","","","","","","","",""
