"trial_type","trial_index","time_elapsed","internal_node_id","ParticipantID","firstStory","scramStory","rt","url","stimulus","button_pressed","key_press","correctRESP","correct","designation","success","letterStim","letterType","ONSET","TIMEOUT","CONDITION","Participant","ONSET_ACTUAL","RT","RESP","ACC","STORY","responses","response","type","surveyQuestion","QRESP"
"pavlovia","0","4","0.0-0.0","839bc83af40829dc5fd11e1fce747c15d9c1381afe3875eabe2c064b5d457ef7","swim","swim","","","","","","","","","","","","","","","","","","","","","","","","",""
"external-html","1","2728","0.0-1.0","839bc83af40829dc5fd11e1fce747c15d9c1381afe3875eabe2c064b5d457ef7","swim","swim","2697","consent/consent_updated.html","","","","","","","","","","","","","","","","","","","","","","",""
"html-button-response","2","5524","0.0-2.0-0.0","839bc83af40829dc5fd11e1fce747c15d9c1381afe3875eabe2c064b5d457ef7","swim","swim","2795","","<p>Before we begin the main task, you will complete a short volume calibration and headphone check.</p><p>Please make sure you are in a quiet listening environment, that you are wearing headphones, and that your computer's volume is turned on.<p></p>","0","","","","","","","","","","","","","","","","","","","","",""
"html-button-response","3","9040","0.0-2.0-1.0","839bc83af40829dc5fd11e1fce747c15d9c1381afe3875eabe2c064b5d457ef7","swim","swim","3263","","<p>The volume calibration will be first.</p><p>You will hear a thirty-second noise. Please adjust your computer's volume so that this noise is being presented at a comfortable level.<p></p>","0","","","","","","","","","","","","","","","","","","","","",""
"audio-button-response","4","13180","0.0-2.0-2.0","839bc83af40829dc5fd11e1fce747c15d9c1381afe3875eabe2c064b5d457ef7","swim","swim","3878","","audio/volumetest.mp3","0","","","","","","","","","","","","","","","","","","","","",""
"html-keyboard-response","5","19688","0.0-3.0-0.0","839bc83af40829dc5fd11e1fce747c15d9c1381afe3875eabe2c064b5d457ef7","swim","swim","6508","","<p>You will now complete a short headphone check.</p><p>On each trial, you will hear three tones. One of these tones will be quieter than the others. Your task is to identify whether the quiet tone occurred first, second, or third.</p><p>There are six trials in total.<p></p><p></p>(Press SPACEBAR to begin)","","32","","","","","","","","","","","","","","","","","","","",""
"html-keyboard-response","6","20451","0.0-3.0-1.0-0.0","839bc83af40829dc5fd11e1fce747c15d9c1381afe3875eabe2c064b5d457ef7","swim","swim","null","","<div style=""font-size:60px;"">+</div>","","null","","","","","","","","","","","","","","","","","","","",""
"audio-button-response","7","24387","0.0-3.0-1.0-1.0","839bc83af40829dc5fd11e1fce747c15d9c1381afe3875eabe2c064b5d457ef7","swim","swim","3935","","audio/t3_1.mp3","2","","2","1","headphone-test","","","","","","","","","","","","","","","","",""
"html-keyboard-response","8","24890","0.0-3.0-1.0-2.0","839bc83af40829dc5fd11e1fce747c15d9c1381afe3875eabe2c064b5d457ef7","swim","swim","null","","<p>Correct</p>","","null","","","","","","","","","","","","","","","","","","","",""
"html-keyboard-response","9","25391","0.0-3.0-1.0-0.1","839bc83af40829dc5fd11e1fce747c15d9c1381afe3875eabe2c064b5d457ef7","swim","swim","null","","<div style=""font-size:60px;"">+</div>","","null","","","","","","","","","","","","","","","","","","","",""
"audio-button-response","10","29326","0.0-3.0-1.0-1.1","839bc83af40829dc5fd11e1fce747c15d9c1381afe3875eabe2c064b5d457ef7","swim","swim","3934","","audio/t2_1.mp3","1","","1","1","headphone-test","","","","","","","","","","","","","","","","",""
"html-keyboard-response","11","29827","0.0-3.0-1.0-2.1","839bc83af40829dc5fd11e1fce747c15d9c1381afe3875eabe2c064b5d457ef7","swim","swim","null","","<p>Correct</p>","","null","","","","","","","","","","","","","","","","","","","",""
"html-keyboard-response","12","30327","0.0-3.0-1.0-0.2","839bc83af40829dc5fd11e1fce747c15d9c1381afe3875eabe2c064b5d457ef7","swim","swim","null","","<div style=""font-size:60px;"">+</div>","","null","","","","","","","","","","","","","","","","","","","",""
"audio-button-response","13","34200","0.0-3.0-1.0-1.2","839bc83af40829dc5fd11e1fce747c15d9c1381afe3875eabe2c064b5d457ef7","swim","swim","3871","","audio/t1_1.mp3","0","","0","1","headphone-test","","","","","","","","","","","","","","","","",""
"html-keyboard-response","14","34702","0.0-3.0-1.0-2.2","839bc83af40829dc5fd11e1fce747c15d9c1381afe3875eabe2c064b5d457ef7","swim","swim","null","","<p>Correct</p>","","null","","","","","","","","","","","","","","","","","","","",""
"html-keyboard-response","15","35204","0.0-3.0-1.0-0.3","839bc83af40829dc5fd11e1fce747c15d9c1381afe3875eabe2c064b5d457ef7","swim","swim","null","","<div style=""font-size:60px;"">+</div>","","null","","","","","","","","","","","","","","","","","","","",""
"audio-button-response","16","39073","0.0-3.0-1.0-1.3","839bc83af40829dc5fd11e1fce747c15d9c1381afe3875eabe2c064b5d457ef7","swim","swim","3869","","audio/t3_2.mp3","2","","2","1","headphone-test","","","","","","","","","","","","","","","","",""
"html-keyboard-response","17","39575","0.0-3.0-1.0-2.3","839bc83af40829dc5fd11e1fce747c15d9c1381afe3875eabe2c064b5d457ef7","swim","swim","null","","<p>Correct</p>","","null","","","","","","","","","","","","","","","","","","","",""
"html-keyboard-response","18","40076","0.0-3.0-1.0-0.4","839bc83af40829dc5fd11e1fce747c15d9c1381afe3875eabe2c064b5d457ef7","swim","swim","null","","<div style=""font-size:60px;"">+</div>","","null","","","","","","","","","","","","","","","","","","","",""
"audio-button-response","19","44079","0.0-3.0-1.0-1.4","839bc83af40829dc5fd11e1fce747c15d9c1381afe3875eabe2c064b5d457ef7","swim","swim","4003","","audio/t1_2.mp3","0","","0","1","headphone-test","","","","","","","","","","","","","","","","",""
"html-keyboard-response","20","44580","0.0-3.0-1.0-2.4","839bc83af40829dc5fd11e1fce747c15d9c1381afe3875eabe2c064b5d457ef7","swim","swim","null","","<p>Correct</p>","","null","","","","","","","","","","","","","","","","","","","",""
"html-keyboard-response","21","45100","0.0-3.0-1.0-0.5","839bc83af40829dc5fd11e1fce747c15d9c1381afe3875eabe2c064b5d457ef7","swim","swim","null","","<div style=""font-size:60px;"">+</div>","","null","","","","","","","","","","","","","","","","","","","",""
"audio-button-response","22","48711","0.0-3.0-1.0-1.5","839bc83af40829dc5fd11e1fce747c15d9c1381afe3875eabe2c064b5d457ef7","swim","swim","3610","","audio/t2_2.mp3","1","","1","1","headphone-test","","","","","","","","","","","","","","","","",""
"html-keyboard-response","23","49215","0.0-3.0-1.0-2.5","839bc83af40829dc5fd11e1fce747c15d9c1381afe3875eabe2c064b5d457ef7","swim","swim","null","","<p>Correct</p>","","null","","","","","","","","","","","","","","","","","","","",""
"fullscreen","24","52326","0.0-4.0","839bc83af40829dc5fd11e1fce747c15d9c1381afe3875eabe2c064b5d457ef7","swim","swim","","","","","","","","","true","","","","","","","","","","","","","","","",""
"html-button-response","25","68997","0.0-5.0-0.0","839bc83af40829dc5fd11e1fce747c15d9c1381afe3875eabe2c064b5d457ef7","swim","swim","16670","","<p>There are two blocks to this experiment.</p><p>In each block, you will hear a ~13.5 minute story. One of the stories will be scrambled. Please listen carefully to both stories and understand them as best you can.</p><p>After each story, you will be asked some questions to assess your comprehension.</p>","0","","","","","","","","","","","","","","","","","","","","",""
"html-button-response","26","135551","0.0-5.0-1.0","839bc83af40829dc5fd11e1fce747c15d9c1381afe3875eabe2c064b5d457ef7","swim","swim","66554","","<p>During each story, there will be an additional task.</p><p>A letter will occasionally appear on the screen.</br>Your job is to - as quickly as you can - decide whether the letter is lowercase or uppercase and press one of two keys on the keyboard:</p><p>If the letter is <b>lowercase</b>, press key &lt;<b>x</b>&gt;.</p><p>If the letter is <b>uppercase</b>, press key &lt;<b>m</b>&gt;.</p>","0","","","","","","","","","","","","","","","","","","","","",""
"html-keyboard-response","27","143929","0.0-5.0-2.0","839bc83af40829dc5fd11e1fce747c15d9c1381afe3875eabe2c064b5d457ef7","swim","swim","8377","","<p>Because we want your responses to be as quick as possible, please keep your index fingers over the keys while listening.</p><p>Each block lasts about 20 minutes.</p><p><b>Press &lt;x&gt; or &lt;m&gt; to start the first block!</b></p>","","88","","","","","","","","","","","","","","","","","","","",""
"html-keyboard-response","28","144431","0.0-7.0-0.0-0.0","839bc83af40829dc5fd11e1fce747c15d9c1381afe3875eabe2c064b5d457ef7","swim","swim","null","","<div style=""font-size:60px;"" tabindex=""0"">+</div>","","null","","","","","","","","","","","","","","","","","","","",""
"dual-task","null","null","null","","swim","swim","835.8999999910593","","B","null","77","77","1","swim-dual-task","","B","uppercase","18000","0","6","839bc83af40829dc5fd11e1fce747c15d9c1381afe3875eabe2c064b5d457ef7","18008.79999999702","835.8999999910593","77","1","swim","","","","",""
"dual-task","null","null","null","","swim","swim","663.9000000059605","","N","null","77","77","1","swim-dual-task","","N","uppercase","30000","0","6","839bc83af40829dc5fd11e1fce747c15d9c1381afe3875eabe2c064b5d457ef7","30007.89999999106","663.9000000059605","77","1","swim","","","","",""
"dual-task","null","null","null","","swim","swim","685.7999999970198","","A","null","77","77","1","swim-dual-task","","A","uppercase","40000","0","6","839bc83af40829dc5fd11e1fce747c15d9c1381afe3875eabe2c064b5d457ef7","40014.39999999106","685.7999999970198","77","1","swim","","","","",""
"dual-task","null","null","null","","swim","swim","664.5","","t","null","88","88","1","swim-dual-task","","t","lowercase","54000","0","6","839bc83af40829dc5fd11e1fce747c15d9c1381afe3875eabe2c064b5d457ef7","53999.39999999106","664.5","88","1","swim","","","","",""
"dual-task","null","null","null","","swim","swim","591.9000000059605","","A","null","77","77","1","swim-dual-task","","A","uppercase","62000","0","6","839bc83af40829dc5fd11e1fce747c15d9c1381afe3875eabe2c064b5d457ef7","62002.59999999404","591.9000000059605","77","1","swim","","","","",""
"dual-task","null","null","null","","swim","swim","627.8999999910593","","q","null","88","88","1","swim-dual-task","","q","lowercase","76000","0","6","839bc83af40829dc5fd11e1fce747c15d9c1381afe3875eabe2c064b5d457ef7","76005.70000000298","627.8999999910593","88","1","swim","","","","",""
"dual-task","null","null","null","","swim","swim","532.2000000029802","","n","null","88","88","1","swim-dual-task","","n","lowercase","86000","0","6","839bc83af40829dc5fd11e1fce747c15d9c1381afe3875eabe2c064b5d457ef7","86011.39999999106","532.2000000029802","88","1","swim","","","","",""
"dual-task","null","null","null","","swim","swim","625.9000000059605","","N","null","77","77","1","swim-dual-task","","N","uppercase","100000","0","6","839bc83af40829dc5fd11e1fce747c15d9c1381afe3875eabe2c064b5d457ef7","99998.5","625.9000000059605","77","1","swim","","","","",""
"dual-task","null","null","null","","swim","swim","536","","N","null","77","77","1","swim-dual-task","","N","uppercase","106000","0","6","839bc83af40829dc5fd11e1fce747c15d9c1381afe3875eabe2c064b5d457ef7","106009.39999999106","536","77","1","swim","","","","",""
"dual-task","null","null","null","","swim","swim","560.2000000029802","","D","null","77","77","1","swim-dual-task","","D","uppercase","114000","0","6","839bc83af40829dc5fd11e1fce747c15d9c1381afe3875eabe2c064b5d457ef7","114008.5","560.2000000029802","77","1","swim","","","","",""
"dual-task","null","null","null","","swim","swim","515.9000000059605","","a","null","88","88","1","swim-dual-task","","a","lowercase","128000","0","6","839bc83af40829dc5fd11e1fce747c15d9c1381afe3875eabe2c064b5d457ef7","128006.5","515.9000000059605","88","1","swim","","","","",""
"dual-task","null","null","null","","swim","swim","556.7999999970198","","h","null","88","88","1","swim-dual-task","","h","lowercase","140000","0","6","839bc83af40829dc5fd11e1fce747c15d9c1381afe3875eabe2c064b5d457ef7","140007.79999999702","556.7999999970198","88","1","swim","","","","",""
"dual-task","null","null","null","","swim","swim","567.8999999910593","","E","null","77","77","1","swim-dual-task","","E","uppercase","152000","0","6","839bc83af40829dc5fd11e1fce747c15d9c1381afe3875eabe2c064b5d457ef7","152013.79999999702","567.8999999910593","77","1","swim","","","","",""
"dual-task","null","null","null","","swim","swim","655.5","","t","null","88","88","1","swim-dual-task","","t","lowercase","164000","0","6","839bc83af40829dc5fd11e1fce747c15d9c1381afe3875eabe2c064b5d457ef7","164016","655.5","88","1","swim","","","","",""
"dual-task","null","null","null","","swim","swim","565.6999999880791","","E","null","77","77","1","swim-dual-task","","E","uppercase","172000","0","6","839bc83af40829dc5fd11e1fce747c15d9c1381afe3875eabe2c064b5d457ef7","172005.89999999106","565.6999999880791","77","1","swim","","","","",""
"dual-task","null","null","null","","swim","swim","562.2999999970198","","r","null","88","88","1","swim-dual-task","","r","lowercase","184000","0","6","839bc83af40829dc5fd11e1fce747c15d9c1381afe3875eabe2c064b5d457ef7","184015.79999999702","562.2999999970198","88","1","swim","","","","",""
"dual-task","null","null","null","","swim","swim","550.0999999940395","","F","null","77","77","1","swim-dual-task","","F","uppercase","194000","0","6","839bc83af40829dc5fd11e1fce747c15d9c1381afe3875eabe2c064b5d457ef7","194009.09999999404","550.0999999940395","77","1","swim","","","","",""
"dual-task","null","null","null","","swim","swim","549.7999999970198","","Q","null","77","77","1","swim-dual-task","","Q","uppercase","206000","0","6","839bc83af40829dc5fd11e1fce747c15d9c1381afe3875eabe2c064b5d457ef7","206015.79999999702","549.7999999970198","77","1","swim","","","","",""
"dual-task","null","null","null","","swim","swim","544.9000000059605","","F","null","77","77","1","swim-dual-task","","F","uppercase","220000","0","6","839bc83af40829dc5fd11e1fce747c15d9c1381afe3875eabe2c064b5d457ef7","220006.20000000298","544.9000000059605","77","1","swim","","","","",""
"dual-task","null","null","null","","swim","swim","469.20000000298023","","D","null","77","77","1","swim-dual-task","","D","uppercase","232000","0","6","839bc83af40829dc5fd11e1fce747c15d9c1381afe3875eabe2c064b5d457ef7","232006.5","469.20000000298023","77","1","swim","","","","",""
"dual-task","null","null","null","","swim","swim","604.8000000119209","","b","null","88","88","1","swim-dual-task","","b","lowercase","242000","0","6","839bc83af40829dc5fd11e1fce747c15d9c1381afe3875eabe2c064b5d457ef7","242015.29999999702","604.8000000119209","88","1","swim","","","","",""
"dual-task","null","null","null","","swim","swim","572.5","","B","null","77","77","1","swim-dual-task","","B","uppercase","256000","0","6","839bc83af40829dc5fd11e1fce747c15d9c1381afe3875eabe2c064b5d457ef7","256000.29999999702","572.5","77","1","swim","","","","",""
"dual-task","null","null","null","","swim","swim","500.79999999701977","","H","null","77","77","1","swim-dual-task","","H","uppercase","262000","0","6","839bc83af40829dc5fd11e1fce747c15d9c1381afe3875eabe2c064b5d457ef7","262011.20000000298","500.79999999701977","77","1","swim","","","","",""
"dual-task","null","null","null","","swim","swim","574","","G","null","77","77","1","swim-dual-task","","G","uppercase","272000","0","6","839bc83af40829dc5fd11e1fce747c15d9c1381afe3875eabe2c064b5d457ef7","272012.299999997","574","77","1","swim","","","","",""
"dual-task","null","null","null","","swim","swim","474.6000000089407","","G","null","77","77","1","swim-dual-task","","G","uppercase","280000","0","6","839bc83af40829dc5fd11e1fce747c15d9c1381afe3875eabe2c064b5d457ef7","280014.299999997","474.6000000089407","77","1","swim","","","","",""
"dual-task","null","null","null","","swim","swim","460.1000000089407","","Q","null","77","77","1","swim-dual-task","","Q","uppercase","288000","0","6","839bc83af40829dc5fd11e1fce747c15d9c1381afe3875eabe2c064b5d457ef7","288015.89999999106","460.1000000089407","77","1","swim","","","","",""
"dual-task","null","null","null","","swim","swim","603.5","","f","null","88","88","1","swim-dual-task","","f","lowercase","300000","0","6","839bc83af40829dc5fd11e1fce747c15d9c1381afe3875eabe2c064b5d457ef7","300000.700000003","603.5","88","1","swim","","","","",""
"dual-task","null","null","null","","swim","swim","514","","e","null","88","88","1","swim-dual-task","","e","lowercase","308000","0","6","839bc83af40829dc5fd11e1fce747c15d9c1381afe3875eabe2c064b5d457ef7","308008.299999997","514","88","1","swim","","","","",""
"dual-task","null","null","null","","swim","swim","491.70000000298023","","H","null","77","77","1","swim-dual-task","","H","uppercase","314000","0","6","839bc83af40829dc5fd11e1fce747c15d9c1381afe3875eabe2c064b5d457ef7","314004.59999999404","491.70000000298023","77","1","swim","","","","",""
"dual-task","null","null","null","","swim","swim","507","","R","null","77","77","1","swim-dual-task","","R","uppercase","324000","0","6","839bc83af40829dc5fd11e1fce747c15d9c1381afe3875eabe2c064b5d457ef7","324002.5","507","77","1","swim","","","","",""
"dual-task","null","null","null","","swim","swim","570.2999999970198","","r","null","88","88","1","swim-dual-task","","r","lowercase","334000","0","6","839bc83af40829dc5fd11e1fce747c15d9c1381afe3875eabe2c064b5d457ef7","334011.89999999106","570.2999999970198","88","1","swim","","","","",""
"dual-task","null","null","null","","swim","swim","500.20000000298023","","Q","null","77","77","1","swim-dual-task","","Q","uppercase","342000","0","6","839bc83af40829dc5fd11e1fce747c15d9c1381afe3875eabe2c064b5d457ef7","342014.299999997","500.20000000298023","77","1","swim","","","","",""
"dual-task","null","null","null","","swim","swim","561.9000000059605","","g","null","88","88","1","swim-dual-task","","g","lowercase","350000","0","6","839bc83af40829dc5fd11e1fce747c15d9c1381afe3875eabe2c064b5d457ef7","350002.09999999404","561.9000000059605","88","1","swim","","","","",""
"dual-task","null","null","null","","swim","swim","540.7000000029802","","d","null","88","88","1","swim-dual-task","","d","lowercase","358000","0","6","839bc83af40829dc5fd11e1fce747c15d9c1381afe3875eabe2c064b5d457ef7","358007.39999999106","540.7000000029802","88","1","swim","","","","",""
"dual-task","null","null","null","","swim","swim","545.9000000059605","","G","null","77","77","1","swim-dual-task","","G","uppercase","368000","0","6","839bc83af40829dc5fd11e1fce747c15d9c1381afe3875eabe2c064b5d457ef7","368015","545.9000000059605","77","1","swim","","","","",""
"dual-task","null","null","null","","swim","swim","499.09999999403954","","E","null","77","77","1","swim-dual-task","","E","uppercase","376000","0","6","839bc83af40829dc5fd11e1fce747c15d9c1381afe3875eabe2c064b5d457ef7","376036","499.09999999403954","77","1","swim","","","","",""
"dual-task","null","null","null","","swim","swim","484.79999999701977","","R","null","77","77","1","swim-dual-task","","R","uppercase","386000","0","6","839bc83af40829dc5fd11e1fce747c15d9c1381afe3875eabe2c064b5d457ef7","386006.200000003","484.79999999701977","77","1","swim","","","","",""
"dual-task","null","null","null","","swim","swim","668.2000000029802","","d","null","88","88","1","swim-dual-task","","d","lowercase","396000","0","6","839bc83af40829dc5fd11e1fce747c15d9c1381afe3875eabe2c064b5d457ef7","396014","668.2000000029802","88","1","swim","","","","",""
"dual-task","null","null","null","","swim","swim","516.0999999940395","","a","null","88","88","1","swim-dual-task","","a","lowercase","402000","0","6","839bc83af40829dc5fd11e1fce747c15d9c1381afe3875eabe2c064b5d457ef7","402015.09999999404","516.0999999940395","88","1","swim","","","","",""
"dual-task","null","null","null","","swim","swim","478.8999999910593","","E","null","77","77","1","swim-dual-task","","E","uppercase","414000","0","6","839bc83af40829dc5fd11e1fce747c15d9c1381afe3875eabe2c064b5d457ef7","414015.59999999404","478.8999999910593","77","1","swim","","","","",""
"dual-task","null","null","null","","swim","swim","589.4000000059605","","t","null","88","88","1","swim-dual-task","","t","lowercase","426000","0","6","839bc83af40829dc5fd11e1fce747c15d9c1381afe3875eabe2c064b5d457ef7","426005.59999999404","589.4000000059605","88","1","swim","","","","",""
"dual-task","null","null","null","","swim","swim","590.5","","g","null","88","88","1","swim-dual-task","","g","lowercase","434000","0","6","839bc83af40829dc5fd11e1fce747c15d9c1381afe3875eabe2c064b5d457ef7","434050.89999999106","590.5","88","1","swim","","","","",""
"dual-task","null","null","null","","swim","swim","511.59999999403954","","h","null","88","88","1","swim-dual-task","","h","lowercase","446000","0","6","839bc83af40829dc5fd11e1fce747c15d9c1381afe3875eabe2c064b5d457ef7","446013.299999997","511.59999999403954","88","1","swim","","","","",""
"dual-task","null","null","null","","swim","swim","596.0999999940395","","B","null","77","77","1","swim-dual-task","","B","uppercase","452000","0","6","839bc83af40829dc5fd11e1fce747c15d9c1381afe3875eabe2c064b5d457ef7","452011.59999999404","596.0999999940395","77","1","swim","","","","",""
"dual-task","null","null","null","","swim","swim","573.5","","f","null","88","88","1","swim-dual-task","","f","lowercase","462000","0","6","839bc83af40829dc5fd11e1fce747c15d9c1381afe3875eabe2c064b5d457ef7","462004.59999999404","573.5","88","1","swim","","","","",""
"dual-task","null","null","null","","swim","swim","556.0999999940395","","b","null","88","88","1","swim-dual-task","","b","lowercase","468000","0","6","839bc83af40829dc5fd11e1fce747c15d9c1381afe3875eabe2c064b5d457ef7","468015.09999999404","556.0999999940395","88","1","swim","","","","",""
"dual-task","null","null","null","","swim","swim","536.1999999880791","","F","null","77","77","1","swim-dual-task","","F","uppercase","480000","0","6","839bc83af40829dc5fd11e1fce747c15d9c1381afe3875eabe2c064b5d457ef7","480001.299999997","536.1999999880791","77","1","swim","","","","",""
"dual-task","null","null","null","","swim","swim","555.5999999940395","","q","null","88","88","1","swim-dual-task","","q","lowercase","488000","0","6","839bc83af40829dc5fd11e1fce747c15d9c1381afe3875eabe2c064b5d457ef7","488014.299999997","555.5999999940395","88","1","swim","","","","",""
"dual-task","null","null","null","","swim","swim","584.4000000059605","","q","null","88","88","1","swim-dual-task","","q","lowercase","496000","0","6","839bc83af40829dc5fd11e1fce747c15d9c1381afe3875eabe2c064b5d457ef7","496010.799999997","584.4000000059605","88","1","swim","","","","",""
"dual-task","null","null","null","","swim","swim","532.2999999970198","","d","null","88","88","1","swim-dual-task","","d","lowercase","504000","0","6","839bc83af40829dc5fd11e1fce747c15d9c1381afe3875eabe2c064b5d457ef7","504014.5","532.2999999970198","88","1","swim","","","","",""
"dual-task","null","null","null","","swim","swim","546.7000000029802","","G","null","77","77","1","swim-dual-task","","G","uppercase","514000","0","6","839bc83af40829dc5fd11e1fce747c15d9c1381afe3875eabe2c064b5d457ef7","514005.5","546.7000000029802","77","1","swim","","","","",""
"dual-task","null","null","null","","swim","swim","581.1000000089407","","n","null","88","88","1","swim-dual-task","","n","lowercase","526000","0","6","839bc83af40829dc5fd11e1fce747c15d9c1381afe3875eabe2c064b5d457ef7","526032.5","581.1000000089407","88","1","swim","","","","",""
"dual-task","null","null","null","","swim","swim","521","","f","null","88","88","1","swim-dual-task","","f","lowercase","534000","0","6","839bc83af40829dc5fd11e1fce747c15d9c1381afe3875eabe2c064b5d457ef7","534001.799999997","521","88","1","swim","","","","",""
"dual-task","null","null","null","","swim","swim","573.8000000119209","","N","null","77","77","1","swim-dual-task","","N","uppercase","546000","0","6","839bc83af40829dc5fd11e1fce747c15d9c1381afe3875eabe2c064b5d457ef7","546005","573.8000000119209","77","1","swim","","","","",""
"dual-task","null","null","null","","swim","swim","554.8999999910593","","r","null","88","88","1","swim-dual-task","","r","lowercase","558000","0","6","839bc83af40829dc5fd11e1fce747c15d9c1381afe3875eabe2c064b5d457ef7","558015.799999997","554.8999999910593","88","1","swim","","","","",""
"dual-task","null","null","null","","swim","swim","541.7999999970198","","D","null","77","77","1","swim-dual-task","","D","uppercase","570000","0","6","839bc83af40829dc5fd11e1fce747c15d9c1381afe3875eabe2c064b5d457ef7","570005.299999997","541.7999999970198","77","1","swim","","","","",""
"dual-task","null","null","null","","swim","swim","587.5","","f","null","88","88","1","swim-dual-task","","f","lowercase","582000","0","6","839bc83af40829dc5fd11e1fce747c15d9c1381afe3875eabe2c064b5d457ef7","582016.5","587.5","88","1","swim","","","","",""
"dual-task","null","null","null","","swim","swim","517.5","","B","null","77","77","1","swim-dual-task","","B","uppercase","594000","0","6","839bc83af40829dc5fd11e1fce747c15d9c1381afe3875eabe2c064b5d457ef7","594005.3999999911","517.5","77","1","swim","","","","",""
"dual-task","null","null","null","","swim","swim","496.1000000089407","","A","null","77","77","1","swim-dual-task","","A","uppercase","602000","0","6","839bc83af40829dc5fd11e1fce747c15d9c1381afe3875eabe2c064b5d457ef7","602005","496.1000000089407","77","1","swim","","","","",""
"dual-task","null","null","null","","swim","swim","490.6000000089407","","H","null","77","77","1","swim-dual-task","","H","uppercase","616000","0","6","839bc83af40829dc5fd11e1fce747c15d9c1381afe3875eabe2c064b5d457ef7","616007.5","490.6000000089407","77","1","swim","","","","",""
"dual-task","null","null","null","","swim","swim","535.6000000089407","","R","null","77","77","1","swim-dual-task","","R","uppercase","622000","0","6","839bc83af40829dc5fd11e1fce747c15d9c1381afe3875eabe2c064b5d457ef7","622000.5","535.6000000089407","77","1","swim","","","","",""
"dual-task","null","null","null","","swim","swim","452.69999998807907","","R","null","77","77","1","swim-dual-task","","R","uppercase","636000","0","6","839bc83af40829dc5fd11e1fce747c15d9c1381afe3875eabe2c064b5d457ef7","636012.599999994","452.69999998807907","77","1","swim","","","","",""
"dual-task","null","null","null","","swim","swim","631.5","","T","null","77","77","1","swim-dual-task","","T","uppercase","644000","0","6","839bc83af40829dc5fd11e1fce747c15d9c1381afe3875eabe2c064b5d457ef7","644016.299999997","631.5","77","1","swim","","","","",""
"dual-task","null","null","null","","swim","swim","602.3000000119209","","b","null","88","88","1","swim-dual-task","","b","lowercase","654000","0","6","839bc83af40829dc5fd11e1fce747c15d9c1381afe3875eabe2c064b5d457ef7","654015.700000003","602.3000000119209","88","1","swim","","","","",""
"dual-task","null","null","null","","swim","swim","579.4000000059605","","n","null","88","88","1","swim-dual-task","","n","lowercase","668000","0","6","839bc83af40829dc5fd11e1fce747c15d9c1381afe3875eabe2c064b5d457ef7","668010.799999997","579.4000000059605","88","1","swim","","","","",""
"dual-task","null","null","null","","swim","swim","653.6999999880791","","g","null","88","88","1","swim-dual-task","","g","lowercase","676000","0","6","839bc83af40829dc5fd11e1fce747c15d9c1381afe3875eabe2c064b5d457ef7","676011.599999994","653.6999999880791","88","1","swim","","","","",""
"dual-task","null","null","null","","swim","swim","550.9000000059605","","H","null","77","77","1","swim-dual-task","","H","uppercase","686000","0","6","839bc83af40829dc5fd11e1fce747c15d9c1381afe3875eabe2c064b5d457ef7","686001.200000003","550.9000000059605","77","1","swim","","","","",""
"dual-task","null","null","null","","swim","swim","510.19999998807907","","b","null","88","88","1","swim-dual-task","","b","lowercase","698000","0","6","839bc83af40829dc5fd11e1fce747c15d9c1381afe3875eabe2c064b5d457ef7","698003.599999994","510.19999998807907","88","1","swim","","","","",""
"dual-task","null","null","null","","swim","swim","535.7999999970198","","d","null","88","88","1","swim-dual-task","","d","lowercase","708000","0","6","839bc83af40829dc5fd11e1fce747c15d9c1381afe3875eabe2c064b5d457ef7","708000.8999999911","535.7999999970198","88","1","swim","","","","",""
"dual-task","null","null","null","","swim","swim","589","","Q","null","77","77","1","swim-dual-task","","Q","uppercase","720000","0","6","839bc83af40829dc5fd11e1fce747c15d9c1381afe3875eabe2c064b5d457ef7","720000.099999994","589","77","1","swim","","","","",""
"dual-task","null","null","null","","swim","swim","612.6999999880791","","q","null","88","88","1","swim-dual-task","","q","lowercase","728000","0","6","839bc83af40829dc5fd11e1fce747c15d9c1381afe3875eabe2c064b5d457ef7","728004","612.6999999880791","88","1","swim","","","","",""
"dual-task","null","null","null","","swim","swim","579.8999999910593","","T","null","77","77","1","swim-dual-task","","T","uppercase","740000","0","6","839bc83af40829dc5fd11e1fce747c15d9c1381afe3875eabe2c064b5d457ef7","740009.8999999911","579.8999999910593","77","1","swim","","","","",""
"dual-task","null","null","null","","swim","swim","488.70000000298023","","D","null","77","77","1","swim-dual-task","","D","uppercase","754000","0","6","839bc83af40829dc5fd11e1fce747c15d9c1381afe3875eabe2c064b5d457ef7","754003.5","488.70000000298023","77","1","swim","","","","",""
"dual-task","null","null","null","","swim","swim","490.5","","A","null","77","77","1","swim-dual-task","","A","uppercase","762000","0","6","839bc83af40829dc5fd11e1fce747c15d9c1381afe3875eabe2c064b5d457ef7","762020.700000003","490.5","77","1","swim","","","","",""
"dual-task","null","null","null","","swim","swim","613.1999999880791","","n","null","88","88","1","swim-dual-task","","n","lowercase","770000","0","6","839bc83af40829dc5fd11e1fce747c15d9c1381afe3875eabe2c064b5d457ef7","770009.799999997","613.1999999880791","88","1","swim","","","","",""
"dual-task","null","null","null","","swim","swim","612.3000000119209","","t","null","88","88","1","swim-dual-task","","t","lowercase","778000","0","6","839bc83af40829dc5fd11e1fce747c15d9c1381afe3875eabe2c064b5d457ef7","778000.299999997","612.3000000119209","88","1","swim","","","","",""
"dual-task","null","null","null","","swim","swim","571.5999999940395","","e","null","88","88","1","swim-dual-task","","e","lowercase","786000","0","6","839bc83af40829dc5fd11e1fce747c15d9c1381afe3875eabe2c064b5d457ef7","786010.8999999911","571.5999999940395","88","1","swim","","","","",""
"dual-task","null","null","null","","swim","swim","510.3999999910593","","T","null","77","77","1","swim-dual-task","","T","uppercase","800000","0","6","839bc83af40829dc5fd11e1fce747c15d9c1381afe3875eabe2c064b5d457ef7","800010.099999994","510.3999999910593","77","1","swim","","","","",""
"audio-keyboard-response","29","954776","0.0-7.0-0.0-1.0","839bc83af40829dc5fd11e1fce747c15d9c1381afe3875eabe2c064b5d457ef7","swim","swim","null","","audio/story_swim_scrambled.mp3","","null","","","","","","","","","","","","","","","","","","","",""
"html-button-response","30","958053","0.0-7.0-0.0-2.0","839bc83af40829dc5fd11e1fce747c15d9c1381afe3875eabe2c064b5d457ef7","swim","swim","3276","","<p>This concludes the story. Thank you for listening.</p><p>You will now answer some questions about the content of the story.</p>","0","","","","","","","","","","","","","","","","","","","","",""
"survey-multi-choice","31","963380","0.0-7.0-0.0-3.0-0.0","839bc83af40829dc5fd11e1fce747c15d9c1381afe3875eabe2c064b5d457ef7","swim","swim","5325","","<b>How did the narrator train for his swim test?</b>","","","","1","swim-comprehension","","","","","","","","","","","","","{""Q0"":""Took his kids to the pool every day""}","","","",""
"survey-multi-choice","32","969367","0.0-7.0-0.0-3.0-0.1","839bc83af40829dc5fd11e1fce747c15d9c1381afe3875eabe2c064b5d457ef7","swim","swim","5732","","<b>How many times did the astronaut candidates have to complete the final exercise to pass?</b>","","","","1","swim-comprehension","","","","","","","","","","","","","{""Q0"":""Two""}","","","",""
"survey-multi-choice","33","973336","0.0-7.0-0.0-3.0-0.2","839bc83af40829dc5fd11e1fce747c15d9c1381afe3875eabe2c064b5d457ef7","swim","swim","3714","","<b>How many astronaut candidates reported for duty at the Johnson Space Center?</b>","","","","1","swim-comprehension","","","","","","","","","","","","","{""Q0"":""Forty-four""}","","","",""
"survey-multi-choice","34","979826","0.0-7.0-0.0-3.0-0.3","839bc83af40829dc5fd11e1fce747c15d9c1381afe3875eabe2c064b5d457ef7","swim","swim","6234","","<b>What was the final step of the first swim test in the pool?</b>","","","","1","swim-comprehension","","","","","","","","","","","","","{""Q0"":""Tread water with hands above the water""}","","","",""
"survey-multi-choice","35","984450","0.0-7.0-0.0-3.0-0.4","839bc83af40829dc5fd11e1fce747c15d9c1381afe3875eabe2c064b5d457ef7","swim","swim","4372","","<b>How many astronaut candidates passed the first swim test?</b>","","","","1","swim-comprehension","","","","","","","","","","","","","{""Q0"":""All of them""}","","","",""
"survey-multi-choice","36","1001020","0.0-7.0-0.0-3.0-0.5","839bc83af40829dc5fd11e1fce747c15d9c1381afe3875eabe2c064b5d457ef7","swim","swim","16317","","<b>How often does the narrator swim, now that he is a good swimmer?</b>","","","","0","swim-comprehension","","","","","","","","","","","","","{""Q0"":""Every weekend with his kids""}","","","",""
"survey-multi-choice","37","1015749","0.0-7.0-0.0-3.0-0.6","839bc83af40829dc5fd11e1fce747c15d9c1381afe3875eabe2c064b5d457ef7","swim","swim","14472","","<b>What gave the narrator his greatest feeling of accomplishment?</b>","","","","1","swim-comprehension","","","","","","","","","","","","","{""Q0"":""Passing the water survival course""}","","","",""
"survey-multi-choice","38","1019375","0.0-7.0-0.0-3.0-0.7","839bc83af40829dc5fd11e1fce747c15d9c1381afe3875eabe2c064b5d457ef7","swim","swim","3374","","<b>What is the narrator afraid of, aside from the water?</b>","","","","1","swim-comprehension","","","","","","","","","","","","","{""Q0"":""Heights""}","","","",""
"survey-multi-choice","39","1028272","0.0-7.0-0.0-3.0-0.8","839bc83af40829dc5fd11e1fce747c15d9c1381afe3875eabe2c064b5d457ef7","swim","swim","8644","","<b>What were the astronaut candidates trained to do at the naval air station?</b>","","","","1","swim-comprehension","","","","","","","","","","","","","{""Q0"":""Eject out of aircraft and survive in water long enough to be rescued""}","","","",""
"survey-multi-choice","40","1032879","0.0-7.0-0.0-3.0-0.9","839bc83af40829dc5fd11e1fce747c15d9c1381afe3875eabe2c064b5d457ef7","swim","swim","4351","","<b>Where is the home of naval aviation?</b>","","","","1","swim-comprehension","","","","","","","","","","","","","{""Q0"":""Pensacola""}","","","",""
"html-button-response","41","1035425","0.0-7.0-0.0-4.0","839bc83af40829dc5fd11e1fce747c15d9c1381afe3875eabe2c064b5d457ef7","swim","swim","2294","","<p>Thank you for your responses.</p><p>You will now answer some questions about your impressions of the story.</p>","0","","","","","","","","","","","","","","","","","","","","",""
"html-button-response","42","1042973","0.0-7.0-0.0-5.0-0.0","839bc83af40829dc5fd11e1fce747c15d9c1381afe3875eabe2c064b5d457ef7","swim","swim","7546","","MS3","5","","","","swim-engagement","","","","","","","","","","","","","","6","mental-sim","",""
"html-button-response","43","1048658","0.0-7.0-0.0-5.0-0.1","839bc83af40829dc5fd11e1fce747c15d9c1381afe3875eabe2c064b5d457ef7","swim","swim","5433","","E1","3","","","","swim-engagement","","","","","","","","","","","","","","4","enjoyment","",""
"html-button-response","44","1053368","0.0-7.0-0.0-5.0-0.2","839bc83af40829dc5fd11e1fce747c15d9c1381afe3875eabe2c064b5d457ef7","swim","swim","4458","","MS1","5","","","","swim-engagement","","","","","","","","","","","","","","6","mental-sim","",""
"html-button-response","45","1059811","0.0-7.0-0.0-5.0-0.3","839bc83af40829dc5fd11e1fce747c15d9c1381afe3875eabe2c064b5d457ef7","swim","swim","6191","","MS2","3","","","","swim-engagement","","","","","","","","","","","","","","4","mental-sim","",""
"html-button-response","46","1062858","0.0-7.0-0.0-5.0-0.4","839bc83af40829dc5fd11e1fce747c15d9c1381afe3875eabe2c064b5d457ef7","swim","swim","2795","","A2","5","","","","swim-engagement","","","","","","","","","","","","","","6","absorption","",""
"html-button-response","47","1066599","0.0-7.0-0.0-5.0-0.5","839bc83af40829dc5fd11e1fce747c15d9c1381afe3875eabe2c064b5d457ef7","swim","swim","3489","","EE1","5","","","","swim-engagement","","","","","","","","","","","","","","6","emo-engage","",""
"html-button-response","48","1068749","0.0-7.0-0.0-5.0-0.6","839bc83af40829dc5fd11e1fce747c15d9c1381afe3875eabe2c064b5d457ef7","swim","swim","1898","","EE3","5","","","","swim-engagement","","","","","","","","","","","","","","6","emo-engage","",""
"html-button-response","49","1072445","0.0-7.0-0.0-5.0-0.7","839bc83af40829dc5fd11e1fce747c15d9c1381afe3875eabe2c064b5d457ef7","swim","swim","3442","","EE5","5","","","","swim-engagement","","","","","","","","","","","","","","6","emo-engage","",""
"html-button-response","50","1075458","0.0-7.0-0.0-5.0-0.8","839bc83af40829dc5fd11e1fce747c15d9c1381afe3875eabe2c064b5d457ef7","swim","swim","2759","","EE4","5","","","","swim-engagement","","","","","","","","","","","","","","6","emo-engage","",""
"html-button-response","51","1079549","0.0-7.0-0.0-5.0-0.9","839bc83af40829dc5fd11e1fce747c15d9c1381afe3875eabe2c064b5d457ef7","swim","swim","3840","","E8","3","","","","swim-engagement","","","","","","","","","","","","","","4","enjoyment","",""
"html-button-response","52","1085799","0.0-7.0-0.0-5.0-0.10","839bc83af40829dc5fd11e1fce747c15d9c1381afe3875eabe2c064b5d457ef7","swim","swim","5998","","A4","4","","","","swim-engagement","","","","","","","","","","","","","","5","absorption","",""
"html-button-response","53","1088586","0.0-7.0-0.0-5.0-0.11","839bc83af40829dc5fd11e1fce747c15d9c1381afe3875eabe2c064b5d457ef7","swim","swim","2535","","E7","4","","","","swim-engagement","","","","","","","","","","","","","","5","enjoyment","",""
"html-button-response","54","1091386","0.0-7.0-0.0-5.0-0.12","839bc83af40829dc5fd11e1fce747c15d9c1381afe3875eabe2c064b5d457ef7","swim","swim","2547","","EE2","5","","","","swim-engagement","","","","","","","","","","","","","","6","emo-engage","",""
"html-button-response","55","1095064","0.0-7.0-0.0-5.0-0.13","839bc83af40829dc5fd11e1fce747c15d9c1381afe3875eabe2c064b5d457ef7","swim","swim","3426","","A5","5","","","","swim-engagement","","","","","","","","","","","","","","6","absorption","",""
"html-button-response","56","1097805","0.0-7.0-0.0-5.0-0.14","839bc83af40829dc5fd11e1fce747c15d9c1381afe3875eabe2c064b5d457ef7","swim","swim","2489","","E10","0","","","","swim-engagement","","","","","","","","","","","","","","1","enjoyment","",""
"html-button-response","57","1101806","0.0-7.0-0.0-5.0-0.15","839bc83af40829dc5fd11e1fce747c15d9c1381afe3875eabe2c064b5d457ef7","swim","swim","3748","","A3","4","","","","swim-engagement","","","","","","","","","","","","","","5","absorption","",""
"html-button-response","58","1105039","0.0-7.0-0.0-5.0-0.16","839bc83af40829dc5fd11e1fce747c15d9c1381afe3875eabe2c064b5d457ef7","swim","swim","2982","","E6","4","","","","swim-engagement","","","","","","","","","","","","","","5","enjoyment","",""
"html-button-response","59","1109288","0.0-7.0-0.0-5.0-0.17","839bc83af40829dc5fd11e1fce747c15d9c1381afe3875eabe2c064b5d457ef7","swim","swim","3996","","A1","3","","","","swim-engagement","","","","","","","","","","","","","","4","absorption","",""
"html-keyboard-response","60","1202213","0.0-7.0-1.0","839bc83af40829dc5fd11e1fce747c15d9c1381afe3875eabe2c064b5d457ef7","swim","swim","92674","","<p>Thank you for your responses. You will now listen to the second story.</p><p>Remember, as you listen to the story you will see letters appear on the screen.</br>As quickly as possible, press <b>&lt;x&gt;</b> if the letter is lowercase and <b>&lt;m&gt;</b> if the letter is uppercase.</p><p>Press <b>&lt;x&gt;</b> or <b>&lt;m&gt;</b> to begin listening!</p>","","88","","","","","","","","","","","","","","","","","","","",""
"html-keyboard-response","61","1202714","0.0-7.0-2.0-0.0","839bc83af40829dc5fd11e1fce747c15d9c1381afe3875eabe2c064b5d457ef7","swim","swim","null","","<div style=""font-size:60px;"" tabindex=""0"">+</div>","","null","","","","","","","","","","","","","","","","","","","",""
"dual-task","null","null","null","","swim","swim","686.2999999970198","","F","null","77","77","1","arctic-dual-task","","F","uppercase","12000","0","6","839bc83af40829dc5fd11e1fce747c15d9c1381afe3875eabe2c064b5d457ef7","12002.29999999702","686.2999999970198","77","1","arctic","","","","",""
"dual-task","null","null","null","","swim","swim","545.7999999970198","","A","null","77","77","1","arctic-dual-task","","A","uppercase","24000","0","6","839bc83af40829dc5fd11e1fce747c15d9c1381afe3875eabe2c064b5d457ef7","24011.59999999404","545.7999999970198","77","1","arctic","","","","",""
"dual-task","null","null","null","","swim","swim","566.7000000029802","","E","null","77","77","1","arctic-dual-task","","E","uppercase","36000","0","6","839bc83af40829dc5fd11e1fce747c15d9c1381afe3875eabe2c064b5d457ef7","36011.70000000298","566.7000000029802","77","1","arctic","","","","",""
"dual-task","null","null","null","","swim","swim","534.0999999940395","","d","null","88","88","1","arctic-dual-task","","d","lowercase","46000","0","6","839bc83af40829dc5fd11e1fce747c15d9c1381afe3875eabe2c064b5d457ef7","46001.79999999702","534.0999999940395","88","1","arctic","","","","",""
"dual-task","null","null","null","","swim","swim","541.9000000059605","","q","null","88","88","1","arctic-dual-task","","q","lowercase","60000","0","6","839bc83af40829dc5fd11e1fce747c15d9c1381afe3875eabe2c064b5d457ef7","60012.59999999404","541.9000000059605","88","1","arctic","","","","",""
"dual-task","null","null","null","","swim","swim","600.3000000119209","","N","null","77","77","1","arctic-dual-task","","N","uppercase","70000","0","6","839bc83af40829dc5fd11e1fce747c15d9c1381afe3875eabe2c064b5d457ef7","70013.20000000298","600.3000000119209","77","1","arctic","","","","",""
"dual-task","null","null","null","","swim","swim","570.5999999940395","","d","null","88","88","1","arctic-dual-task","","d","lowercase","82000","0","6","839bc83af40829dc5fd11e1fce747c15d9c1381afe3875eabe2c064b5d457ef7","82013.59999999404","570.5999999940395","88","1","arctic","","","","",""
"dual-task","null","null","null","","swim","swim","632.7999999970198","","b","null","88","88","1","arctic-dual-task","","b","lowercase","92000","0","6","839bc83af40829dc5fd11e1fce747c15d9c1381afe3875eabe2c064b5d457ef7","92007.29999999702","632.7999999970198","88","1","arctic","","","","",""
"dual-task","null","null","null","","swim","swim","593.7999999970198","","t","null","88","88","1","arctic-dual-task","","t","lowercase","104000","0","6","839bc83af40829dc5fd11e1fce747c15d9c1381afe3875eabe2c064b5d457ef7","104013.09999999404","593.7999999970198","88","1","arctic","","","","",""
"dual-task","null","null","null","","swim","swim","529.6999999880791","","H","null","77","77","1","arctic-dual-task","","H","uppercase","112000","0","6","839bc83af40829dc5fd11e1fce747c15d9c1381afe3875eabe2c064b5d457ef7","112010.29999999702","529.6999999880791","77","1","arctic","","","","",""
"dual-task","null","null","null","","swim","swim","577.5","","g","null","88","88","1","arctic-dual-task","","g","lowercase","120000","0","6","839bc83af40829dc5fd11e1fce747c15d9c1381afe3875eabe2c064b5d457ef7","120002.20000000298","577.5","88","1","arctic","","","","",""
"dual-task","null","null","null","","swim","swim","539.7000000029802","","f","null","88","88","1","arctic-dual-task","","f","lowercase","130000","0","6","839bc83af40829dc5fd11e1fce747c15d9c1381afe3875eabe2c064b5d457ef7","130000.79999999702","539.7000000029802","88","1","arctic","","","","",""
"dual-task","null","null","null","","swim","swim","471.79999999701977","","h","null","88","88","1","arctic-dual-task","","h","lowercase","136000","0","6","839bc83af40829dc5fd11e1fce747c15d9c1381afe3875eabe2c064b5d457ef7","136002.79999999702","471.79999999701977","88","1","arctic","","","","",""
"dual-task","null","null","null","","swim","swim","507.79999999701977","","h","null","88","88","1","arctic-dual-task","","h","lowercase","144000","0","6","839bc83af40829dc5fd11e1fce747c15d9c1381afe3875eabe2c064b5d457ef7","144003","507.79999999701977","88","1","arctic","","","","",""
"dual-task","null","null","null","","swim","swim","527.3000000119209","","n","null","88","88","1","arctic-dual-task","","n","lowercase","158000","0","6","839bc83af40829dc5fd11e1fce747c15d9c1381afe3875eabe2c064b5d457ef7","158013.79999999702","527.3000000119209","88","1","arctic","","","","",""
"dual-task","null","null","null","","swim","swim","591.3000000119209","","E","null","77","77","1","arctic-dual-task","","E","uppercase","168000","0","6","839bc83af40829dc5fd11e1fce747c15d9c1381afe3875eabe2c064b5d457ef7","168002.20000000298","591.3000000119209","77","1","arctic","","","","",""
"dual-task","null","null","null","","swim","swim","573.5999999940395","","b","null","88","88","1","arctic-dual-task","","b","lowercase","178000","0","6","839bc83af40829dc5fd11e1fce747c15d9c1381afe3875eabe2c064b5d457ef7","178003.09999999404","573.5999999940395","88","1","arctic","","","","",""
"dual-task","null","null","null","","swim","swim","539.7000000029802","","B","null","77","77","1","arctic-dual-task","","B","uppercase","188000","0","6","839bc83af40829dc5fd11e1fce747c15d9c1381afe3875eabe2c064b5d457ef7","188002.09999999404","539.7000000029802","77","1","arctic","","","","",""
"dual-task","null","null","null","","swim","swim","551.1000000089407","","h","null","88","88","1","arctic-dual-task","","h","lowercase","202000","0","6","839bc83af40829dc5fd11e1fce747c15d9c1381afe3875eabe2c064b5d457ef7","202004.40000000596","551.1000000089407","88","1","arctic","","","","",""
"dual-task","null","null","null","","swim","swim","522.5","","f","null","88","88","1","arctic-dual-task","","f","lowercase","214000","0","6","839bc83af40829dc5fd11e1fce747c15d9c1381afe3875eabe2c064b5d457ef7","214013.59999999404","522.5","88","1","arctic","","","","",""
"dual-task","null","null","null","","swim","swim","516","","Q","null","77","77","1","arctic-dual-task","","Q","uppercase","220000","0","6","839bc83af40829dc5fd11e1fce747c15d9c1381afe3875eabe2c064b5d457ef7","220012.40000000596","516","77","1","arctic","","","","",""
"dual-task","null","null","null","","swim","swim","519.5","","a","null","88","88","1","arctic-dual-task","","a","lowercase","232000","0","6","839bc83af40829dc5fd11e1fce747c15d9c1381afe3875eabe2c064b5d457ef7","232011.09999999404","519.5","88","1","arctic","","","","",""
"dual-task","null","null","null","","swim","swim","546.7999999970198","","d","null","88","88","1","arctic-dual-task","","d","lowercase","240000","0","6","839bc83af40829dc5fd11e1fce747c15d9c1381afe3875eabe2c064b5d457ef7","240011.29999999702","546.7999999970198","88","1","arctic","","","","",""
"dual-task","null","null","null","","swim","swim","545.5","","e","null","88","88","1","arctic-dual-task","","e","lowercase","248000","0","6","839bc83af40829dc5fd11e1fce747c15d9c1381afe3875eabe2c064b5d457ef7","248002","545.5","88","1","arctic","","","","",""
"dual-task","null","null","null","","swim","swim","504.29999999701977","","G","null","77","77","1","arctic-dual-task","","G","uppercase","258000","0","6","839bc83af40829dc5fd11e1fce747c15d9c1381afe3875eabe2c064b5d457ef7","258002.29999999702","504.29999999701977","77","1","arctic","","","","",""
"dual-task","null","null","null","","swim","swim","497","","D","null","77","77","1","arctic-dual-task","","D","uppercase","270000","0","6","839bc83af40829dc5fd11e1fce747c15d9c1381afe3875eabe2c064b5d457ef7","270002.59999999404","497","77","1","arctic","","","","",""
"dual-task","null","null","null","","swim","swim","480.79999999701977","","B","null","77","77","1","arctic-dual-task","","B","uppercase","282000","0","6","839bc83af40829dc5fd11e1fce747c15d9c1381afe3875eabe2c064b5d457ef7","282012.299999997","480.79999999701977","77","1","arctic","","","","",""
"dual-task","null","null","null","","swim","swim","512.8999999910593","","G","null","77","77","1","arctic-dual-task","","G","uppercase","292000","0","6","839bc83af40829dc5fd11e1fce747c15d9c1381afe3875eabe2c064b5d457ef7","292008.799999997","512.8999999910593","77","1","arctic","","","","",""
"dual-task","null","null","null","","swim","swim","516.7000000029802","","F","null","77","77","1","arctic-dual-task","","F","uppercase","300000","0","6","839bc83af40829dc5fd11e1fce747c15d9c1381afe3875eabe2c064b5d457ef7","300002.299999997","516.7000000029802","77","1","arctic","","","","",""
"dual-task","null","null","null","","swim","swim","544.5","","r","null","88","88","1","arctic-dual-task","","r","lowercase","306000","0","6","839bc83af40829dc5fd11e1fce747c15d9c1381afe3875eabe2c064b5d457ef7","306002.299999997","544.5","88","1","arctic","","","","",""
"dual-task","null","null","null","","swim","swim","479.09999999403954","","a","null","88","88","1","arctic-dual-task","","a","lowercase","312000","0","6","839bc83af40829dc5fd11e1fce747c15d9c1381afe3875eabe2c064b5d457ef7","312002.09999999404","479.09999999403954","88","1","arctic","","","","",""
"dual-task","null","null","null","","swim","swim","541.3999999910593","","Q","null","77","77","1","arctic-dual-task","","Q","uppercase","318000","0","6","839bc83af40829dc5fd11e1fce747c15d9c1381afe3875eabe2c064b5d457ef7","318002.59999999404","541.3999999910593","77","1","arctic","","","","",""
"dual-task","null","null","null","","swim","swim","632.3000000119209","","h","null","88","88","1","arctic-dual-task","","h","lowercase","332000","0","6","839bc83af40829dc5fd11e1fce747c15d9c1381afe3875eabe2c064b5d457ef7","332003.09999999404","632.3000000119209","88","1","arctic","","","","",""
"dual-task","null","null","null","","swim","swim","485.70000000298023","","n","null","88","88","1","arctic-dual-task","","n","lowercase","344000","0","6","839bc83af40829dc5fd11e1fce747c15d9c1381afe3875eabe2c064b5d457ef7","343999.299999997","485.70000000298023","88","1","arctic","","","","",""
"dual-task","null","null","null","","swim","swim","755.5","","T","null","77","77","1","arctic-dual-task","","T","uppercase","350000","0","6","839bc83af40829dc5fd11e1fce747c15d9c1381afe3875eabe2c064b5d457ef7","350012.59999999404","755.5","77","1","arctic","","","","",""
"dual-task","null","null","null","","swim","swim","554.2000000029802","","n","null","88","88","1","arctic-dual-task","","n","lowercase","356000","0","6","839bc83af40829dc5fd11e1fce747c15d9c1381afe3875eabe2c064b5d457ef7","356013.09999999404","554.2000000029802","88","1","arctic","","","","",""
"dual-task","null","null","null","","swim","swim","561.4000000059605","","D","null","77","77","1","arctic-dual-task","","D","uppercase","368000","0","6","839bc83af40829dc5fd11e1fce747c15d9c1381afe3875eabe2c064b5d457ef7","368006.09999999404","561.4000000059605","77","1","arctic","","","","",""
"dual-task","null","null","null","","swim","swim","542.9000000059605","","a","null","88","88","1","arctic-dual-task","","a","lowercase","378000","0","6","839bc83af40829dc5fd11e1fce747c15d9c1381afe3875eabe2c064b5d457ef7","378013","542.9000000059605","88","1","arctic","","","","",""
"dual-task","null","null","null","","swim","swim","451.80000001192093","","e","null","88","88","1","arctic-dual-task","","e","lowercase","390000","0","6","839bc83af40829dc5fd11e1fce747c15d9c1381afe3875eabe2c064b5d457ef7","390012.90000000596","451.80000001192093","88","1","arctic","","","","",""
"dual-task","null","null","null","","swim","swim","697.7000000029802","","H","null","77","77","1","arctic-dual-task","","H","uppercase","402000","0","6","839bc83af40829dc5fd11e1fce747c15d9c1381afe3875eabe2c064b5d457ef7","402002.59999999404","697.7000000029802","77","1","arctic","","","","",""
"dual-task","null","null","null","","swim","swim","460.29999999701977","","N","null","77","77","1","arctic-dual-task","","N","uppercase","408000","0","6","839bc83af40829dc5fd11e1fce747c15d9c1381afe3875eabe2c064b5d457ef7","408012.5","460.29999999701977","77","1","arctic","","","","",""
"dual-task","null","null","null","","swim","swim","497.29999999701977","","F","null","77","77","1","arctic-dual-task","","F","uppercase","414000","0","6","839bc83af40829dc5fd11e1fce747c15d9c1381afe3875eabe2c064b5d457ef7","414012.299999997","497.29999999701977","77","1","arctic","","","","",""
"dual-task","null","null","null","","swim","swim","586.3999999910593","","e","null","88","88","1","arctic-dual-task","","e","lowercase","428000","0","6","839bc83af40829dc5fd11e1fce747c15d9c1381afe3875eabe2c064b5d457ef7","428012.59999999404","586.3999999910593","88","1","arctic","","","","",""
"dual-task","null","null","null","","swim","swim","536.9000000059605","","N","null","77","77","1","arctic-dual-task","","N","uppercase","442000","0","6","839bc83af40829dc5fd11e1fce747c15d9c1381afe3875eabe2c064b5d457ef7","442011.90000000596","536.9000000059605","77","1","arctic","","","","",""
"dual-task","null","null","null","","swim","swim","450.6000000089407","","D","null","77","77","1","arctic-dual-task","","D","uppercase","448000","0","6","839bc83af40829dc5fd11e1fce747c15d9c1381afe3875eabe2c064b5d457ef7","448012.700000003","450.6000000089407","77","1","arctic","","","","",""
"dual-task","null","null","null","","swim","swim","520.7999999970198","","T","null","77","77","1","arctic-dual-task","","T","uppercase","458000","0","6","839bc83af40829dc5fd11e1fce747c15d9c1381afe3875eabe2c064b5d457ef7","458012.799999997","520.7999999970198","77","1","arctic","","","","",""
"dual-task","null","null","null","","swim","swim","527.0999999940395","","E","null","77","77","1","arctic-dual-task","","E","uppercase","468000","0","6","839bc83af40829dc5fd11e1fce747c15d9c1381afe3875eabe2c064b5d457ef7","468002.299999997","527.0999999940395","77","1","arctic","","","","",""
"dual-task","null","null","null","","swim","swim","627.7999999970198","","g","null","88","88","1","arctic-dual-task","","g","lowercase","476000","0","6","839bc83af40829dc5fd11e1fce747c15d9c1381afe3875eabe2c064b5d457ef7","476002.59999999404","627.7999999970198","88","1","arctic","","","","",""
"dual-task","null","null","null","","swim","swim","519.7000000029802","","B","null","77","77","1","arctic-dual-task","","B","uppercase","486000","0","6","839bc83af40829dc5fd11e1fce747c15d9c1381afe3875eabe2c064b5d457ef7","486013.09999999404","519.7000000029802","77","1","arctic","","","","",""
"dual-task","null","null","null","","swim","swim","677.8000000119209","","f","null","88","88","1","arctic-dual-task","","f","lowercase","496000","0","6","839bc83af40829dc5fd11e1fce747c15d9c1381afe3875eabe2c064b5d457ef7","496012.700000003","677.8000000119209","88","1","arctic","","","","",""
"dual-task","null","null","null","","swim","swim","522.7000000029802","","Q","null","77","77","1","arctic-dual-task","","Q","uppercase","506000","0","6","839bc83af40829dc5fd11e1fce747c15d9c1381afe3875eabe2c064b5d457ef7","506002","522.7000000029802","77","1","arctic","","","","",""
"dual-task","null","null","null","","swim","swim","657.7000000029802","","f","null","88","88","1","arctic-dual-task","","f","lowercase","516000","0","6","839bc83af40829dc5fd11e1fce747c15d9c1381afe3875eabe2c064b5d457ef7","516012.09999999404","657.7000000029802","88","1","arctic","","","","",""
"dual-task","null","null","null","","swim","swim","569.2000000029802","","R","null","77","77","1","arctic-dual-task","","R","uppercase","524000","0","6","839bc83af40829dc5fd11e1fce747c15d9c1381afe3875eabe2c064b5d457ef7","524012.700000003","569.2000000029802","77","1","arctic","","","","",""
"dual-task","null","null","null","","swim","swim","526.7000000029802","","b","null","88","88","1","arctic-dual-task","","b","lowercase","532000","0","6","839bc83af40829dc5fd11e1fce747c15d9c1381afe3875eabe2c064b5d457ef7","532012.400000006","526.7000000029802","88","1","arctic","","","","",""
"dual-task","null","null","null","","swim","swim","643.5","","r","null","88","88","1","arctic-dual-task","","r","lowercase","540000","0","6","839bc83af40829dc5fd11e1fce747c15d9c1381afe3875eabe2c064b5d457ef7","540003.299999997","643.5","88","1","arctic","","","","",""
"dual-task","null","null","null","","swim","swim","471.90000000596046","","e","null","88","88","1","arctic-dual-task","","e","lowercase","548000","0","6","839bc83af40829dc5fd11e1fce747c15d9c1381afe3875eabe2c064b5d457ef7","548012.299999997","471.90000000596046","88","1","arctic","","","","",""
"dual-task","null","null","null","","swim","swim","575.2000000029802","","H","null","77","77","1","arctic-dual-task","","H","uppercase","558000","0","6","839bc83af40829dc5fd11e1fce747c15d9c1381afe3875eabe2c064b5d457ef7","558002.700000003","575.2000000029802","77","1","arctic","","","","",""
"dual-task","null","null","null","","swim","swim","562.0999999940395","","t","null","88","88","1","arctic-dual-task","","t","lowercase","566000","0","6","839bc83af40829dc5fd11e1fce747c15d9c1381afe3875eabe2c064b5d457ef7","566002.599999994","562.0999999940395","88","1","arctic","","","","",""
"dual-task","null","null","null","","swim","swim","551.5","","q","null","88","88","1","arctic-dual-task","","q","lowercase","574000","0","6","839bc83af40829dc5fd11e1fce747c15d9c1381afe3875eabe2c064b5d457ef7","574002.900000006","551.5","88","1","arctic","","","","",""
"dual-task","null","null","null","","swim","swim","605.0999999940395","","E","null","77","77","1","arctic-dual-task","","E","uppercase","582000","0","6","839bc83af40829dc5fd11e1fce747c15d9c1381afe3875eabe2c064b5d457ef7","582001.799999997","605.0999999940395","77","1","arctic","","","","",""
"dual-task","null","null","null","","swim","swim","490.29999999701977","","q","null","88","88","1","arctic-dual-task","","q","lowercase","588000","0","6","839bc83af40829dc5fd11e1fce747c15d9c1381afe3875eabe2c064b5d457ef7","588002.599999994","490.29999999701977","88","1","arctic","","","","",""
"dual-task","null","null","null","","swim","swim","521.2999999970198","","b","null","88","88","1","arctic-dual-task","","b","lowercase","596000","0","6","839bc83af40829dc5fd11e1fce747c15d9c1381afe3875eabe2c064b5d457ef7","596015.5","521.2999999970198","88","1","arctic","","","","",""
"dual-task","null","null","null","","swim","swim","564.6000000089407","","R","null","77","77","1","arctic-dual-task","","R","uppercase","606000","0","6","839bc83af40829dc5fd11e1fce747c15d9c1381afe3875eabe2c064b5d457ef7","606012.599999994","564.6000000089407","77","1","arctic","","","","",""
"dual-task","null","null","null","","swim","swim","501.3999999910593","","A","null","77","77","1","arctic-dual-task","","A","uppercase","616000","0","6","839bc83af40829dc5fd11e1fce747c15d9c1381afe3875eabe2c064b5d457ef7","616012.099999994","501.3999999910593","77","1","arctic","","","","",""
"dual-task","null","null","null","","swim","swim","560.2999999970198","","t","null","88","88","1","arctic-dual-task","","t","lowercase","626000","0","6","839bc83af40829dc5fd11e1fce747c15d9c1381afe3875eabe2c064b5d457ef7","626002.200000003","560.2999999970198","88","1","arctic","","","","",""
"dual-task","null","null","null","","swim","swim","517.5","","d","null","88","88","1","arctic-dual-task","","d","lowercase","634000","0","6","839bc83af40829dc5fd11e1fce747c15d9c1381afe3875eabe2c064b5d457ef7","634002.700000003","517.5","88","1","arctic","","","","",""
"dual-task","null","null","null","","swim","swim","541.5","","g","null","88","88","1","arctic-dual-task","","g","lowercase","640000","0","6","839bc83af40829dc5fd11e1fce747c15d9c1381afe3875eabe2c064b5d457ef7","640012.400000006","541.5","88","1","arctic","","","","",""
"dual-task","null","null","null","","swim","swim","541.1000000089407","","R","null","77","77","1","arctic-dual-task","","R","uppercase","648000","0","6","839bc83af40829dc5fd11e1fce747c15d9c1381afe3875eabe2c064b5d457ef7","648012.599999994","541.1000000089407","77","1","arctic","","","","",""
"dual-task","null","null","null","","swim","swim","510.3999999910593","","g","null","88","88","1","arctic-dual-task","","g","lowercase","660000","0","6","839bc83af40829dc5fd11e1fce747c15d9c1381afe3875eabe2c064b5d457ef7","660012.200000003","510.3999999910593","88","1","arctic","","","","",""
"dual-task","null","null","null","","swim","swim","477.40000000596046","","q","null","88","88","1","arctic-dual-task","","q","lowercase","668000","0","6","839bc83af40829dc5fd11e1fce747c15d9c1381afe3875eabe2c064b5d457ef7","668013.799999997","477.40000000596046","88","1","arctic","","","","",""
"dual-task","null","null","null","","swim","swim","585.7999999970198","","r","null","88","88","1","arctic-dual-task","","r","lowercase","676000","0","6","839bc83af40829dc5fd11e1fce747c15d9c1381afe3875eabe2c064b5d457ef7","676012.700000003","585.7999999970198","88","1","arctic","","","","",""
"dual-task","null","null","null","","swim","swim","635.7000000029802","","r","null","88","88","1","arctic-dual-task","","r","lowercase","686000","0","6","839bc83af40829dc5fd11e1fce747c15d9c1381afe3875eabe2c064b5d457ef7","686005","635.7000000029802","88","1","arctic","","","","",""
"dual-task","null","null","null","","swim","swim","565.7000000029802","","B","null","77","77","1","arctic-dual-task","","B","uppercase","692000","0","6","839bc83af40829dc5fd11e1fce747c15d9c1381afe3875eabe2c064b5d457ef7","692002.700000003","565.7000000029802","77","1","arctic","","","","",""
"dual-task","null","null","null","","swim","swim","477.09999999403954","","n","null","88","88","1","arctic-dual-task","","n","lowercase","702000","0","6","839bc83af40829dc5fd11e1fce747c15d9c1381afe3875eabe2c064b5d457ef7","702012.299999997","477.09999999403954","88","1","arctic","","","","",""
"dual-task","null","null","null","","swim","swim","548.4000000059605","","G","null","77","77","1","arctic-dual-task","","G","uppercase","710000","0","6","839bc83af40829dc5fd11e1fce747c15d9c1381afe3875eabe2c064b5d457ef7","710002.700000003","548.4000000059605","77","1","arctic","","","","",""
"dual-task","null","null","null","","swim","swim","558.7000000029802","","t","null","88","88","1","arctic-dual-task","","t","lowercase","716000","0","6","839bc83af40829dc5fd11e1fce747c15d9c1381afe3875eabe2c064b5d457ef7","716007.200000003","558.7000000029802","88","1","arctic","","","","",""
"dual-task","null","null","null","","swim","swim","501","","G","null","77","77","1","arctic-dual-task","","G","uppercase","724000","0","6","839bc83af40829dc5fd11e1fce747c15d9c1381afe3875eabe2c064b5d457ef7","724002.299999997","501","77","1","arctic","","","","",""
"dual-task","null","null","null","","swim","swim","590.6999999880791","","F","null","77","77","1","arctic-dual-task","","F","uppercase","732000","0","6","839bc83af40829dc5fd11e1fce747c15d9c1381afe3875eabe2c064b5d457ef7","732001.799999997","590.6999999880791","77","1","arctic","","","","",""
"dual-task","null","null","null","","swim","swim","455.09999999403954","","Q","null","77","77","1","arctic-dual-task","","Q","uppercase","740000","0","6","839bc83af40829dc5fd11e1fce747c15d9c1381afe3875eabe2c064b5d457ef7","740001.900000006","455.09999999403954","77","1","arctic","","","","",""
"dual-task","null","null","null","","swim","swim","464","","A","null","77","77","1","arctic-dual-task","","A","uppercase","748000","0","6","839bc83af40829dc5fd11e1fce747c15d9c1381afe3875eabe2c064b5d457ef7","748014.299999997","464","77","1","arctic","","","","",""
"dual-task","null","null","null","","swim","swim","473.3999999910593","","D","null","77","77","1","arctic-dual-task","","D","uppercase","760000","0","6","839bc83af40829dc5fd11e1fce747c15d9c1381afe3875eabe2c064b5d457ef7","760012.400000006","473.3999999910593","77","1","arctic","","","","",""
"dual-task","null","null","null","","swim","swim","510.6000000089407","","T","null","77","77","1","arctic-dual-task","","T","uppercase","770000","0","6","839bc83af40829dc5fd11e1fce747c15d9c1381afe3875eabe2c064b5d457ef7","770013.900000006","510.6000000089407","77","1","arctic","","","","",""
"dual-task","null","null","null","","swim","swim","453.09999999403954","","H","null","77","77","1","arctic-dual-task","","H","uppercase","776000","0","6","839bc83af40829dc5fd11e1fce747c15d9c1381afe3875eabe2c064b5d457ef7","776011.799999997","453.09999999403954","77","1","arctic","","","","",""
"dual-task","null","null","null","","swim","swim","484.09999999403954","","T","null","77","77","1","arctic-dual-task","","T","uppercase","790000","0","6","839bc83af40829dc5fd11e1fce747c15d9c1381afe3875eabe2c064b5d457ef7","790002.799999997","484.09999999403954","77","1","arctic","","","","",""
"audio-keyboard-response","62","2001342","0.0-7.0-2.0-1.0","839bc83af40829dc5fd11e1fce747c15d9c1381afe3875eabe2c064b5d457ef7","swim","swim","null","","audio/story_arctic.mp3","","null","","","","","","","","","","","","","","","","","","","",""
"html-button-response","63","2005959","0.0-7.0-2.0-2.0","839bc83af40829dc5fd11e1fce747c15d9c1381afe3875eabe2c064b5d457ef7","swim","swim","4615","","<p>This concludes the story. Thank you for listening.</p><p>You will now answer some questions about the content of the story.</p>","0","","","","","","","","","","","","","","","","","","","","",""
"survey-multi-choice","64","2015807","0.0-7.0-2.0-3.0-0.0","839bc83af40829dc5fd11e1fce747c15d9c1381afe3875eabe2c064b5d457ef7","swim","swim","9846","","<b>What were the weather conditions in the Arctic like the winter of the narrator&#39;s expedition?</b>","","","","1","arctic-comprehension","","","","","","","","","","","","","{""Q0"":""There were more storms than any other winter in recorded history.""}","","","",""
"survey-multi-choice","65","2025867","0.0-7.0-2.0-3.0-0.1","839bc83af40829dc5fd11e1fce747c15d9c1381afe3875eabe2c064b5d457ef7","swim","swim","9801","","<b>How did the narrator prepare for her expedition?</b>","","","","1","arctic-comprehension","","","","","","","","","","","","","{""Q0"":""Trained in Alaska learning how to dogsled""}","","","",""
"survey-multi-choice","66","2029813","0.0-7.0-2.0-3.0-0.2","839bc83af40829dc5fd11e1fce747c15d9c1381afe3875eabe2c064b5d457ef7","swim","swim","3689","","<b>What did the narrator do for leisure while in her tent?</b>","","","","1","arctic-comprehension","","","","","","","","","","","","","{""Q0"":""Read""}","","","",""
"survey-multi-choice","67","2035835","0.0-7.0-2.0-3.0-0.3","839bc83af40829dc5fd11e1fce747c15d9c1381afe3875eabe2c064b5d457ef7","swim","swim","5769","","<b>What was the objective of the narrator&#39;s expedition?</b>","","","","1","arctic-comprehension","","","","","","","","","","","","","{""Q0"":""Dogsled across Arctic America""}","","","",""
"survey-multi-choice","68","2043576","0.0-7.0-2.0-3.0-0.4","839bc83af40829dc5fd11e1fce747c15d9c1381afe3875eabe2c064b5d457ef7","swim","swim","7489","","<b>How did the narrator&#39;s encounter with the polar bears end?</b>","","","","1","arctic-comprehension","","","","","","","","","","","","","{""Q0"":""The bears walked back to their den.""}","","","",""
"survey-multi-choice","69","2049308","0.0-7.0-2.0-3.0-0.5","839bc83af40829dc5fd11e1fce747c15d9c1381afe3875eabe2c064b5d457ef7","swim","swim","5480","","<b>How many sponsorships did the narrator receive to support her expedition?</b>","","","","1","arctic-comprehension","","","","","","","","","","","","","{""Q0"":""None""}","","","",""
"survey-multi-choice","70","2052956","0.0-7.0-2.0-3.0-0.6","839bc83af40829dc5fd11e1fce747c15d9c1381afe3875eabe2c064b5d457ef7","swim","swim","3390","","<b>What is the name of the narrator&#39;s neighbour?</b>","","","","1","arctic-comprehension","","","","","","","","","","","","","{""Q0"":""Dave""}","","","",""
"survey-multi-choice","71","2064504","0.0-7.0-2.0-3.0-0.7","839bc83af40829dc5fd11e1fce747c15d9c1381afe3875eabe2c064b5d457ef7","swim","swim","11294","","<b>How did the dogs respond when they saw the bears?</b>","","","","1","arctic-comprehension","","","","","","","","","","","","","{""Q0"":""Approached them""}","","","",""
"survey-multi-choice","72","2070831","0.0-7.0-2.0-3.0-0.8","839bc83af40829dc5fd11e1fce747c15d9c1381afe3875eabe2c064b5d457ef7","swim","swim","6067","","<b>How did the narrator&#39;s neighbour respond when she told him about her expedition?</b>","","","","1","arctic-comprehension","","","","","","","","","","","","","{""Q0"":""He said she was going to fail.""}","","","",""
"survey-multi-choice","73","2075821","0.0-7.0-2.0-3.0-0.9","839bc83af40829dc5fd11e1fce747c15d9c1381afe3875eabe2c064b5d457ef7","swim","swim","4737","","<b>Which dog on the narrator&#39;s dog team never followed instructions?</b>","","","","1","arctic-comprehension","","","","","","","","","","","","","{""Q0"":""Robert""}","","","",""
"html-button-response","74","2077165","0.0-7.0-2.0-4.0","839bc83af40829dc5fd11e1fce747c15d9c1381afe3875eabe2c064b5d457ef7","swim","swim","1093","","<p>Thank you for your responses.</p><p>You will now answer some questions about your impressions of the story.</p>","0","","","","","","","","","","","","","","","","","","","","",""
"html-button-response","75","2084405","0.0-7.0-2.0-5.0-0.0","839bc83af40829dc5fd11e1fce747c15d9c1381afe3875eabe2c064b5d457ef7","swim","swim","7239","","EE4","5","","","","arctic-engagement","","","","","","","","","","","","","","6","emo-engage","",""
"html-button-response","76","2087023","0.0-7.0-2.0-5.0-0.1","839bc83af40829dc5fd11e1fce747c15d9c1381afe3875eabe2c064b5d457ef7","swim","swim","2366","","E10","6","","","","arctic-engagement","","","","","","","","","","","","","","7","enjoyment","",""
"html-button-response","77","2090436","0.0-7.0-2.0-5.0-0.2","839bc83af40829dc5fd11e1fce747c15d9c1381afe3875eabe2c064b5d457ef7","swim","swim","3162","","MS2","6","","","","arctic-engagement","","","","","","","","","","","","","","7","mental-sim","",""
"html-button-response","78","2093716","0.0-7.0-2.0-5.0-0.3","839bc83af40829dc5fd11e1fce747c15d9c1381afe3875eabe2c064b5d457ef7","swim","swim","3028","","A4","6","","","","arctic-engagement","","","","","","","","","","","","","","7","absorption","",""
"html-button-response","79","2095202","0.0-7.0-2.0-5.0-0.4","839bc83af40829dc5fd11e1fce747c15d9c1381afe3875eabe2c064b5d457ef7","swim","swim","1232","","A3","6","","","","arctic-engagement","","","","","","","","","","","","","","7","absorption","",""
"html-button-response","80","2099685","0.0-7.0-2.0-5.0-0.5","839bc83af40829dc5fd11e1fce747c15d9c1381afe3875eabe2c064b5d457ef7","swim","swim","4229","","E8","3","","","","arctic-engagement","","","","","","","","","","","","","","4","enjoyment","",""
"html-button-response","81","2109359","0.0-7.0-2.0-5.0-0.6","839bc83af40829dc5fd11e1fce747c15d9c1381afe3875eabe2c064b5d457ef7","swim","swim","9421","","EE3","4","","","","arctic-engagement","","","","","","","","","","","","","","5","emo-engage","",""
"html-button-response","82","2116567","0.0-7.0-2.0-5.0-0.7","839bc83af40829dc5fd11e1fce747c15d9c1381afe3875eabe2c064b5d457ef7","swim","swim","6953","","EE1","5","","","","arctic-engagement","","","","","","","","","","","","","","6","emo-engage","",""
"html-button-response","83","2118990","0.0-7.0-2.0-5.0-0.8","839bc83af40829dc5fd11e1fce747c15d9c1381afe3875eabe2c064b5d457ef7","swim","swim","2169","","EE5","4","","","","arctic-engagement","","","","","","","","","","","","","","5","emo-engage","",""
"html-button-response","84","2121747","0.0-7.0-2.0-5.0-0.9","839bc83af40829dc5fd11e1fce747c15d9c1381afe3875eabe2c064b5d457ef7","swim","swim","2505","","A1","6","","","","arctic-engagement","","","","","","","","","","","","","","7","absorption","",""
"html-button-response","85","2128855","0.0-7.0-2.0-5.0-0.10","839bc83af40829dc5fd11e1fce747c15d9c1381afe3875eabe2c064b5d457ef7","swim","swim","6857","","EE2","4","","","","arctic-engagement","","","","","","","","","","","","","","5","emo-engage","",""
"html-button-response","86","2130567","0.0-7.0-2.0-5.0-0.11","839bc83af40829dc5fd11e1fce747c15d9c1381afe3875eabe2c064b5d457ef7","swim","swim","1459","","E7","6","","","","arctic-engagement","","","","","","","","","","","","","","7","enjoyment","",""
"html-button-response","87","2132502","0.0-7.0-2.0-5.0-0.12","839bc83af40829dc5fd11e1fce747c15d9c1381afe3875eabe2c064b5d457ef7","swim","swim","1683","","E6","4","","","","arctic-engagement","","","","","","","","","","","","","","5","enjoyment","",""
"html-button-response","88","2135245","0.0-7.0-2.0-5.0-0.13","839bc83af40829dc5fd11e1fce747c15d9c1381afe3875eabe2c064b5d457ef7","swim","swim","2490","","A5","6","","","","arctic-engagement","","","","","","","","","","","","","","7","absorption","",""
"html-button-response","89","2137376","0.0-7.0-2.0-5.0-0.14","839bc83af40829dc5fd11e1fce747c15d9c1381afe3875eabe2c064b5d457ef7","swim","swim","1880","","A2","6","","","","arctic-engagement","","","","","","","","","","","","","","7","absorption","",""
"html-button-response","90","2139979","0.0-7.0-2.0-5.0-0.15","839bc83af40829dc5fd11e1fce747c15d9c1381afe3875eabe2c064b5d457ef7","swim","swim","2351","","MS1","6","","","","arctic-engagement","","","","","","","","","","","","","","7","mental-sim","",""
"html-button-response","91","2143017","0.0-7.0-2.0-5.0-0.16","839bc83af40829dc5fd11e1fce747c15d9c1381afe3875eabe2c064b5d457ef7","swim","swim","2787","","E1","5","","","","arctic-engagement","","","","","","","","","","","","","","6","enjoyment","",""
"html-button-response","92","2145438","0.0-7.0-2.0-5.0-0.17","839bc83af40829dc5fd11e1fce747c15d9c1381afe3875eabe2c064b5d457ef7","swim","swim","2168","","MS3","6","","","","arctic-engagement","","","","","","","","","","","","","","7","mental-sim","",""
"html-button-response","93","2148993","0.0-8.0","839bc83af40829dc5fd11e1fce747c15d9c1381afe3875eabe2c064b5d457ef7","swim","swim","3303","","<p>Thank you for your responses.</p><p>You will now answer some demographic, hearing, and general health questions.</p>","0","","","","","","","","","","","","","","","","","","","","",""
"survey-multi-choice","94","2151780","0.0-9.0-0.0","839bc83af40829dc5fd11e1fce747c15d9c1381afe3875eabe2c064b5d457ef7","swim","swim","2782","","","","","","","survey","","","","","","","","","","","","","{""Q0"":""Chrome""}","","","browser",""
"survey-text","95","2156851","0.0-9.0-1.0","839bc83af40829dc5fd11e1fce747c15d9c1381afe3875eabe2c064b5d457ef7","swim","swim","4814","","","","","","","survey","","","","","","","","","","","","","{""AGE"":""27""}","","","age","27"
"survey-multi-choice","96","2159044","0.0-9.0-2.0","839bc83af40829dc5fd11e1fce747c15d9c1381afe3875eabe2c064b5d457ef7","swim","swim","1939","","","","","","","survey","","","","","","","","","","","","","{""Q0"":""Female""}","","","gender","Female"
"survey-multi-choice","97","2161452","0.0-9.0-4.0","839bc83af40829dc5fd11e1fce747c15d9c1381afe3875eabe2c064b5d457ef7","swim","swim","2154","","","","","","","survey","","","","","","","","","","","","","{""Q0"":""Right""}","","","handedness","Right"
"survey-multi-choice","98","2163949","0.0-9.0-5.0","839bc83af40829dc5fd11e1fce747c15d9c1381afe3875eabe2c064b5d457ef7","swim","swim","2245","","","","","","","survey","","","","","","","","","","","","","{""Q0"":""Bachelor's Degree""}","","","education","Bachelor's Degree"
"survey-text","99","2170823","0.0-10.0-0.0","839bc83af40829dc5fd11e1fce747c15d9c1381afe3875eabe2c064b5d457ef7","swim","swim","6619.300000011921","","","","","","","survey","","","","","","","","","","","","","{""L1"":""English""}","","","first-language","English"
"survey-text","100","2178331","0.0-10.0-1.0","839bc83af40829dc5fd11e1fce747c15d9c1381afe3875eabe2c064b5d457ef7","swim","swim","7253","","","","","","","survey","","","","","","","","","","","","","{""L2name"":"""",""L2fluency"":"""",""L3name"":"""",""L3fluency"":"""",""L4name"":"""",""L4fluency"":""""}","","","additional-languages","{""L2name"":"""",""L2fluency"":"""",""L3name"":"""",""L3fluency"":"""",""L4name"":"""",""L4fluency"":""""}"
"survey-multi-choice","101","2182726","0.0-10.0-2.0","839bc83af40829dc5fd11e1fce747c15d9c1381afe3875eabe2c064b5d457ef7","swim","swim","4140","","","","","","","survey","","","","","","","","","","","","","{""Q0"":""No""}","","","hearing-aid","No"
"survey-multi-choice","102","2185329","0.0-10.0-3.0","839bc83af40829dc5fd11e1fce747c15d9c1381afe3875eabe2c064b5d457ef7","swim","swim","2351","","","","","","","survey","","","","","","","","","","","","","{""Q0"":""Never""}","","","ringing-ears","Never"
"survey-multi-choice","103","2187843","0.0-10.0-5.0","839bc83af40829dc5fd11e1fce747c15d9c1381afe3875eabe2c064b5d457ef7","swim","swim","2262","","","","","","","survey","","","","","","","","","","","","","{""Q0"":""No""}","","","neuro-disease","No"
"survey-multi-choice","104","2191427","0.0-10.0-7.0","839bc83af40829dc5fd11e1fce747c15d9c1381afe3875eabe2c064b5d457ef7","swim","swim","3328","","","","","","","survey","","","","","","","","","","","","","{""Q0"":""No""}","","","take-meds","No"
"survey-text","105","2198925","0.0-10.0-9.0","839bc83af40829dc5fd11e1fce747c15d9c1381afe3875eabe2c064b5d457ef7","swim","swim","7208.70000000298","","","","","","","survey","","","","","","","","","","","","","{""HC"":""""}","","","health-concerns",""
"html-button-response","106","2202674","0.0-11.0-0.0","839bc83af40829dc5fd11e1fce747c15d9c1381afe3875eabe2c064b5d457ef7","swim","swim","3497","","<p>How would you describe your musical skills/experiences?</p>","1","","","","survey","","","","","","","","","","","","","","","","music-skill","2"
"survey-multi-choice","107","2205618","0.0-11.0-1.0","839bc83af40829dc5fd11e1fce747c15d9c1381afe3875eabe2c064b5d457ef7","swim","swim","2690","","","","","","","survey","","","","","","","","","","","","","{""Q0"":""No""}","","","music-instrument","No"
"html-button-response","108","2207993","0.0-12.0-0.0","839bc83af40829dc5fd11e1fce747c15d9c1381afe3875eabe2c064b5d457ef7","swim","swim","2122","","<p>How would you describe your general hearing abilities?</p>","5","","","","survey","","","","","","","","","","","","","","","","ssq-01","6"
"html-button-response","109","2218903","0.0-12.0-1.0","839bc83af40829dc5fd11e1fce747c15d9c1381afe3875eabe2c064b5d457ef7","swim","swim","10657","","<p>When you talk with someone at a place that strongly reverberates/echoes (e.g., in a church or train station),</br>can you understand what the person says?</p>","9","","","","survey","","","","","","","","","","","","","","","","ssq-02","9"
"html-button-response","110","2222027","0.0-12.0-2.0","839bc83af40829dc5fd11e1fce747c15d9c1381afe3875eabe2c064b5d457ef7","swim","swim","2871","","<p>When you are with a group (~5 people) in a lively restaurant, can you follow the group's conversation?</p>","9","","","","survey","","","","","","","","","","","","","","","","ssq-03","9"
"html-button-response","111","2227520","0.0-12.0-3.0","839bc83af40829dc5fd11e1fce747c15d9c1381afe3875eabe2c064b5d457ef7","swim","swim","5242","","<p>Based on the sound of a bus or truck, can you tell whether it is moving towards or away from you?</p>","9","","","","survey","","","","","","","","","","","","","","","","ssq-04","9"
"html-button-response","112","2235941","0.0-12.0-4.0","839bc83af40829dc5fd11e1fce747c15d9c1381afe3875eabe2c064b5d457ef7","swim","swim","8168","","<p>When you are in an unknown environment, can you tell from which direction a brief sound originates?</p>","9","","","","survey","","","","","","","","","","","","","","","","ssq-05","9"
"html-button-response","113","2243079","0.0-12.0-5.0","839bc83af40829dc5fd11e1fce747c15d9c1381afe3875eabe2c064b5d457ef7","swim","swim","6886","","<p>Are you able to ignore distracting sounds when you concentrate on a specific aspect of your acoustic surrounding?</p>","8","","","","survey","","","","","","","","","","","","","","","","ssq-06","8"
"fullscreen","114","2244332","0.0-13.0","839bc83af40829dc5fd11e1fce747c15d9c1381afe3875eabe2c064b5d457ef7","swim","swim","","","","","","","","","true","","","","","","","","","","","","","","","",""
