"trial_type","trial_index","time_elapsed","internal_node_id","ParticipantID","firstStory","scramStory","rt","url","stimulus","button_pressed","key_press","correctRESP","correct","designation","success","letterStim","letterType","ONSET","TIMEOUT","CONDITION","Participant","ONSET_ACTUAL","RT","RESP","ACC","STORY","responses","response","type","surveyQuestion","QRESP"
"pavlovia","0","7","0.0-0.0","01d92d17ed0ea9d99d2bac6381808c7ee69318be66dd3daf29c6bf4568786f8d","arctic","arctic","","","","","","","","","","","","","","","","","","","","","","","","",""
"external-html","1","102926","0.0-1.0","01d92d17ed0ea9d99d2bac6381808c7ee69318be66dd3daf29c6bf4568786f8d","arctic","arctic","102295","consent/consent_updated.html","","","","","","","","","","","","","","","","","","","","","","",""
"html-button-response","2","217829","0.0-2.0-0.0","01d92d17ed0ea9d99d2bac6381808c7ee69318be66dd3daf29c6bf4568786f8d","arctic","arctic","114900","","<p>Before we begin the main task, you will complete a short volume calibration and headphone check.</p><p>Please make sure you are in a quiet listening environment, that you are wearing headphones, and that your computer's volume is turned on.<p></p>","0","","","","","","","","","","","","","","","","","","","","",""
"html-button-response","3","220784","0.0-2.0-1.0","01d92d17ed0ea9d99d2bac6381808c7ee69318be66dd3daf29c6bf4568786f8d","arctic","arctic","2697","","<p>The volume calibration will be first.</p><p>You will hear a thirty-second noise. Please adjust your computer's volume so that this noise is being presented at a comfortable level.<p></p>","0","","","","","","","","","","","","","","","","","","","","",""
"audio-button-response","4","228209","0.0-2.0-2.0","01d92d17ed0ea9d99d2bac6381808c7ee69318be66dd3daf29c6bf4568786f8d","arctic","arctic","7160","","audio/volumetest.mp3","0","","","","","","","","","","","","","","","","","","","","",""
"html-keyboard-response","5","235477","0.0-3.0-0.0","01d92d17ed0ea9d99d2bac6381808c7ee69318be66dd3daf29c6bf4568786f8d","arctic","arctic","7267","","<p>You will now complete a short headphone check.</p><p>On each trial, you will hear three tones. One of these tones will be quieter than the others. Your task is to identify whether the quiet tone occurred first, second, or third.</p><p>There are six trials in total.<p></p><p></p>(Press SPACEBAR to begin)","","32","","","","","","","","","","","","","","","","","","","",""
"html-keyboard-response","6","236253","0.0-3.0-1.0-0.0","01d92d17ed0ea9d99d2bac6381808c7ee69318be66dd3daf29c6bf4568786f8d","arctic","arctic","null","","<div style=""font-size:60px;"">+</div>","","null","","","","","","","","","","","","","","","","","","","",""
"audio-button-response","7","268726","0.0-3.0-1.0-1.0","01d92d17ed0ea9d99d2bac6381808c7ee69318be66dd3daf29c6bf4568786f8d","arctic","arctic","32472","","audio/t3_1.mp3","0","","2","0","headphone-test","","","","","","","","","","","","","","","","",""
"html-keyboard-response","8","269229","0.0-3.0-1.0-2.0","01d92d17ed0ea9d99d2bac6381808c7ee69318be66dd3daf29c6bf4568786f8d","arctic","arctic","null","","<p>Incorrect</p>","","null","","","","","","","","","","","","","","","","","","","",""
"html-keyboard-response","9","269732","0.0-3.0-1.0-0.1","01d92d17ed0ea9d99d2bac6381808c7ee69318be66dd3daf29c6bf4568786f8d","arctic","arctic","null","","<div style=""font-size:60px;"">+</div>","","null","","","","","","","","","","","","","","","","","","","",""
"audio-button-response","10","283444","0.0-3.0-1.0-1.1","01d92d17ed0ea9d99d2bac6381808c7ee69318be66dd3daf29c6bf4568786f8d","arctic","arctic","13710","","audio/t2_1.mp3","2","","1","0","headphone-test","","","","","","","","","","","","","","","","",""
"html-keyboard-response","11","283946","0.0-3.0-1.0-2.1","01d92d17ed0ea9d99d2bac6381808c7ee69318be66dd3daf29c6bf4568786f8d","arctic","arctic","null","","<p>Incorrect</p>","","null","","","","","","","","","","","","","","","","","","","",""
"html-keyboard-response","12","284457","0.0-3.0-1.0-0.2","01d92d17ed0ea9d99d2bac6381808c7ee69318be66dd3daf29c6bf4568786f8d","arctic","arctic","null","","<div style=""font-size:60px;"">+</div>","","null","","","","","","","","","","","","","","","","","","","",""
"audio-button-response","13","292940","0.0-3.0-1.0-1.2","01d92d17ed0ea9d99d2bac6381808c7ee69318be66dd3daf29c6bf4568786f8d","arctic","arctic","8481","","audio/t1_1.mp3","0","","0","1","headphone-test","","","","","","","","","","","","","","","","",""
"html-keyboard-response","14","293449","0.0-3.0-1.0-2.2","01d92d17ed0ea9d99d2bac6381808c7ee69318be66dd3daf29c6bf4568786f8d","arctic","arctic","null","","<p>Correct</p>","","null","","","","","","","","","","","","","","","","","","","",""
"html-keyboard-response","15","293953","0.0-3.0-1.0-0.3","01d92d17ed0ea9d99d2bac6381808c7ee69318be66dd3daf29c6bf4568786f8d","arctic","arctic","null","","<div style=""font-size:60px;"">+</div>","","null","","","","","","","","","","","","","","","","","","","",""
"audio-button-response","16","298951","0.0-3.0-1.0-1.3","01d92d17ed0ea9d99d2bac6381808c7ee69318be66dd3daf29c6bf4568786f8d","arctic","arctic","4995","","audio/t1_2.mp3","0","","0","1","headphone-test","","","","","","","","","","","","","","","","",""
"html-keyboard-response","17","299453","0.0-3.0-1.0-2.3","01d92d17ed0ea9d99d2bac6381808c7ee69318be66dd3daf29c6bf4568786f8d","arctic","arctic","null","","<p>Correct</p>","","null","","","","","","","","","","","","","","","","","","","",""
"html-keyboard-response","18","299960","0.0-3.0-1.0-0.4","01d92d17ed0ea9d99d2bac6381808c7ee69318be66dd3daf29c6bf4568786f8d","arctic","arctic","null","","<div style=""font-size:60px;"">+</div>","","null","","","","","","","","","","","","","","","","","","","",""
"audio-button-response","19","305048","0.0-3.0-1.0-1.4","01d92d17ed0ea9d99d2bac6381808c7ee69318be66dd3daf29c6bf4568786f8d","arctic","arctic","5087","","audio/t3_2.mp3","0","","2","0","headphone-test","","","","","","","","","","","","","","","","",""
"html-keyboard-response","20","305554","0.0-3.0-1.0-2.4","01d92d17ed0ea9d99d2bac6381808c7ee69318be66dd3daf29c6bf4568786f8d","arctic","arctic","null","","<p>Incorrect</p>","","null","","","","","","","","","","","","","","","","","","","",""
"html-keyboard-response","21","306061","0.0-3.0-1.0-0.5","01d92d17ed0ea9d99d2bac6381808c7ee69318be66dd3daf29c6bf4568786f8d","arctic","arctic","null","","<div style=""font-size:60px;"">+</div>","","null","","","","","","","","","","","","","","","","","","","",""
"audio-button-response","22","311238","0.0-3.0-1.0-1.5","01d92d17ed0ea9d99d2bac6381808c7ee69318be66dd3daf29c6bf4568786f8d","arctic","arctic","5175","","audio/t2_2.mp3","1","","1","1","headphone-test","","","","","","","","","","","","","","","","",""
"html-keyboard-response","23","311739","0.0-3.0-1.0-2.5","01d92d17ed0ea9d99d2bac6381808c7ee69318be66dd3daf29c6bf4568786f8d","arctic","arctic","null","","<p>Correct</p>","","null","","","","","","","","","","","","","","","","","","","",""
"fullscreen","24","315346","0.0-4.0","01d92d17ed0ea9d99d2bac6381808c7ee69318be66dd3daf29c6bf4568786f8d","arctic","arctic","","","","","","","","","true","","","","","","","","","","","","","","","",""
"html-button-response","25","323606","0.0-5.0-0.0","01d92d17ed0ea9d99d2bac6381808c7ee69318be66dd3daf29c6bf4568786f8d","arctic","arctic","8259","","<p>There are two blocks to this experiment.</p><p>In each block, you will hear a ~13.5 minute story. One of the stories will be scrambled. Please listen carefully to both stories and understand them as best you can.</p><p>After each story, you will be asked some questions to assess your comprehension.</p>","0","","","","","","","","","","","","","","","","","","","","",""
"html-button-response","26","363108","0.0-5.0-1.0","01d92d17ed0ea9d99d2bac6381808c7ee69318be66dd3daf29c6bf4568786f8d","arctic","arctic","39501","","<p>During each story, there will be an additional task.</p><p>A letter will occasionally appear on the screen.</br>Your job is to - as quickly as you can - decide whether the letter is lowercase or uppercase and press one of two keys on the keyboard:</p><p>If the letter is <b>lowercase</b>, press key &lt;<b>x</b>&gt;.</p><p>If the letter is <b>uppercase</b>, press key &lt;<b>m</b>&gt;.</p>","0","","","","","","","","","","","","","","","","","","","","",""
"html-keyboard-response","27","369133","0.0-5.0-2.0","01d92d17ed0ea9d99d2bac6381808c7ee69318be66dd3daf29c6bf4568786f8d","arctic","arctic","6025","","<p>Because we want your responses to be as quick as possible, please keep your index fingers over the keys while listening.</p><p>Each block lasts about 20 minutes.</p><p><b>Press &lt;x&gt; or &lt;m&gt; to start the first block!</b></p>","","88","","","","","","","","","","","","","","","","","","","",""
"html-keyboard-response","28","369635","0.0-6.0-0.0-0.0","01d92d17ed0ea9d99d2bac6381808c7ee69318be66dd3daf29c6bf4568786f8d","arctic","arctic","null","","<div style=""font-size:60px;"" tabindex=""0"">+</div>","","null","","","","","","","","","","","","","","","","","","","",""
"dual-task","null","null","null","","arctic","arctic","NA","","F","null","NA","77","0","arctic-dual-task","","F","uppercase","12000","1","6","01d92d17ed0ea9d99d2bac6381808c7ee69318be66dd3daf29c6bf4568786f8d","12009.399999976158","NA","NA","0","arctic","","","","",""
"dual-task","null","null","null","","arctic","arctic","NA","","q","null","NA","88","0","arctic-dual-task","","q","lowercase","24000","1","6","01d92d17ed0ea9d99d2bac6381808c7ee69318be66dd3daf29c6bf4568786f8d","24019.299999952316","NA","NA","0","arctic","","","","",""
"dual-task","null","null","null","","arctic","arctic","1201.5","","N","null","77","77","1","arctic-dual-task","","N","uppercase","36000","0","6","01d92d17ed0ea9d99d2bac6381808c7ee69318be66dd3daf29c6bf4568786f8d","36003.199999928474","1201.5","77","1","arctic","","","","",""
"dual-task","null","null","null","","arctic","arctic","1765.8999999761581","","d","null","88","88","1","arctic-dual-task","","d","lowercase","46000","0","6","01d92d17ed0ea9d99d2bac6381808c7ee69318be66dd3daf29c6bf4568786f8d","46002.699999928474","1765.8999999761581","88","1","arctic","","","","",""
"dual-task","null","null","null","","arctic","arctic","824.2999999523163","","H","null","77","77","1","arctic-dual-task","","H","uppercase","60000","0","6","01d92d17ed0ea9d99d2bac6381808c7ee69318be66dd3daf29c6bf4568786f8d","60000.60000002384","824.2999999523163","77","1","arctic","","","","",""
"dual-task","null","null","null","","arctic","arctic","898.2000000476837","","d","null","88","88","1","arctic-dual-task","","d","lowercase","70000","0","6","01d92d17ed0ea9d99d2bac6381808c7ee69318be66dd3daf29c6bf4568786f8d","70006.10000002384","898.2000000476837","88","1","arctic","","","","",""
"dual-task","null","null","null","","arctic","arctic","569.1000000238419","","H","null","77","77","1","arctic-dual-task","","H","uppercase","82000","0","6","01d92d17ed0ea9d99d2bac6381808c7ee69318be66dd3daf29c6bf4568786f8d","82009.29999995232","569.1000000238419","77","1","arctic","","","","",""
"dual-task","null","null","null","","arctic","arctic","1192.3999999761581","","E","null","77","77","1","arctic-dual-task","","E","uppercase","92000","0","6","01d92d17ed0ea9d99d2bac6381808c7ee69318be66dd3daf29c6bf4568786f8d","92001.19999992847","1192.3999999761581","77","1","arctic","","","","",""
"dual-task","null","null","null","","arctic","arctic","877.2999999523163","","F","null","77","77","1","arctic-dual-task","","F","uppercase","104000","0","6","01d92d17ed0ea9d99d2bac6381808c7ee69318be66dd3daf29c6bf4568786f8d","104000.10000002384","877.2999999523163","77","1","arctic","","","","",""
"dual-task","null","null","null","","arctic","arctic","684.2000000476837","","n","null","88","88","1","arctic-dual-task","","n","lowercase","112000","0","6","01d92d17ed0ea9d99d2bac6381808c7ee69318be66dd3daf29c6bf4568786f8d","112011.39999997616","684.2000000476837","88","1","arctic","","","","",""
"dual-task","null","null","null","","arctic","arctic","510.10000002384186","","R","null","77","77","1","arctic-dual-task","","R","uppercase","120000","0","6","01d92d17ed0ea9d99d2bac6381808c7ee69318be66dd3daf29c6bf4568786f8d","120011","510.10000002384186","77","1","arctic","","","","",""
"dual-task","null","null","null","","arctic","arctic","608.3999999761581","","q","null","88","88","1","arctic-dual-task","","q","lowercase","130000","0","6","01d92d17ed0ea9d99d2bac6381808c7ee69318be66dd3daf29c6bf4568786f8d","130001.10000002384","608.3999999761581","88","1","arctic","","","","",""
"dual-task","null","null","null","","arctic","arctic","726.2000000476837","","b","null","88","88","1","arctic-dual-task","","b","lowercase","136000","0","6","01d92d17ed0ea9d99d2bac6381808c7ee69318be66dd3daf29c6bf4568786f8d","136010.39999997616","726.2000000476837","88","1","arctic","","","","",""
"dual-task","null","null","null","","arctic","arctic","811.7000000476837","","a","null","88","88","1","arctic-dual-task","","a","lowercase","144000","0","6","01d92d17ed0ea9d99d2bac6381808c7ee69318be66dd3daf29c6bf4568786f8d","144004.69999992847","811.7000000476837","88","1","arctic","","","","",""
"dual-task","null","null","null","","arctic","arctic","652.2999999523163","","B","null","77","77","1","arctic-dual-task","","B","uppercase","158000","0","6","01d92d17ed0ea9d99d2bac6381808c7ee69318be66dd3daf29c6bf4568786f8d","158000.29999995232","652.2999999523163","77","1","arctic","","","","",""
"dual-task","null","null","null","","arctic","arctic","589.1000000238419","","e","null","88","88","1","arctic-dual-task","","e","lowercase","168000","0","6","01d92d17ed0ea9d99d2bac6381808c7ee69318be66dd3daf29c6bf4568786f8d","168006.29999995232","589.1000000238419","88","1","arctic","","","","",""
"dual-task","null","null","null","","arctic","arctic","582.3000000715256","","G","null","77","77","1","arctic-dual-task","","G","uppercase","178000","0","6","01d92d17ed0ea9d99d2bac6381808c7ee69318be66dd3daf29c6bf4568786f8d","178001","582.3000000715256","77","1","arctic","","","","",""
"dual-task","null","null","null","","arctic","arctic","488.90000009536743","","T","null","77","77","1","arctic-dual-task","","T","uppercase","188000","0","6","01d92d17ed0ea9d99d2bac6381808c7ee69318be66dd3daf29c6bf4568786f8d","188012.69999992847","488.90000009536743","77","1","arctic","","","","",""
"dual-task","null","null","null","","arctic","arctic","569.6000000238419","","r","null","88","88","1","arctic-dual-task","","r","lowercase","202000","0","6","01d92d17ed0ea9d99d2bac6381808c7ee69318be66dd3daf29c6bf4568786f8d","202012","569.6000000238419","88","1","arctic","","","","",""
"dual-task","null","null","null","","arctic","arctic","621.7999999523163","","t","null","88","88","1","arctic-dual-task","","t","lowercase","214000","0","6","01d92d17ed0ea9d99d2bac6381808c7ee69318be66dd3daf29c6bf4568786f8d","214012.10000002384","621.7999999523163","88","1","arctic","","","","",""
"dual-task","null","null","null","","arctic","arctic","1099.3000000715256","","g","null","88","88","1","arctic-dual-task","","g","lowercase","220000","0","6","01d92d17ed0ea9d99d2bac6381808c7ee69318be66dd3daf29c6bf4568786f8d","220010.29999995232","1099.3000000715256","88","1","arctic","","","","",""
"dual-task","null","null","null","","arctic","arctic","617.9000000953674","","h","null","88","88","1","arctic-dual-task","","h","lowercase","232000","0","6","01d92d17ed0ea9d99d2bac6381808c7ee69318be66dd3daf29c6bf4568786f8d","232004","617.9000000953674","88","1","arctic","","","","",""
"dual-task","null","null","null","","arctic","arctic","369.40000009536743","","N","null","88","77","0","arctic-dual-task","","N","uppercase","240000","0","6","01d92d17ed0ea9d99d2bac6381808c7ee69318be66dd3daf29c6bf4568786f8d","240001.5","369.40000009536743","88","0","arctic","","","","",""
"dual-task","null","null","null","","arctic","arctic","492.2000000476837","","F","null","77","77","1","arctic-dual-task","","F","uppercase","248000","0","6","01d92d17ed0ea9d99d2bac6381808c7ee69318be66dd3daf29c6bf4568786f8d","248011.5","492.2000000476837","77","1","arctic","","","","",""
"dual-task","null","null","null","","arctic","arctic","529.3999999761581","","n","null","88","88","1","arctic-dual-task","","n","lowercase","258000","0","6","01d92d17ed0ea9d99d2bac6381808c7ee69318be66dd3daf29c6bf4568786f8d","258014.69999992847","529.3999999761581","88","1","arctic","","","","",""
"dual-task","null","null","null","","arctic","arctic","604.5999999046326","","A","null","77","77","1","arctic-dual-task","","A","uppercase","270000","0","6","01d92d17ed0ea9d99d2bac6381808c7ee69318be66dd3daf29c6bf4568786f8d","270000.1999999285","604.5999999046326","77","1","arctic","","","","",""
"dual-task","null","null","null","","arctic","arctic","631.1000000238419","","D","null","77","77","1","arctic-dual-task","","D","uppercase","282000","0","6","01d92d17ed0ea9d99d2bac6381808c7ee69318be66dd3daf29c6bf4568786f8d","282011.1999999285","631.1000000238419","77","1","arctic","","","","",""
"dual-task","null","null","null","","arctic","arctic","499.5","","B","null","77","77","1","arctic-dual-task","","B","uppercase","292000","0","6","01d92d17ed0ea9d99d2bac6381808c7ee69318be66dd3daf29c6bf4568786f8d","292013.2999999523","499.5","77","1","arctic","","","","",""
"dual-task","null","null","null","","arctic","arctic","561.6000000238419","","N","null","77","77","1","arctic-dual-task","","N","uppercase","300000","0","6","01d92d17ed0ea9d99d2bac6381808c7ee69318be66dd3daf29c6bf4568786f8d","300011.1999999285","561.6000000238419","77","1","arctic","","","","",""
"dual-task","null","null","null","","arctic","arctic","566.3999999761581","","e","null","88","88","1","arctic-dual-task","","e","lowercase","306000","0","6","01d92d17ed0ea9d99d2bac6381808c7ee69318be66dd3daf29c6bf4568786f8d","306004.5","566.3999999761581","88","1","arctic","","","","",""
"dual-task","null","null","null","","arctic","arctic","484.7999999523163","","f","null","88","88","1","arctic-dual-task","","f","lowercase","312000","0","6","01d92d17ed0ea9d99d2bac6381808c7ee69318be66dd3daf29c6bf4568786f8d","312002.1999999285","484.7999999523163","88","1","arctic","","","","",""
"dual-task","null","null","null","","arctic","arctic","376","","e","null","88","88","1","arctic-dual-task","","e","lowercase","318000","0","6","01d92d17ed0ea9d99d2bac6381808c7ee69318be66dd3daf29c6bf4568786f8d","318007.39999997616","376","88","1","arctic","","","","",""
"dual-task","null","null","null","","arctic","arctic","565.7000000476837","","h","null","88","88","1","arctic-dual-task","","h","lowercase","332000","0","6","01d92d17ed0ea9d99d2bac6381808c7ee69318be66dd3daf29c6bf4568786f8d","332015.1999999285","565.7000000476837","88","1","arctic","","","","",""
"dual-task","null","null","null","","arctic","arctic","495","","e","null","88","88","1","arctic-dual-task","","e","lowercase","344000","0","6","01d92d17ed0ea9d99d2bac6381808c7ee69318be66dd3daf29c6bf4568786f8d","344003.10000002384","495","88","1","arctic","","","","",""
"dual-task","null","null","null","","arctic","arctic","550.6000000238419","","q","null","88","88","1","arctic-dual-task","","q","lowercase","350000","0","6","01d92d17ed0ea9d99d2bac6381808c7ee69318be66dd3daf29c6bf4568786f8d","350002.2999999523","550.6000000238419","88","1","arctic","","","","",""
"dual-task","null","null","null","","arctic","arctic","489.3000000715256","","g","null","88","88","1","arctic-dual-task","","g","lowercase","356000","0","6","01d92d17ed0ea9d99d2bac6381808c7ee69318be66dd3daf29c6bf4568786f8d","356002","489.3000000715256","88","1","arctic","","","","",""
"dual-task","null","null","null","","arctic","arctic","466.5","","R","null","77","77","1","arctic-dual-task","","R","uppercase","368000","0","6","01d92d17ed0ea9d99d2bac6381808c7ee69318be66dd3daf29c6bf4568786f8d","368002.2999999523","466.5","77","1","arctic","","","","",""
"dual-task","null","null","null","","arctic","arctic","484.5","","g","null","88","88","1","arctic-dual-task","","g","lowercase","378000","0","6","01d92d17ed0ea9d99d2bac6381808c7ee69318be66dd3daf29c6bf4568786f8d","378012.39999997616","484.5","88","1","arctic","","","","",""
"dual-task","null","null","null","","arctic","arctic","512.8999999761581","","T","null","88","77","0","arctic-dual-task","","T","uppercase","390000","0","6","01d92d17ed0ea9d99d2bac6381808c7ee69318be66dd3daf29c6bf4568786f8d","390002.1999999285","512.8999999761581","88","0","arctic","","","","",""
"dual-task","null","null","null","","arctic","arctic","532.8999999761581","","R","null","77","77","1","arctic-dual-task","","R","uppercase","402000","0","6","01d92d17ed0ea9d99d2bac6381808c7ee69318be66dd3daf29c6bf4568786f8d","402002.2999999523","532.8999999761581","77","1","arctic","","","","",""
"dual-task","null","null","null","","arctic","arctic","569.1000000238419","","q","null","88","88","1","arctic-dual-task","","q","lowercase","408000","0","6","01d92d17ed0ea9d99d2bac6381808c7ee69318be66dd3daf29c6bf4568786f8d","408012.5","569.1000000238419","88","1","arctic","","","","",""
"dual-task","null","null","null","","arctic","arctic","625.6000000238419","","a","null","88","88","1","arctic-dual-task","","a","lowercase","414000","0","6","01d92d17ed0ea9d99d2bac6381808c7ee69318be66dd3daf29c6bf4568786f8d","414007.1999999285","625.6000000238419","88","1","arctic","","","","",""
"dual-task","null","null","null","","arctic","arctic","527.2000000476837","","E","null","77","77","1","arctic-dual-task","","E","uppercase","428000","0","6","01d92d17ed0ea9d99d2bac6381808c7ee69318be66dd3daf29c6bf4568786f8d","428013.2999999523","527.2000000476837","77","1","arctic","","","","",""
"dual-task","null","null","null","","arctic","arctic","669.6000000238419","","r","null","88","88","1","arctic-dual-task","","r","lowercase","442000","0","6","01d92d17ed0ea9d99d2bac6381808c7ee69318be66dd3daf29c6bf4568786f8d","442013.10000002384","669.6000000238419","88","1","arctic","","","","",""
"dual-task","null","null","null","","arctic","arctic","431.40000009536743","","Q","null","77","77","1","arctic-dual-task","","Q","uppercase","448000","0","6","01d92d17ed0ea9d99d2bac6381808c7ee69318be66dd3daf29c6bf4568786f8d","448013","431.40000009536743","77","1","arctic","","","","",""
"dual-task","null","null","null","","arctic","arctic","527.3999999761581","","H","null","77","77","1","arctic-dual-task","","H","uppercase","458000","0","6","01d92d17ed0ea9d99d2bac6381808c7ee69318be66dd3daf29c6bf4568786f8d","458007.6999999285","527.3999999761581","77","1","arctic","","","","",""
"dual-task","null","null","null","","arctic","arctic","442.8000000715256","","H","null","77","77","1","arctic-dual-task","","H","uppercase","468000","0","6","01d92d17ed0ea9d99d2bac6381808c7ee69318be66dd3daf29c6bf4568786f8d","468013.60000002384","442.8000000715256","77","1","arctic","","","","",""
"dual-task","null","null","null","","arctic","arctic","519.0999999046326","","t","null","88","88","1","arctic-dual-task","","t","lowercase","476000","0","6","01d92d17ed0ea9d99d2bac6381808c7ee69318be66dd3daf29c6bf4568786f8d","476008.2999999523","519.0999999046326","88","1","arctic","","","","",""
"dual-task","null","null","null","","arctic","arctic","516.6000000238419","","b","null","88","88","1","arctic-dual-task","","b","lowercase","486000","0","6","01d92d17ed0ea9d99d2bac6381808c7ee69318be66dd3daf29c6bf4568786f8d","486013.6999999285","516.6000000238419","88","1","arctic","","","","",""
"dual-task","null","null","null","","arctic","arctic","484.60000002384186","","n","null","88","88","1","arctic-dual-task","","n","lowercase","496000","0","6","01d92d17ed0ea9d99d2bac6381808c7ee69318be66dd3daf29c6bf4568786f8d","496012.10000002384","484.60000002384186","88","1","arctic","","","","",""
"dual-task","null","null","null","","arctic","arctic","528.8999999761581","","t","null","88","88","1","arctic-dual-task","","t","lowercase","506000","0","6","01d92d17ed0ea9d99d2bac6381808c7ee69318be66dd3daf29c6bf4568786f8d","506008.2999999523","528.8999999761581","88","1","arctic","","","","",""
"dual-task","null","null","null","","arctic","arctic","394.59999990463257","","n","null","88","88","1","arctic-dual-task","","n","lowercase","516000","0","6","01d92d17ed0ea9d99d2bac6381808c7ee69318be66dd3daf29c6bf4568786f8d","516007.89999997616","394.59999990463257","88","1","arctic","","","","",""
"dual-task","null","null","null","","arctic","arctic","580.5","","Q","null","77","77","1","arctic-dual-task","","Q","uppercase","524000","0","6","01d92d17ed0ea9d99d2bac6381808c7ee69318be66dd3daf29c6bf4568786f8d","524003.5","580.5","77","1","arctic","","","","",""
"dual-task","null","null","null","","arctic","arctic","422.5","","E","null","77","77","1","arctic-dual-task","","E","uppercase","532000","0","6","01d92d17ed0ea9d99d2bac6381808c7ee69318be66dd3daf29c6bf4568786f8d","532000.6999999285","422.5","77","1","arctic","","","","",""
"dual-task","null","null","null","","arctic","arctic","562.3999999761581","","f","null","88","88","1","arctic-dual-task","","f","lowercase","540000","0","6","01d92d17ed0ea9d99d2bac6381808c7ee69318be66dd3daf29c6bf4568786f8d","540008.1000000238","562.3999999761581","88","1","arctic","","","","",""
"dual-task","null","null","null","","arctic","arctic","541.2000000476837","","D","null","77","77","1","arctic-dual-task","","D","uppercase","548000","0","6","01d92d17ed0ea9d99d2bac6381808c7ee69318be66dd3daf29c6bf4568786f8d","548013.6999999285","541.2000000476837","77","1","arctic","","","","",""
"dual-task","null","null","null","","arctic","arctic","464.7000000476837","","d","null","88","88","1","arctic-dual-task","","d","lowercase","558000","0","6","01d92d17ed0ea9d99d2bac6381808c7ee69318be66dd3daf29c6bf4568786f8d","558013","464.7000000476837","88","1","arctic","","","","",""
"dual-task","null","null","null","","arctic","arctic","448.40000009536743","","G","null","77","77","1","arctic-dual-task","","G","uppercase","566000","0","6","01d92d17ed0ea9d99d2bac6381808c7ee69318be66dd3daf29c6bf4568786f8d","566003.6999999285","448.40000009536743","77","1","arctic","","","","",""
"dual-task","null","null","null","","arctic","arctic","399.7999999523163","","T","null","88","77","0","arctic-dual-task","","T","uppercase","574000","0","6","01d92d17ed0ea9d99d2bac6381808c7ee69318be66dd3daf29c6bf4568786f8d","574015.5","399.7999999523163","88","0","arctic","","","","",""
"dual-task","null","null","null","","arctic","arctic","496.2000000476837","","E","null","77","77","1","arctic-dual-task","","E","uppercase","582000","0","6","01d92d17ed0ea9d99d2bac6381808c7ee69318be66dd3daf29c6bf4568786f8d","582011.6000000238","496.2000000476837","77","1","arctic","","","","",""
"dual-task","null","null","null","","arctic","arctic","494.89999997615814","","f","null","88","88","1","arctic-dual-task","","f","lowercase","588000","0","6","01d92d17ed0ea9d99d2bac6381808c7ee69318be66dd3daf29c6bf4568786f8d","588015.1999999285","494.89999997615814","88","1","arctic","","","","",""
"dual-task","null","null","null","","arctic","arctic","528.7000000476837","","r","null","88","88","1","arctic-dual-task","","r","lowercase","596000","0","6","01d92d17ed0ea9d99d2bac6381808c7ee69318be66dd3daf29c6bf4568786f8d","596014.1999999285","528.7000000476837","88","1","arctic","","","","",""
"dual-task","null","null","null","","arctic","arctic","560.8000000715256","","D","null","77","77","1","arctic-dual-task","","D","uppercase","606000","0","6","01d92d17ed0ea9d99d2bac6381808c7ee69318be66dd3daf29c6bf4568786f8d","606009.5","560.8000000715256","77","1","arctic","","","","",""
"dual-task","null","null","null","","arctic","arctic","423.3000000715256","","t","null","88","88","1","arctic-dual-task","","t","lowercase","616000","0","6","01d92d17ed0ea9d99d2bac6381808c7ee69318be66dd3daf29c6bf4568786f8d","616000.5","423.3000000715256","88","1","arctic","","","","",""
"dual-task","null","null","null","","arctic","arctic","363.5","","G","null","77","77","1","arctic-dual-task","","G","uppercase","626000","0","6","01d92d17ed0ea9d99d2bac6381808c7ee69318be66dd3daf29c6bf4568786f8d","626009.6999999285","363.5","77","1","arctic","","","","",""
"dual-task","null","null","null","","arctic","arctic","614.8999999761581","","F","null","88","77","0","arctic-dual-task","","F","uppercase","634000","0","6","01d92d17ed0ea9d99d2bac6381808c7ee69318be66dd3daf29c6bf4568786f8d","634014.7999999523","614.8999999761581","88","0","arctic","","","","",""
"dual-task","null","null","null","","arctic","arctic","406.39999997615814","","A","null","77","77","1","arctic-dual-task","","A","uppercase","640000","0","6","01d92d17ed0ea9d99d2bac6381808c7ee69318be66dd3daf29c6bf4568786f8d","640014.5","406.39999997615814","77","1","arctic","","","","",""
"dual-task","null","null","null","","arctic","arctic","462","","T","null","77","77","1","arctic-dual-task","","T","uppercase","648000","0","6","01d92d17ed0ea9d99d2bac6381808c7ee69318be66dd3daf29c6bf4568786f8d","648014.3999999762","462","77","1","arctic","","","","",""
"dual-task","null","null","null","","arctic","arctic","451.5","","B","null","88","77","0","arctic-dual-task","","B","uppercase","660000","0","6","01d92d17ed0ea9d99d2bac6381808c7ee69318be66dd3daf29c6bf4568786f8d","660010.6000000238","451.5","88","0","arctic","","","","",""
"dual-task","null","null","null","","arctic","arctic","430","","B","null","88","77","0","arctic-dual-task","","B","uppercase","668000","0","6","01d92d17ed0ea9d99d2bac6381808c7ee69318be66dd3daf29c6bf4568786f8d","668005.1999999285","430","88","0","arctic","","","","",""
"dual-task","null","null","null","","arctic","arctic","492.7999999523163","","b","null","88","88","1","arctic-dual-task","","b","lowercase","676000","0","6","01d92d17ed0ea9d99d2bac6381808c7ee69318be66dd3daf29c6bf4568786f8d","676015.1999999285","492.7999999523163","88","1","arctic","","","","",""
"dual-task","null","null","null","","arctic","arctic","428.10000002384186","","Q","null","77","77","1","arctic-dual-task","","Q","uppercase","686000","0","6","01d92d17ed0ea9d99d2bac6381808c7ee69318be66dd3daf29c6bf4568786f8d","686015","428.10000002384186","77","1","arctic","","","","",""
"dual-task","null","null","null","","arctic","arctic","619.1000000238419","","h","null","88","88","1","arctic-dual-task","","h","lowercase","692000","0","6","01d92d17ed0ea9d99d2bac6381808c7ee69318be66dd3daf29c6bf4568786f8d","692005","619.1000000238419","88","1","arctic","","","","",""
"dual-task","null","null","null","","arctic","arctic","562.7000000476837","","h","null","88","88","1","arctic-dual-task","","h","lowercase","702000","0","6","01d92d17ed0ea9d99d2bac6381808c7ee69318be66dd3daf29c6bf4568786f8d","702015.6999999285","562.7000000476837","88","1","arctic","","","","",""
"dual-task","null","null","null","","arctic","arctic","402.2000000476837","","A","null","77","77","1","arctic-dual-task","","A","uppercase","710000","0","6","01d92d17ed0ea9d99d2bac6381808c7ee69318be66dd3daf29c6bf4568786f8d","710014.6000000238","402.2000000476837","77","1","arctic","","","","",""
"dual-task","null","null","null","","arctic","arctic","589.1999999284744","","G","null","77","77","1","arctic-dual-task","","G","uppercase","716000","0","6","01d92d17ed0ea9d99d2bac6381808c7ee69318be66dd3daf29c6bf4568786f8d","716005.2999999523","589.1999999284744","77","1","arctic","","","","",""
"dual-task","null","null","null","","arctic","arctic","486.90000009536743","","N","null","77","77","1","arctic-dual-task","","N","uppercase","724000","0","6","01d92d17ed0ea9d99d2bac6381808c7ee69318be66dd3daf29c6bf4568786f8d","724015.1999999285","486.90000009536743","77","1","arctic","","","","",""
"dual-task","null","null","null","","arctic","arctic","376.7999999523163","","A","null","77","77","1","arctic-dual-task","","A","uppercase","732000","0","6","01d92d17ed0ea9d99d2bac6381808c7ee69318be66dd3daf29c6bf4568786f8d","732013.2999999523","376.7999999523163","77","1","arctic","","","","",""
"dual-task","null","null","null","","arctic","arctic","303.39999997615814","","a","null","88","88","1","arctic-dual-task","","a","lowercase","740000","0","6","01d92d17ed0ea9d99d2bac6381808c7ee69318be66dd3daf29c6bf4568786f8d","740005.6000000238","303.39999997615814","88","1","arctic","","","","",""
"dual-task","null","null","null","","arctic","arctic","362.3000000715256","","R","null","77","77","1","arctic-dual-task","","R","uppercase","748000","0","6","01d92d17ed0ea9d99d2bac6381808c7ee69318be66dd3daf29c6bf4568786f8d","748011","362.3000000715256","77","1","arctic","","","","",""
"dual-task","null","null","null","","arctic","arctic","521.6999999284744","","r","null","88","88","1","arctic-dual-task","","r","lowercase","760000","0","6","01d92d17ed0ea9d99d2bac6381808c7ee69318be66dd3daf29c6bf4568786f8d","760007.3999999762","521.6999999284744","88","1","arctic","","","","",""
"dual-task","null","null","null","","arctic","arctic","443.7000000476837","","f","null","88","88","1","arctic-dual-task","","f","lowercase","770000","0","6","01d92d17ed0ea9d99d2bac6381808c7ee69318be66dd3daf29c6bf4568786f8d","770002.1999999285","443.7000000476837","88","1","arctic","","","","",""
"dual-task","null","null","null","","arctic","arctic","1844.8999999761581","","d","null","88","88","1","arctic-dual-task","","d","lowercase","776000","0","6","01d92d17ed0ea9d99d2bac6381808c7ee69318be66dd3daf29c6bf4568786f8d","776016","1844.8999999761581","88","1","arctic","","","","",""
"dual-task","null","null","null","","arctic","arctic","536.3000000715256","","a","null","88","88","1","arctic-dual-task","","a","lowercase","790000","0","6","01d92d17ed0ea9d99d2bac6381808c7ee69318be66dd3daf29c6bf4568786f8d","790008.6000000238","536.3000000715256","88","1","arctic","","","","",""
"audio-keyboard-response","29","1167734","0.0-6.0-0.0-1.0","01d92d17ed0ea9d99d2bac6381808c7ee69318be66dd3daf29c6bf4568786f8d","arctic","arctic","null","","audio/story_arctic_scrambled.mp3","","null","","","","","","","","","","","","","","","","","","","",""
"html-button-response","30","1185743","0.0-6.0-0.0-2.0","01d92d17ed0ea9d99d2bac6381808c7ee69318be66dd3daf29c6bf4568786f8d","arctic","arctic","18006","","<p>This concludes the story. Thank you for listening.</p><p>You will now answer some questions about the content of the story.</p>","0","","","","","","","","","","","","","","","","","","","","",""
"survey-multi-choice","31","1214019","0.0-6.0-0.0-3.0-0.0","01d92d17ed0ea9d99d2bac6381808c7ee69318be66dd3daf29c6bf4568786f8d","arctic","arctic","28270","","<b>What were the weather conditions in the Arctic like the winter of the narrator&#39;s expedition?</b>","","","","0","arctic-comprehension","","","","","","","","","","","","","{""Q0"":""There were fewer storms than any other winter in recorded history.""}","","","",""
"survey-multi-choice","32","1222199","0.0-6.0-0.0-3.0-0.1","01d92d17ed0ea9d99d2bac6381808c7ee69318be66dd3daf29c6bf4568786f8d","arctic","arctic","7924","","<b>What is the name of the narrator&#39;s neighbour?</b>","","","","1","arctic-comprehension","","","","","","","","","","","","","{""Q0"":""Dave""}","","","",""
"survey-multi-choice","33","1239521","0.0-6.0-0.0-3.0-0.2","01d92d17ed0ea9d99d2bac6381808c7ee69318be66dd3daf29c6bf4568786f8d","arctic","arctic","17065","","<b>How did the narrator&#39;s neighbour respond when she told him about her expedition?</b>","","","","0","arctic-comprehension","","","","","","","","","","","","","{""Q0"":""He said he was worried about her.""}","","","",""
"survey-multi-choice","34","1247416","0.0-6.0-0.0-3.0-0.3","01d92d17ed0ea9d99d2bac6381808c7ee69318be66dd3daf29c6bf4568786f8d","arctic","arctic","7638","","<b>How did the dogs respond when they saw the bears?</b>","","","","0","arctic-comprehension","","","","","","","","","","","","","{""Q0"":""Barked aggressively""}","","","",""
"survey-multi-choice","35","1254100","0.0-6.0-0.0-3.0-0.4","01d92d17ed0ea9d99d2bac6381808c7ee69318be66dd3daf29c6bf4568786f8d","arctic","arctic","6429","","<b>How did the narrator prepare for her expedition?</b>","","","","1","arctic-comprehension","","","","","","","","","","","","","{""Q0"":""Trained in Alaska learning how to dogsled""}","","","",""
"survey-multi-choice","36","1260331","0.0-6.0-0.0-3.0-0.5","01d92d17ed0ea9d99d2bac6381808c7ee69318be66dd3daf29c6bf4568786f8d","arctic","arctic","5973","","<b>What was the objective of the narrator&#39;s expedition?</b>","","","","1","arctic-comprehension","","","","","","","","","","","","","{""Q0"":""Dogsled across Arctic America""}","","","",""
"survey-multi-choice","37","1269310","0.0-6.0-0.0-3.0-0.6","01d92d17ed0ea9d99d2bac6381808c7ee69318be66dd3daf29c6bf4568786f8d","arctic","arctic","8725","","<b>How did the narrator&#39;s encounter with the polar bears end?</b>","","","","1","arctic-comprehension","","","","","","","","","","","","","{""Q0"":""The bears walked back to their den.""}","","","",""
"survey-multi-choice","38","1278812","0.0-6.0-0.0-3.0-0.7","01d92d17ed0ea9d99d2bac6381808c7ee69318be66dd3daf29c6bf4568786f8d","arctic","arctic","9248","","<b>How many sponsorships did the narrator receive to support her expedition?</b>","","","","1","arctic-comprehension","","","","","","","","","","","","","{""Q0"":""None""}","","","",""
"survey-multi-choice","39","1284059","0.0-6.0-0.0-3.0-0.8","01d92d17ed0ea9d99d2bac6381808c7ee69318be66dd3daf29c6bf4568786f8d","arctic","arctic","4993","","<b>What did the narrator do for leisure while in her tent?</b>","","","","1","arctic-comprehension","","","","","","","","","","","","","{""Q0"":""Read""}","","","",""
"survey-multi-choice","40","1297402","0.0-6.0-0.0-3.0-0.9","01d92d17ed0ea9d99d2bac6381808c7ee69318be66dd3daf29c6bf4568786f8d","arctic","arctic","13090","","<b>Which dog on the narrator&#39;s dog team never followed instructions?</b>","","","","1","arctic-comprehension","","","","","","","","","","","","","{""Q0"":""Robert""}","","","",""
"html-button-response","41","1308715","0.0-6.0-0.0-4.0","01d92d17ed0ea9d99d2bac6381808c7ee69318be66dd3daf29c6bf4568786f8d","arctic","arctic","11061","","<p>Thank you for your responses.</p><p>You will now answer some questions about your impressions of the story.</p>","0","","","","","","","","","","","","","","","","","","","","",""
"html-button-response","42","1312848","0.0-6.0-0.0-5.0-0.0","01d92d17ed0ea9d99d2bac6381808c7ee69318be66dd3daf29c6bf4568786f8d","arctic","arctic","4131","","EE3","3","","","","arctic-engagement","","","","","","","","","","","","","","4","emo-engage","",""
"html-button-response","43","1316892","0.0-6.0-0.0-5.0-0.1","01d92d17ed0ea9d99d2bac6381808c7ee69318be66dd3daf29c6bf4568786f8d","arctic","arctic","3791","","EE1","4","","","","arctic-engagement","","","","","","","","","","","","","","5","emo-engage","",""
"html-button-response","44","1322661","0.0-6.0-0.0-5.0-0.2","01d92d17ed0ea9d99d2bac6381808c7ee69318be66dd3daf29c6bf4568786f8d","arctic","arctic","5516","","MS2","4","","","","arctic-engagement","","","","","","","","","","","","","","5","mental-sim","",""
"html-button-response","45","1326030","0.0-6.0-0.0-5.0-0.3","01d92d17ed0ea9d99d2bac6381808c7ee69318be66dd3daf29c6bf4568786f8d","arctic","arctic","3115","","E7","4","","","","arctic-engagement","","","","","","","","","","","","","","5","enjoyment","",""
"html-button-response","46","1329005","0.0-6.0-0.0-5.0-0.4","01d92d17ed0ea9d99d2bac6381808c7ee69318be66dd3daf29c6bf4568786f8d","arctic","arctic","2722","","E1","3","","","","arctic-engagement","","","","","","","","","","","","","","4","enjoyment","",""
"html-button-response","47","1331760","0.0-6.0-0.0-5.0-0.5","01d92d17ed0ea9d99d2bac6381808c7ee69318be66dd3daf29c6bf4568786f8d","arctic","arctic","2503","","E10","3","","","","arctic-engagement","","","","","","","","","","","","","","4","enjoyment","",""
"html-button-response","48","1334850","0.0-6.0-0.0-5.0-0.6","01d92d17ed0ea9d99d2bac6381808c7ee69318be66dd3daf29c6bf4568786f8d","arctic","arctic","2838","","E6","3","","","","arctic-engagement","","","","","","","","","","","","","","4","enjoyment","",""
"html-button-response","49","1338778","0.0-6.0-0.0-5.0-0.7","01d92d17ed0ea9d99d2bac6381808c7ee69318be66dd3daf29c6bf4568786f8d","arctic","arctic","3675","","A4","0","","","","arctic-engagement","","","","","","","","","","","","","","1","absorption","",""
"html-button-response","50","1344441","0.0-6.0-0.0-5.0-0.8","01d92d17ed0ea9d99d2bac6381808c7ee69318be66dd3daf29c6bf4568786f8d","arctic","arctic","5410","","A1","3","","","","arctic-engagement","","","","","","","","","","","","","","4","absorption","",""
"html-button-response","51","1347012","0.0-6.0-0.0-5.0-0.9","01d92d17ed0ea9d99d2bac6381808c7ee69318be66dd3daf29c6bf4568786f8d","arctic","arctic","2318","","EE5","4","","","","arctic-engagement","","","","","","","","","","","","","","5","emo-engage","",""
"html-button-response","52","1349641","0.0-6.0-0.0-5.0-0.10","01d92d17ed0ea9d99d2bac6381808c7ee69318be66dd3daf29c6bf4568786f8d","arctic","arctic","2376","","A3","3","","","","arctic-engagement","","","","","","","","","","","","","","4","absorption","",""
"html-button-response","53","1352860","0.0-6.0-0.0-5.0-0.11","01d92d17ed0ea9d99d2bac6381808c7ee69318be66dd3daf29c6bf4568786f8d","arctic","arctic","2965","","MS3","4","","","","arctic-engagement","","","","","","","","","","","","","","5","mental-sim","",""
"html-button-response","54","1355136","0.0-6.0-0.0-5.0-0.12","01d92d17ed0ea9d99d2bac6381808c7ee69318be66dd3daf29c6bf4568786f8d","arctic","arctic","2024","","EE4","3","","","","arctic-engagement","","","","","","","","","","","","","","4","emo-engage","",""
"html-button-response","55","1357240","0.0-6.0-0.0-5.0-0.13","01d92d17ed0ea9d99d2bac6381808c7ee69318be66dd3daf29c6bf4568786f8d","arctic","arctic","1852","","E8","3","","","","arctic-engagement","","","","","","","","","","","","","","4","enjoyment","",""
"html-button-response","56","1360765","0.0-6.0-0.0-5.0-0.14","01d92d17ed0ea9d99d2bac6381808c7ee69318be66dd3daf29c6bf4568786f8d","arctic","arctic","3272","","EE2","0","","","","arctic-engagement","","","","","","","","","","","","","","1","emo-engage","",""
"html-button-response","57","1363876","0.0-6.0-0.0-5.0-0.15","01d92d17ed0ea9d99d2bac6381808c7ee69318be66dd3daf29c6bf4568786f8d","arctic","arctic","2858","","A5","0","","","","arctic-engagement","","","","","","","","","","","","","","1","absorption","",""
"html-button-response","58","1367546","0.0-6.0-0.0-5.0-0.16","01d92d17ed0ea9d99d2bac6381808c7ee69318be66dd3daf29c6bf4568786f8d","arctic","arctic","3417","","A2","6","","","","arctic-engagement","","","","","","","","","","","","","","7","absorption","",""
"html-button-response","59","1371334","0.0-6.0-0.0-5.0-0.17","01d92d17ed0ea9d99d2bac6381808c7ee69318be66dd3daf29c6bf4568786f8d","arctic","arctic","3535","","MS1","3","","","","arctic-engagement","","","","","","","","","","","","","","4","mental-sim","",""
"html-keyboard-response","60","1394858","0.0-6.0-1.0","01d92d17ed0ea9d99d2bac6381808c7ee69318be66dd3daf29c6bf4568786f8d","arctic","arctic","23274","","<p>Thank you for your responses. You will now listen to the second story.</p><p>Remember, as you listen to the story you will see letters appear on the screen.</br>As quickly as possible, press <b>&lt;x&gt;</b> if the letter is lowercase and <b>&lt;m&gt;</b> if the letter is uppercase.</p><p>Press <b>&lt;x&gt;</b> or <b>&lt;m&gt;</b> to begin listening!</p>","","88","","","","","","","","","","","","","","","","","","","",""
"html-keyboard-response","61","1395360","0.0-6.0-2.0-0.0","01d92d17ed0ea9d99d2bac6381808c7ee69318be66dd3daf29c6bf4568786f8d","arctic","arctic","null","","<div style=""font-size:60px;"" tabindex=""0"">+</div>","","null","","","","","","","","","","","","","","","","","","","",""
"dual-task","null","null","null","","arctic","arctic","896.3999999761581","","f","null","88","88","1","swim-dual-task","","f","lowercase","18000","0","6","01d92d17ed0ea9d99d2bac6381808c7ee69318be66dd3daf29c6bf4568786f8d","18010.899999976158","896.3999999761581","88","1","swim","","","","",""
"dual-task","null","null","null","","arctic","arctic","612.8999999761581","","a","null","88","88","1","swim-dual-task","","a","lowercase","30000","0","6","01d92d17ed0ea9d99d2bac6381808c7ee69318be66dd3daf29c6bf4568786f8d","30008.699999928474","612.8999999761581","88","1","swim","","","","",""
"dual-task","null","null","null","","arctic","arctic","656.4000000953674","","E","null","77","77","1","swim-dual-task","","E","uppercase","40000","0","6","01d92d17ed0ea9d99d2bac6381808c7ee69318be66dd3daf29c6bf4568786f8d","40004.799999952316","656.4000000953674","77","1","swim","","","","",""
"dual-task","null","null","null","","arctic","arctic","524.6000000238419","","q","null","88","88","1","swim-dual-task","","q","lowercase","54000","0","6","01d92d17ed0ea9d99d2bac6381808c7ee69318be66dd3daf29c6bf4568786f8d","54006.299999952316","524.6000000238419","88","1","swim","","","","",""
"dual-task","null","null","null","","arctic","arctic","424.39999997615814","","Q","null","77","77","1","swim-dual-task","","Q","uppercase","62000","0","6","01d92d17ed0ea9d99d2bac6381808c7ee69318be66dd3daf29c6bf4568786f8d","62001.09999990463","424.39999997615814","77","1","swim","","","","",""
"dual-task","null","null","null","","arctic","arctic","676.2999999523163","","F","null","77","77","1","swim-dual-task","","F","uppercase","76000","0","6","01d92d17ed0ea9d99d2bac6381808c7ee69318be66dd3daf29c6bf4568786f8d","76011.59999990463","676.2999999523163","77","1","swim","","","","",""
"dual-task","null","null","null","","arctic","arctic","488.8000000715256","","G","null","77","77","1","swim-dual-task","","G","uppercase","86000","0","6","01d92d17ed0ea9d99d2bac6381808c7ee69318be66dd3daf29c6bf4568786f8d","86006.89999997616","488.8000000715256","77","1","swim","","","","",""
"dual-task","null","null","null","","arctic","arctic","733.5","","r","null","88","88","1","swim-dual-task","","r","lowercase","100000","0","6","01d92d17ed0ea9d99d2bac6381808c7ee69318be66dd3daf29c6bf4568786f8d","100006.89999997616","733.5","88","1","swim","","","","",""
"dual-task","null","null","null","","arctic","arctic","458.59999990463257","","T","null","77","77","1","swim-dual-task","","T","uppercase","106000","0","6","01d92d17ed0ea9d99d2bac6381808c7ee69318be66dd3daf29c6bf4568786f8d","106021.29999995232","458.59999990463257","77","1","swim","","","","",""
"dual-task","null","null","null","","arctic","arctic","591.6000000238419","","t","null","88","88","1","swim-dual-task","","t","lowercase","114000","0","6","01d92d17ed0ea9d99d2bac6381808c7ee69318be66dd3daf29c6bf4568786f8d","113999.89999997616","591.6000000238419","88","1","swim","","","","",""
"dual-task","null","null","null","","arctic","arctic","563.1000000238419","","Q","null","77","77","1","swim-dual-task","","Q","uppercase","128000","0","6","01d92d17ed0ea9d99d2bac6381808c7ee69318be66dd3daf29c6bf4568786f8d","128005.69999992847","563.1000000238419","77","1","swim","","","","",""
"dual-task","null","null","null","","arctic","arctic","418.2999999523163","","B","null","77","77","1","swim-dual-task","","B","uppercase","140000","0","6","01d92d17ed0ea9d99d2bac6381808c7ee69318be66dd3daf29c6bf4568786f8d","140011.59999990463","418.2999999523163","77","1","swim","","","","",""
"dual-task","null","null","null","","arctic","arctic","370.2999999523163","","R","null","77","77","1","swim-dual-task","","R","uppercase","152000","0","6","01d92d17ed0ea9d99d2bac6381808c7ee69318be66dd3daf29c6bf4568786f8d","152002.29999995232","370.2999999523163","77","1","swim","","","","",""
"dual-task","null","null","null","","arctic","arctic","646.5","","g","null","77","88","0","swim-dual-task","","g","lowercase","164000","0","6","01d92d17ed0ea9d99d2bac6381808c7ee69318be66dd3daf29c6bf4568786f8d","164011.79999995232","646.5","77","0","swim","","","","",""
"dual-task","null","null","null","","arctic","arctic","609.7000000476837","","f","null","88","88","1","swim-dual-task","","f","lowercase","172000","0","6","01d92d17ed0ea9d99d2bac6381808c7ee69318be66dd3daf29c6bf4568786f8d","172004.79999995232","609.7000000476837","88","1","swim","","","","",""
"dual-task","null","null","null","","arctic","arctic","500.8000000715256","","N","null","77","77","1","swim-dual-task","","N","uppercase","184000","0","6","01d92d17ed0ea9d99d2bac6381808c7ee69318be66dd3daf29c6bf4568786f8d","184005.59999990463","500.8000000715256","77","1","swim","","","","",""
"dual-task","null","null","null","","arctic","arctic","501.60000002384186","","r","null","88","88","1","swim-dual-task","","r","lowercase","194000","0","6","01d92d17ed0ea9d99d2bac6381808c7ee69318be66dd3daf29c6bf4568786f8d","194008.59999990463","501.60000002384186","88","1","swim","","","","",""
"dual-task","null","null","null","","arctic","arctic","537.1000000238419","","b","null","88","88","1","swim-dual-task","","b","lowercase","206000","0","6","01d92d17ed0ea9d99d2bac6381808c7ee69318be66dd3daf29c6bf4568786f8d","206002.69999992847","537.1000000238419","88","1","swim","","","","",""
"dual-task","null","null","null","","arctic","arctic","456.10000002384186","","t","null","77","88","0","swim-dual-task","","t","lowercase","220000","0","6","01d92d17ed0ea9d99d2bac6381808c7ee69318be66dd3daf29c6bf4568786f8d","220022.19999992847","456.10000002384186","77","0","swim","","","","",""
"dual-task","null","null","null","","arctic","arctic","1675.3999999761581","","b","null","88","88","1","swim-dual-task","","b","lowercase","232000","0","6","01d92d17ed0ea9d99d2bac6381808c7ee69318be66dd3daf29c6bf4568786f8d","232007.89999997616","1675.3999999761581","88","1","swim","","","","",""
"dual-task","null","null","null","","arctic","arctic","451.3000000715256","","h","null","88","88","1","swim-dual-task","","h","lowercase","242000","0","6","01d92d17ed0ea9d99d2bac6381808c7ee69318be66dd3daf29c6bf4568786f8d","242001.79999995232","451.3000000715256","88","1","swim","","","","",""
"dual-task","null","null","null","","arctic","arctic","406.3000000715256","","r","null","88","88","1","swim-dual-task","","r","lowercase","256000","0","6","01d92d17ed0ea9d99d2bac6381808c7ee69318be66dd3daf29c6bf4568786f8d","256002.5","406.3000000715256","88","1","swim","","","","",""
"dual-task","null","null","null","","arctic","arctic","353.5","","B","null","88","77","0","swim-dual-task","","B","uppercase","262000","0","6","01d92d17ed0ea9d99d2bac6381808c7ee69318be66dd3daf29c6bf4568786f8d","262012.59999990463","353.5","88","0","swim","","","","",""
"dual-task","null","null","null","","arctic","arctic","441.3000000715256","","f","null","77","88","0","swim-dual-task","","f","lowercase","272000","0","6","01d92d17ed0ea9d99d2bac6381808c7ee69318be66dd3daf29c6bf4568786f8d","272012.39999997616","441.3000000715256","77","0","swim","","","","",""
"dual-task","null","null","null","","arctic","arctic","574.9000000953674","","T","null","88","77","0","swim-dual-task","","T","uppercase","280000","0","6","01d92d17ed0ea9d99d2bac6381808c7ee69318be66dd3daf29c6bf4568786f8d","280008","574.9000000953674","88","0","swim","","","","",""
"dual-task","null","null","null","","arctic","arctic","538.6000000238419","","a","null","88","88","1","swim-dual-task","","a","lowercase","288000","0","6","01d92d17ed0ea9d99d2bac6381808c7ee69318be66dd3daf29c6bf4568786f8d","288003.09999990463","538.6000000238419","88","1","swim","","","","",""
"dual-task","null","null","null","","arctic","arctic","518.2000000476837","","H","null","77","77","1","swim-dual-task","","H","uppercase","300000","0","6","01d92d17ed0ea9d99d2bac6381808c7ee69318be66dd3daf29c6bf4568786f8d","300008.89999997616","518.2000000476837","77","1","swim","","","","",""
"dual-task","null","null","null","","arctic","arctic","511.1999999284744","","f","null","77","88","0","swim-dual-task","","f","lowercase","308000","0","6","01d92d17ed0ea9d99d2bac6381808c7ee69318be66dd3daf29c6bf4568786f8d","308013.1999999285","511.1999999284744","77","0","swim","","","","",""
"dual-task","null","null","null","","arctic","arctic","570.7000000476837","","B","null","77","77","1","swim-dual-task","","B","uppercase","314000","0","6","01d92d17ed0ea9d99d2bac6381808c7ee69318be66dd3daf29c6bf4568786f8d","314003.39999997616","570.7000000476837","77","1","swim","","","","",""
"dual-task","null","null","null","","arctic","arctic","499.7999999523163","","q","null","88","88","1","swim-dual-task","","q","lowercase","324000","0","6","01d92d17ed0ea9d99d2bac6381808c7ee69318be66dd3daf29c6bf4568786f8d","324015.7999999523","499.7999999523163","88","1","swim","","","","",""
"dual-task","null","null","null","","arctic","arctic","558.8999999761581","","R","null","77","77","1","swim-dual-task","","R","uppercase","334000","0","6","01d92d17ed0ea9d99d2bac6381808c7ee69318be66dd3daf29c6bf4568786f8d","334007.5","558.8999999761581","77","1","swim","","","","",""
"dual-task","null","null","null","","arctic","arctic","527.8000000715256","","D","null","77","77","1","swim-dual-task","","D","uppercase","342000","0","6","01d92d17ed0ea9d99d2bac6381808c7ee69318be66dd3daf29c6bf4568786f8d","342003.6999999285","527.8000000715256","77","1","swim","","","","",""
"dual-task","null","null","null","","arctic","arctic","581.1000000238419","","d","null","88","88","1","swim-dual-task","","d","lowercase","350000","0","6","01d92d17ed0ea9d99d2bac6381808c7ee69318be66dd3daf29c6bf4568786f8d","350003.6999999285","581.1000000238419","88","1","swim","","","","",""
"dual-task","null","null","null","","arctic","arctic","507.5","","e","null","88","88","1","swim-dual-task","","e","lowercase","358000","0","6","01d92d17ed0ea9d99d2bac6381808c7ee69318be66dd3daf29c6bf4568786f8d","358006.7999999523","507.5","88","1","swim","","","","",""
"dual-task","null","null","null","","arctic","arctic","539.5","","h","null","88","88","1","swim-dual-task","","h","lowercase","368000","0","6","01d92d17ed0ea9d99d2bac6381808c7ee69318be66dd3daf29c6bf4568786f8d","368010.09999990463","539.5","88","1","swim","","","","",""
"dual-task","null","null","null","","arctic","arctic","507.39999997615814","","q","null","88","88","1","swim-dual-task","","q","lowercase","376000","0","6","01d92d17ed0ea9d99d2bac6381808c7ee69318be66dd3daf29c6bf4568786f8d","376004","507.39999997615814","88","1","swim","","","","",""
"dual-task","null","null","null","","arctic","arctic","418.89999997615814","","e","null","88","88","1","swim-dual-task","","e","lowercase","386000","0","6","01d92d17ed0ea9d99d2bac6381808c7ee69318be66dd3daf29c6bf4568786f8d","386004.09999990463","418.89999997615814","88","1","swim","","","","",""
"dual-task","null","null","null","","arctic","arctic","412.60000002384186","","H","null","77","77","1","swim-dual-task","","H","uppercase","396000","0","6","01d92d17ed0ea9d99d2bac6381808c7ee69318be66dd3daf29c6bf4568786f8d","396011.09999990463","412.60000002384186","77","1","swim","","","","",""
"dual-task","null","null","null","","arctic","arctic","510.7000000476837","","t","null","88","88","1","swim-dual-task","","t","lowercase","402000","0","6","01d92d17ed0ea9d99d2bac6381808c7ee69318be66dd3daf29c6bf4568786f8d","402003.7999999523","510.7000000476837","88","1","swim","","","","",""
"dual-task","null","null","null","","arctic","arctic","481.90000009536743","","h","null","88","88","1","swim-dual-task","","h","lowercase","414000","0","6","01d92d17ed0ea9d99d2bac6381808c7ee69318be66dd3daf29c6bf4568786f8d","414006.7999999523","481.90000009536743","88","1","swim","","","","",""
"dual-task","null","null","null","","arctic","arctic","562.3000000715256","","n","null","88","88","1","swim-dual-task","","n","lowercase","426000","0","6","01d92d17ed0ea9d99d2bac6381808c7ee69318be66dd3daf29c6bf4568786f8d","426009.5","562.3000000715256","88","1","swim","","","","",""
"dual-task","null","null","null","","arctic","arctic","458.89999997615814","","n","null","88","88","1","swim-dual-task","","n","lowercase","434000","0","6","01d92d17ed0ea9d99d2bac6381808c7ee69318be66dd3daf29c6bf4568786f8d","434013.89999997616","458.89999997615814","88","1","swim","","","","",""
"dual-task","null","null","null","","arctic","arctic","562.7999999523163","","N","null","77","77","1","swim-dual-task","","N","uppercase","446000","0","6","01d92d17ed0ea9d99d2bac6381808c7ee69318be66dd3daf29c6bf4568786f8d","446001.1999999285","562.7999999523163","77","1","swim","","","","",""
"dual-task","null","null","null","","arctic","arctic","674.2000000476837","","D","null","77","77","1","swim-dual-task","","D","uppercase","452000","0","6","01d92d17ed0ea9d99d2bac6381808c7ee69318be66dd3daf29c6bf4568786f8d","452017.7999999523","674.2000000476837","77","1","swim","","","","",""
"dual-task","null","null","null","","arctic","arctic","544","","d","null","88","88","1","swim-dual-task","","d","lowercase","462000","0","6","01d92d17ed0ea9d99d2bac6381808c7ee69318be66dd3daf29c6bf4568786f8d","462014.5","544","88","1","swim","","","","",""
"dual-task","null","null","null","","arctic","arctic","620.1999999284744","","T","null","77","77","1","swim-dual-task","","T","uppercase","468000","0","6","01d92d17ed0ea9d99d2bac6381808c7ee69318be66dd3daf29c6bf4568786f8d","468014.6999999285","620.1999999284744","77","1","swim","","","","",""
"dual-task","null","null","null","","arctic","arctic","527.3000000715256","","B","null","77","77","1","swim-dual-task","","B","uppercase","480000","0","6","01d92d17ed0ea9d99d2bac6381808c7ee69318be66dd3daf29c6bf4568786f8d","480002.5","527.3000000715256","77","1","swim","","","","",""
"dual-task","null","null","null","","arctic","arctic","529.6999999284744","","E","null","77","77","1","swim-dual-task","","E","uppercase","488000","0","6","01d92d17ed0ea9d99d2bac6381808c7ee69318be66dd3daf29c6bf4568786f8d","488004.6999999285","529.6999999284744","77","1","swim","","","","",""
"dual-task","null","null","null","","arctic","arctic","521.3999999761581","","h","null","88","88","1","swim-dual-task","","h","lowercase","496000","0","6","01d92d17ed0ea9d99d2bac6381808c7ee69318be66dd3daf29c6bf4568786f8d","496004.6999999285","521.3999999761581","88","1","swim","","","","",""
"dual-task","null","null","null","","arctic","arctic","514.2999999523163","","g","null","88","88","1","swim-dual-task","","g","lowercase","504000","0","6","01d92d17ed0ea9d99d2bac6381808c7ee69318be66dd3daf29c6bf4568786f8d","504004.5","514.2999999523163","88","1","swim","","","","",""
"dual-task","null","null","null","","arctic","arctic","516.2999999523163","","N","null","77","77","1","swim-dual-task","","N","uppercase","514000","0","6","01d92d17ed0ea9d99d2bac6381808c7ee69318be66dd3daf29c6bf4568786f8d","514015.6999999285","516.2999999523163","77","1","swim","","","","",""
"dual-task","null","null","null","","arctic","arctic","603.8999999761581","","r","null","88","88","1","swim-dual-task","","r","lowercase","526000","0","6","01d92d17ed0ea9d99d2bac6381808c7ee69318be66dd3daf29c6bf4568786f8d","526010.2999999523","603.8999999761581","88","1","swim","","","","",""
"dual-task","null","null","null","","arctic","arctic","568.5","","E","null","77","77","1","swim-dual-task","","E","uppercase","534000","0","6","01d92d17ed0ea9d99d2bac6381808c7ee69318be66dd3daf29c6bf4568786f8d","534003.2999999523","568.5","77","1","swim","","","","",""
"dual-task","null","null","null","","arctic","arctic","462.60000002384186","","G","null","77","77","1","swim-dual-task","","G","uppercase","546000","0","6","01d92d17ed0ea9d99d2bac6381808c7ee69318be66dd3daf29c6bf4568786f8d","546002.3999999762","462.60000002384186","77","1","swim","","","","",""
"dual-task","null","null","null","","arctic","arctic","1537.1000000238419","","A","null","77","77","1","swim-dual-task","","A","uppercase","558000","0","6","01d92d17ed0ea9d99d2bac6381808c7ee69318be66dd3daf29c6bf4568786f8d","558004.6999999285","1537.1000000238419","77","1","swim","","","","",""
"dual-task","null","null","null","","arctic","arctic","578.6000000238419","","H","null","77","77","1","swim-dual-task","","H","uppercase","570000","0","6","01d92d17ed0ea9d99d2bac6381808c7ee69318be66dd3daf29c6bf4568786f8d","570015.2999999523","578.6000000238419","77","1","swim","","","","",""
"dual-task","null","null","null","","arctic","arctic","815.8999999761581","","n","null","88","88","1","swim-dual-task","","n","lowercase","582000","0","6","01d92d17ed0ea9d99d2bac6381808c7ee69318be66dd3daf29c6bf4568786f8d","582004.2999999523","815.8999999761581","88","1","swim","","","","",""
"dual-task","null","null","null","","arctic","arctic","439.60000002384186","","A","null","77","77","1","swim-dual-task","","A","uppercase","594000","0","6","01d92d17ed0ea9d99d2bac6381808c7ee69318be66dd3daf29c6bf4568786f8d","594025.5999999046","439.60000002384186","77","1","swim","","","","",""
"dual-task","null","null","null","","arctic","arctic","601.2000000476837","","g","null","88","88","1","swim-dual-task","","g","lowercase","602000","0","6","01d92d17ed0ea9d99d2bac6381808c7ee69318be66dd3daf29c6bf4568786f8d","602013.8999999762","601.2000000476837","88","1","swim","","","","",""
"dual-task","null","null","null","","arctic","arctic","537.5","","D","null","77","77","1","swim-dual-task","","D","uppercase","616000","0","6","01d92d17ed0ea9d99d2bac6381808c7ee69318be66dd3daf29c6bf4568786f8d","616005.2999999523","537.5","77","1","swim","","","","",""
"dual-task","null","null","null","","arctic","arctic","567.3000000715256","","E","null","77","77","1","swim-dual-task","","E","uppercase","622000","0","6","01d92d17ed0ea9d99d2bac6381808c7ee69318be66dd3daf29c6bf4568786f8d","622005.3999999762","567.3000000715256","77","1","swim","","","","",""
"dual-task","null","null","null","","arctic","arctic","598.3000000715256","","R","null","77","77","1","swim-dual-task","","R","uppercase","636000","0","6","01d92d17ed0ea9d99d2bac6381808c7ee69318be66dd3daf29c6bf4568786f8d","636009.1999999285","598.3000000715256","77","1","swim","","","","",""
"dual-task","null","null","null","","arctic","arctic","691.8000000715256","","q","null","88","88","1","swim-dual-task","","q","lowercase","644000","0","6","01d92d17ed0ea9d99d2bac6381808c7ee69318be66dd3daf29c6bf4568786f8d","644005.1999999285","691.8000000715256","88","1","swim","","","","",""
"dual-task","null","null","null","","arctic","arctic","655.0999999046326","","G","null","77","77","1","swim-dual-task","","G","uppercase","654000","0","6","01d92d17ed0ea9d99d2bac6381808c7ee69318be66dd3daf29c6bf4568786f8d","654001.6999999285","655.0999999046326","77","1","swim","","","","",""
"dual-task","null","null","null","","arctic","arctic","703.3000000715256","","t","null","88","88","1","swim-dual-task","","t","lowercase","668000","0","6","01d92d17ed0ea9d99d2bac6381808c7ee69318be66dd3daf29c6bf4568786f8d","668006.2999999523","703.3000000715256","88","1","swim","","","","",""
"dual-task","null","null","null","","arctic","arctic","631.7999999523163","","g","null","88","88","1","swim-dual-task","","g","lowercase","676000","0","6","01d92d17ed0ea9d99d2bac6381808c7ee69318be66dd3daf29c6bf4568786f8d","676005.2999999523","631.7999999523163","88","1","swim","","","","",""
"dual-task","null","null","null","","arctic","arctic","633.8999999761581","","a","null","88","88","1","swim-dual-task","","a","lowercase","686000","0","6","01d92d17ed0ea9d99d2bac6381808c7ee69318be66dd3daf29c6bf4568786f8d","686004.0999999046","633.8999999761581","88","1","swim","","","","",""
"dual-task","null","null","null","","arctic","arctic","580.1000000238419","","N","null","77","77","1","swim-dual-task","","N","uppercase","698000","0","6","01d92d17ed0ea9d99d2bac6381808c7ee69318be66dd3daf29c6bf4568786f8d","698016.0999999046","580.1000000238419","77","1","swim","","","","",""
"dual-task","null","null","null","","arctic","arctic","606.5","","F","null","77","77","1","swim-dual-task","","F","uppercase","708000","0","6","01d92d17ed0ea9d99d2bac6381808c7ee69318be66dd3daf29c6bf4568786f8d","708015.3999999762","606.5","77","1","swim","","","","",""
"dual-task","null","null","null","","arctic","arctic","601.0999999046326","","R","null","77","77","1","swim-dual-task","","R","uppercase","720000","0","6","01d92d17ed0ea9d99d2bac6381808c7ee69318be66dd3daf29c6bf4568786f8d","720003.6999999285","601.0999999046326","77","1","swim","","","","",""
"dual-task","null","null","null","","arctic","arctic","645.1000000238419","","e","null","88","88","1","swim-dual-task","","e","lowercase","728000","0","6","01d92d17ed0ea9d99d2bac6381808c7ee69318be66dd3daf29c6bf4568786f8d","728004.0999999046","645.1000000238419","88","1","swim","","","","",""
"dual-task","null","null","null","","arctic","arctic","556.1000000238419","","D","null","77","77","1","swim-dual-task","","D","uppercase","740000","0","6","01d92d17ed0ea9d99d2bac6381808c7ee69318be66dd3daf29c6bf4568786f8d","740001.5999999046","556.1000000238419","77","1","swim","","","","",""
"dual-task","null","null","null","","arctic","arctic","666.8999999761581","","A","null","77","77","1","swim-dual-task","","A","uppercase","754000","0","6","01d92d17ed0ea9d99d2bac6381808c7ee69318be66dd3daf29c6bf4568786f8d","754011.5","666.8999999761581","77","1","swim","","","","",""
"dual-task","null","null","null","","arctic","arctic","602.3999999761581","","F","null","77","77","1","swim-dual-task","","F","uppercase","762000","0","6","01d92d17ed0ea9d99d2bac6381808c7ee69318be66dd3daf29c6bf4568786f8d","762002.6999999285","602.3999999761581","77","1","swim","","","","",""
"dual-task","null","null","null","","arctic","arctic","578.6000000238419","","T","null","77","77","1","swim-dual-task","","T","uppercase","770000","0","6","01d92d17ed0ea9d99d2bac6381808c7ee69318be66dd3daf29c6bf4568786f8d","770014.2999999523","578.6000000238419","77","1","swim","","","","",""
"dual-task","null","null","null","","arctic","arctic","603.6000000238419","","b","null","88","88","1","swim-dual-task","","b","lowercase","778000","0","6","01d92d17ed0ea9d99d2bac6381808c7ee69318be66dd3daf29c6bf4568786f8d","778017","603.6000000238419","88","1","swim","","","","",""
"dual-task","null","null","null","","arctic","arctic","593","","e","null","88","88","1","swim-dual-task","","e","lowercase","786000","0","6","01d92d17ed0ea9d99d2bac6381808c7ee69318be66dd3daf29c6bf4568786f8d","786007","593","88","1","swim","","","","",""
"dual-task","null","null","null","","arctic","arctic","580","","b","null","88","88","1","swim-dual-task","","b","lowercase","800000","0","6","01d92d17ed0ea9d99d2bac6381808c7ee69318be66dd3daf29c6bf4568786f8d","800005.2999999523","580","88","1","swim","","","","",""
"audio-keyboard-response","62","2205492","0.0-6.0-2.0-1.0","01d92d17ed0ea9d99d2bac6381808c7ee69318be66dd3daf29c6bf4568786f8d","arctic","arctic","null","","audio/story_swim.mp3","","null","","","","","","","","","","","","","","","","","","","",""
"html-button-response","63","2211582","0.0-6.0-2.0-2.0","01d92d17ed0ea9d99d2bac6381808c7ee69318be66dd3daf29c6bf4568786f8d","arctic","arctic","6088","","<p>This concludes the story. Thank you for listening.</p><p>You will now answer some questions about the content of the story.</p>","0","","","","","","","","","","","","","","","","","","","","",""
"survey-multi-choice","64","2221833","0.0-6.0-2.0-3.0-0.0","01d92d17ed0ea9d99d2bac6381808c7ee69318be66dd3daf29c6bf4568786f8d","arctic","arctic","10246","","<b>What was the final step of the first swim test in the pool?</b>","","","","1","swim-comprehension","","","","","","","","","","","","","{""Q0"":""Tread water with hands above the water""}","","","",""
"survey-multi-choice","65","2227680","0.0-6.0-2.0-3.0-0.1","01d92d17ed0ea9d99d2bac6381808c7ee69318be66dd3daf29c6bf4568786f8d","arctic","arctic","5593","","<b>How often does the narrator swim, now that he is a good swimmer?</b>","","","","1","swim-comprehension","","","","","","","","","","","","","{""Q0"":""Never swam again in his life""}","","","",""
"survey-multi-choice","66","2233677","0.0-6.0-2.0-3.0-0.2","01d92d17ed0ea9d99d2bac6381808c7ee69318be66dd3daf29c6bf4568786f8d","arctic","arctic","5737","","<b>How did the narrator train for his swim test?</b>","","","","1","swim-comprehension","","","","","","","","","","","","","{""Q0"":""Took his kids to the pool every day""}","","","",""
"survey-multi-choice","67","2244877","0.0-6.0-2.0-3.0-0.3","01d92d17ed0ea9d99d2bac6381808c7ee69318be66dd3daf29c6bf4568786f8d","arctic","arctic","10946","","<b>What were the astronaut candidates trained to do at the naval air station?</b>","","","","1","swim-comprehension","","","","","","","","","","","","","{""Q0"":""Eject out of aircraft and survive in water long enough to be rescued""}","","","",""
"survey-multi-choice","68","2251859","0.0-6.0-2.0-3.0-0.4","01d92d17ed0ea9d99d2bac6381808c7ee69318be66dd3daf29c6bf4568786f8d","arctic","arctic","6728","","<b>How many times did the astronaut candidates have to complete the final exercise to pass?</b>","","","","1","swim-comprehension","","","","","","","","","","","","","{""Q0"":""Two""}","","","",""
"survey-multi-choice","69","2263537","0.0-6.0-2.0-3.0-0.5","01d92d17ed0ea9d99d2bac6381808c7ee69318be66dd3daf29c6bf4568786f8d","arctic","arctic","11425","","<b>What gave the narrator his greatest feeling of accomplishment?</b>","","","","1","swim-comprehension","","","","","","","","","","","","","{""Q0"":""Passing the water survival course""}","","","",""
"survey-multi-choice","70","2270102","0.0-6.0-2.0-3.0-0.6","01d92d17ed0ea9d99d2bac6381808c7ee69318be66dd3daf29c6bf4568786f8d","arctic","arctic","6300","","<b>Where is the home of naval aviation?</b>","","","","1","swim-comprehension","","","","","","","","","","","","","{""Q0"":""Pensacola""}","","","",""
"survey-multi-choice","71","2276328","0.0-6.0-2.0-3.0-0.7","01d92d17ed0ea9d99d2bac6381808c7ee69318be66dd3daf29c6bf4568786f8d","arctic","arctic","5971","","<b>How many astronaut candidates reported for duty at the Johnson Space Center?</b>","","","","1","swim-comprehension","","","","","","","","","","","","","{""Q0"":""Forty-four""}","","","",""
"survey-multi-choice","72","2279971","0.0-6.0-2.0-3.0-0.8","01d92d17ed0ea9d99d2bac6381808c7ee69318be66dd3daf29c6bf4568786f8d","arctic","arctic","3389","","<b>What is the narrator afraid of, aside from the water?</b>","","","","1","swim-comprehension","","","","","","","","","","","","","{""Q0"":""Heights""}","","","",""
"survey-multi-choice","73","2284671","0.0-6.0-2.0-3.0-0.9","01d92d17ed0ea9d99d2bac6381808c7ee69318be66dd3daf29c6bf4568786f8d","arctic","arctic","4445","","<b>How many astronaut candidates passed the first swim test?</b>","","","","1","swim-comprehension","","","","","","","","","","","","","{""Q0"":""All of them""}","","","",""
"html-button-response","74","2287191","0.0-6.0-2.0-4.0","01d92d17ed0ea9d99d2bac6381808c7ee69318be66dd3daf29c6bf4568786f8d","arctic","arctic","2266","","<p>Thank you for your responses.</p><p>You will now answer some questions about your impressions of the story.</p>","0","","","","","","","","","","","","","","","","","","","","",""
"html-button-response","75","2289252","0.0-6.0-2.0-5.0-0.0","01d92d17ed0ea9d99d2bac6381808c7ee69318be66dd3daf29c6bf4568786f8d","arctic","arctic","2060","","A2","6","","","","swim-engagement","","","","","","","","","","","","","","7","absorption","",""
"html-button-response","76","2290839","0.0-6.0-2.0-5.0-0.1","01d92d17ed0ea9d99d2bac6381808c7ee69318be66dd3daf29c6bf4568786f8d","arctic","arctic","1334","","A3","6","","","","swim-engagement","","","","","","","","","","","","","","7","absorption","",""
"html-button-response","77","2292671","0.0-6.0-2.0-5.0-0.2","01d92d17ed0ea9d99d2bac6381808c7ee69318be66dd3daf29c6bf4568786f8d","arctic","arctic","1579","","EE2","6","","","","swim-engagement","","","","","","","","","","","","","","7","emo-engage","",""
"html-button-response","78","2295525","0.0-6.0-2.0-5.0-0.3","01d92d17ed0ea9d99d2bac6381808c7ee69318be66dd3daf29c6bf4568786f8d","arctic","arctic","2600","","EE1","6","","","","swim-engagement","","","","","","","","","","","","","","7","emo-engage","",""
"html-button-response","79","2297286","0.0-6.0-2.0-5.0-0.4","01d92d17ed0ea9d99d2bac6381808c7ee69318be66dd3daf29c6bf4568786f8d","arctic","arctic","1508","","E7","6","","","","swim-engagement","","","","","","","","","","","","","","7","enjoyment","",""
"html-button-response","80","2299432","0.0-6.0-2.0-5.0-0.5","01d92d17ed0ea9d99d2bac6381808c7ee69318be66dd3daf29c6bf4568786f8d","arctic","arctic","1893","","MS2","6","","","","swim-engagement","","","","","","","","","","","","","","7","mental-sim","",""
"html-button-response","81","2304383","0.0-6.0-2.0-5.0-0.6","01d92d17ed0ea9d99d2bac6381808c7ee69318be66dd3daf29c6bf4568786f8d","arctic","arctic","4699","","A1","6","","","","swim-engagement","","","","","","","","","","","","","","7","absorption","",""
"html-button-response","82","2306591","0.0-6.0-2.0-5.0-0.7","01d92d17ed0ea9d99d2bac6381808c7ee69318be66dd3daf29c6bf4568786f8d","arctic","arctic","1955","","MS1","6","","","","swim-engagement","","","","","","","","","","","","","","7","mental-sim","",""
"html-button-response","83","2309188","0.0-6.0-2.0-5.0-0.8","01d92d17ed0ea9d99d2bac6381808c7ee69318be66dd3daf29c6bf4568786f8d","arctic","arctic","2344","","E8","4","","","","swim-engagement","","","","","","","","","","","","","","5","enjoyment","",""
"html-button-response","84","2312182","0.0-6.0-2.0-5.0-0.9","01d92d17ed0ea9d99d2bac6381808c7ee69318be66dd3daf29c6bf4568786f8d","arctic","arctic","2742","","MS3","4","","","","swim-engagement","","","","","","","","","","","","","","5","mental-sim","",""
"html-button-response","85","2313485","0.0-6.0-2.0-5.0-0.10","01d92d17ed0ea9d99d2bac6381808c7ee69318be66dd3daf29c6bf4568786f8d","arctic","arctic","1050","","EE5","6","","","","swim-engagement","","","","","","","","","","","","","","7","emo-engage","",""
"html-button-response","86","2316831","0.0-6.0-2.0-5.0-0.11","01d92d17ed0ea9d99d2bac6381808c7ee69318be66dd3daf29c6bf4568786f8d","arctic","arctic","3095","","EE3","5","","","","swim-engagement","","","","","","","","","","","","","","6","emo-engage","",""
"html-button-response","87","2318397","0.0-6.0-2.0-5.0-0.12","01d92d17ed0ea9d99d2bac6381808c7ee69318be66dd3daf29c6bf4568786f8d","arctic","arctic","1313","","E6","6","","","","swim-engagement","","","","","","","","","","","","","","7","enjoyment","",""
"html-button-response","88","2319866","0.0-6.0-2.0-5.0-0.13","01d92d17ed0ea9d99d2bac6381808c7ee69318be66dd3daf29c6bf4568786f8d","arctic","arctic","1217","","E1","6","","","","swim-engagement","","","","","","","","","","","","","","7","enjoyment","",""
"html-button-response","89","2323278","0.0-6.0-2.0-5.0-0.14","01d92d17ed0ea9d99d2bac6381808c7ee69318be66dd3daf29c6bf4568786f8d","arctic","arctic","3159","","A5","5","","","","swim-engagement","","","","","","","","","","","","","","6","absorption","",""
"html-button-response","90","2325112","0.0-6.0-2.0-5.0-0.15","01d92d17ed0ea9d99d2bac6381808c7ee69318be66dd3daf29c6bf4568786f8d","arctic","arctic","1581","","EE4","6","","","","swim-engagement","","","","","","","","","","","","","","7","emo-engage","",""
"html-button-response","91","2328477","0.0-6.0-2.0-5.0-0.16","01d92d17ed0ea9d99d2bac6381808c7ee69318be66dd3daf29c6bf4568786f8d","arctic","arctic","3112","","A4","5","","","","swim-engagement","","","","","","","","","","","","","","6","absorption","",""
"html-button-response","92","2330307","0.0-6.0-2.0-5.0-0.17","01d92d17ed0ea9d99d2bac6381808c7ee69318be66dd3daf29c6bf4568786f8d","arctic","arctic","1577","","E10","6","","","","swim-engagement","","","","","","","","","","","","","","7","enjoyment","",""
"html-button-response","93","2332117","0.0-8.0","01d92d17ed0ea9d99d2bac6381808c7ee69318be66dd3daf29c6bf4568786f8d","arctic","arctic","1557","","<p>Thank you for your responses.</p><p>You will now answer some demographic, hearing, and general health questions.</p>","0","","","","","","","","","","","","","","","","","","","","",""
"survey-multi-choice","94","2336562","0.0-9.0-0.0","01d92d17ed0ea9d99d2bac6381808c7ee69318be66dd3daf29c6bf4568786f8d","arctic","arctic","4439","","","","","","","survey","","","","","","","","","","","","","{""Q0"":""Chrome""}","","","browser",""
"survey-text","95","2342196","0.0-9.0-1.0","01d92d17ed0ea9d99d2bac6381808c7ee69318be66dd3daf29c6bf4568786f8d","arctic","arctic","5376.899999976158","","","","","","","survey","","","","","","","","","","","","","{""AGE"":""35""}","","","age","35"
"survey-multi-choice","96","2345878","0.0-9.0-2.0","01d92d17ed0ea9d99d2bac6381808c7ee69318be66dd3daf29c6bf4568786f8d","arctic","arctic","3429","","","","","","","survey","","","","","","","","","","","","","{""Q0"":""Female""}","","","gender","Female"
"survey-multi-choice","97","2349491","0.0-9.0-4.0","01d92d17ed0ea9d99d2bac6381808c7ee69318be66dd3daf29c6bf4568786f8d","arctic","arctic","3348","","","","","","","survey","","","","","","","","","","","","","{""Q0"":""Right""}","","","handedness","Right"
"survey-multi-choice","98","2353959","0.0-9.0-5.0","01d92d17ed0ea9d99d2bac6381808c7ee69318be66dd3daf29c6bf4568786f8d","arctic","arctic","4213","","","","","","","survey","","","","","","","","","","","","","{""Q0"":""High school""}","","","education","High school"
"survey-text","99","2359847","0.0-10.0-0.0","01d92d17ed0ea9d99d2bac6381808c7ee69318be66dd3daf29c6bf4568786f8d","arctic","arctic","5632.5","","","","","","","survey","","","","","","","","","","","","","{""L1"":""English""}","","","first-language","English"
"survey-text","100","2379462","0.0-10.0-1.0","01d92d17ed0ea9d99d2bac6381808c7ee69318be66dd3daf29c6bf4568786f8d","arctic","arctic","19350.899999976158","","","","","","","survey","","","","","","","","","","","","","{""L2name"":""Japanese"",""L2fluency"":""6"",""L3name"":""Spanish"",""L3fluency"":""6"",""L4name"":"""",""L4fluency"":""""}","","","additional-languages","{""L2name"":""Japanese"",""L2fluency"":""6"",""L3name"":""Spanish"",""L3fluency"":""6"",""L4name"":"""",""L4fluency"":""""}"
"survey-multi-choice","101","2382725","0.0-10.0-2.0","01d92d17ed0ea9d99d2bac6381808c7ee69318be66dd3daf29c6bf4568786f8d","arctic","arctic","3009","","","","","","","survey","","","","","","","","","","","","","{""Q0"":""No""}","","","hearing-aid","No"
"survey-multi-choice","102","2387473","0.0-10.0-3.0","01d92d17ed0ea9d99d2bac6381808c7ee69318be66dd3daf29c6bf4568786f8d","arctic","arctic","4494","","","","","","","survey","","","","","","","","","","","","","{""Q0"":""Never""}","","","ringing-ears","Never"
"survey-multi-choice","103","2390429","0.0-10.0-5.0","01d92d17ed0ea9d99d2bac6381808c7ee69318be66dd3daf29c6bf4568786f8d","arctic","arctic","2702","","","","","","","survey","","","","","","","","","","","","","{""Q0"":""No""}","","","neuro-disease","No"
"survey-multi-choice","104","2394063","0.0-10.0-7.0","01d92d17ed0ea9d99d2bac6381808c7ee69318be66dd3daf29c6bf4568786f8d","arctic","arctic","3381","","","","","","","survey","","","","","","","","","","","","","{""Q0"":""No""}","","","take-meds","No"
"survey-text","105","2404923","0.0-10.0-9.0","01d92d17ed0ea9d99d2bac6381808c7ee69318be66dd3daf29c6bf4568786f8d","arctic","arctic","10532.799999952316","","","","","","","survey","","","","","","","","","","","","","{""HC"":""No other health issues""}","","","health-concerns","No other health issues"
"html-button-response","106","2408122","0.0-11.0-0.0","01d92d17ed0ea9d99d2bac6381808c7ee69318be66dd3daf29c6bf4568786f8d","arctic","arctic","2946","","<p>How would you describe your musical skills/experiences?</p>","2","","","","survey","","","","","","","","","","","","","","","","music-skill","3"
"survey-multi-choice","107","2410755","0.0-11.0-1.0","01d92d17ed0ea9d99d2bac6381808c7ee69318be66dd3daf29c6bf4568786f8d","arctic","arctic","2379","","","","","","","survey","","","","","","","","","","","","","{""Q0"":""Yes""}","","","music-instrument","Yes"
"survey-text","108","2418028","0.0-11.0-2.0-0.0","01d92d17ed0ea9d99d2bac6381808c7ee69318be66dd3daf29c6bf4568786f8d","arctic","arctic","7018.200000047684","","","","","","","survey","","","","","","","","","","","","","{""MEXP"":""One""}","","","music-training-yrs","One"
"html-button-response","109","2420775","0.0-12.0-0.0","01d92d17ed0ea9d99d2bac6381808c7ee69318be66dd3daf29c6bf4568786f8d","arctic","arctic","2494","","<p>How would you describe your general hearing abilities?</p>","3","","","","survey","","","","","","","","","","","","","","","","ssq-01","4"
"html-button-response","110","2427337","0.0-12.0-1.0","01d92d17ed0ea9d99d2bac6381808c7ee69318be66dd3daf29c6bf4568786f8d","arctic","arctic","6309","","<p>When you talk with someone at a place that strongly reverberates/echoes (e.g., in a church or train station),</br>can you understand what the person says?</p>","7","","","","survey","","","","","","","","","","","","","","","","ssq-02","7"
"html-button-response","111","2430314","0.0-12.0-2.0","01d92d17ed0ea9d99d2bac6381808c7ee69318be66dd3daf29c6bf4568786f8d","arctic","arctic","2723","","<p>When you are with a group (~5 people) in a lively restaurant, can you follow the group's conversation?</p>","8","","","","survey","","","","","","","","","","","","","","","","ssq-03","8"
"html-button-response","112","2433954","0.0-12.0-3.0","01d92d17ed0ea9d99d2bac6381808c7ee69318be66dd3daf29c6bf4568786f8d","arctic","arctic","3388","","<p>Based on the sound of a bus or truck, can you tell whether it is moving towards or away from you?</p>","8","","","","survey","","","","","","","","","","","","","","","","ssq-04","8"
"html-button-response","113","2438159","0.0-12.0-4.0","01d92d17ed0ea9d99d2bac6381808c7ee69318be66dd3daf29c6bf4568786f8d","arctic","arctic","3952","","<p>When you are in an unknown environment, can you tell from which direction a brief sound originates?</p>","7","","","","survey","","","","","","","","","","","","","","","","ssq-05","7"
"html-button-response","114","2443224","0.0-12.0-5.0","01d92d17ed0ea9d99d2bac6381808c7ee69318be66dd3daf29c6bf4568786f8d","arctic","arctic","4811","","<p>Are you able to ignore distracting sounds when you concentrate on a specific aspect of your acoustic surrounding?</p>","9","","","","survey","","","","","","","","","","","","","","","","ssq-06","9"
"fullscreen","115","2444482","0.0-13.0","01d92d17ed0ea9d99d2bac6381808c7ee69318be66dd3daf29c6bf4568786f8d","arctic","arctic","","","","","","","","","true","","","","","","","","","","","","","","","",""
