"trial_type","trial_index","time_elapsed","internal_node_id","ParticipantID","firstStory","scramStory","rt","url","stimulus","button_pressed","key_press","correctRESP","correct","designation","success","letterStim","letterType","ONSET","TIMEOUT","CONDITION","Participant","ONSET_ACTUAL","RT","RESP","ACC","STORY","responses","response","type","surveyQuestion","QRESP"
"pavlovia","0","3","0.0-0.0","7cca11d84c1b0d5370a2777702c42ff6ad4357f37999e3d9227e3db041458a5c","arctic","swim","","","","","","","","","","","","","","","","","","","","","","","","",""
"external-html","1","2924","0.0-1.0","7cca11d84c1b0d5370a2777702c42ff6ad4357f37999e3d9227e3db041458a5c","arctic","swim","2747","consent/consent_updated.html","","","","","","","","","","","","","","","","","","","","","","",""
"html-button-response","2","9514","0.0-2.0-0.0","7cca11d84c1b0d5370a2777702c42ff6ad4357f37999e3d9227e3db041458a5c","arctic","swim","6588","","<p>Before we begin the main task, you will complete a short volume calibration and headphone check.</p><p>Please make sure you are in a quiet listening environment, that you are wearing headphones, and that your computer's volume is turned on.<p></p>","0","","","","","","","","","","","","","","","","","","","","",""
"html-button-response","3","31357","0.0-2.0-1.0","7cca11d84c1b0d5370a2777702c42ff6ad4357f37999e3d9227e3db041458a5c","arctic","swim","21591","","<p>The volume calibration will be first.</p><p>You will hear a thirty-second noise. Please adjust your computer's volume so that this noise is being presented at a comfortable level.<p></p>","0","","","","","","","","","","","","","","","","","","","","",""
"audio-button-response","4","48834","0.0-2.0-2.0","7cca11d84c1b0d5370a2777702c42ff6ad4357f37999e3d9227e3db041458a5c","arctic","swim","17224","","audio/volumetest.mp3","0","","","","","","","","","","","","","","","","","","","","",""
"html-keyboard-response","5","53377","0.0-3.0-0.0","7cca11d84c1b0d5370a2777702c42ff6ad4357f37999e3d9227e3db041458a5c","arctic","swim","4543","","<p>You will now complete a short headphone check.</p><p>On each trial, you will hear three tones. One of these tones will be quieter than the others. Your task is to identify whether the quiet tone occurred first, second, or third.</p><p>There are six trials in total.<p></p><p></p>(Press SPACEBAR to begin)","","32","","","","","","","","","","","","","","","","","","","",""
"html-keyboard-response","6","54146","0.0-3.0-1.0-0.0","7cca11d84c1b0d5370a2777702c42ff6ad4357f37999e3d9227e3db041458a5c","arctic","swim","null","","<div style=""font-size:60px;"">+</div>","","null","","","","","","","","","","","","","","","","","","","",""
"audio-button-response","7","58466","0.0-3.0-1.0-1.0","7cca11d84c1b0d5370a2777702c42ff6ad4357f37999e3d9227e3db041458a5c","arctic","swim","4319","","audio/t1_2.mp3","0","","0","1","headphone-test","","","","","","","","","","","","","","","","",""
"html-keyboard-response","8","58968","0.0-3.0-1.0-2.0","7cca11d84c1b0d5370a2777702c42ff6ad4357f37999e3d9227e3db041458a5c","arctic","swim","null","","<p>Correct</p>","","null","","","","","","","","","","","","","","","","","","","",""
"html-keyboard-response","9","59469","0.0-3.0-1.0-0.1","7cca11d84c1b0d5370a2777702c42ff6ad4357f37999e3d9227e3db041458a5c","arctic","swim","null","","<div style=""font-size:60px;"">+</div>","","null","","","","","","","","","","","","","","","","","","","",""
"audio-button-response","10","63767","0.0-3.0-1.0-1.1","7cca11d84c1b0d5370a2777702c42ff6ad4357f37999e3d9227e3db041458a5c","arctic","swim","4297","","audio/t1_1.mp3","0","","0","1","headphone-test","","","","","","","","","","","","","","","","",""
"html-keyboard-response","11","64268","0.0-3.0-1.0-2.1","7cca11d84c1b0d5370a2777702c42ff6ad4357f37999e3d9227e3db041458a5c","arctic","swim","null","","<p>Correct</p>","","null","","","","","","","","","","","","","","","","","","","",""
"html-keyboard-response","12","64770","0.0-3.0-1.0-0.2","7cca11d84c1b0d5370a2777702c42ff6ad4357f37999e3d9227e3db041458a5c","arctic","swim","null","","<div style=""font-size:60px;"">+</div>","","null","","","","","","","","","","","","","","","","","","","",""
"audio-button-response","13","69109","0.0-3.0-1.0-1.2","7cca11d84c1b0d5370a2777702c42ff6ad4357f37999e3d9227e3db041458a5c","arctic","swim","4339","","audio/t2_2.mp3","1","","1","1","headphone-test","","","","","","","","","","","","","","","","",""
"html-keyboard-response","14","69612","0.0-3.0-1.0-2.2","7cca11d84c1b0d5370a2777702c42ff6ad4357f37999e3d9227e3db041458a5c","arctic","swim","null","","<p>Correct</p>","","null","","","","","","","","","","","","","","","","","","","",""
"html-keyboard-response","15","70120","0.0-3.0-1.0-0.3","7cca11d84c1b0d5370a2777702c42ff6ad4357f37999e3d9227e3db041458a5c","arctic","swim","null","","<div style=""font-size:60px;"">+</div>","","null","","","","","","","","","","","","","","","","","","","",""
"audio-button-response","16","74452","0.0-3.0-1.0-1.3","7cca11d84c1b0d5370a2777702c42ff6ad4357f37999e3d9227e3db041458a5c","arctic","swim","4331","","audio/t2_1.mp3","1","","1","1","headphone-test","","","","","","","","","","","","","","","","",""
"html-keyboard-response","17","74957","0.0-3.0-1.0-2.3","7cca11d84c1b0d5370a2777702c42ff6ad4357f37999e3d9227e3db041458a5c","arctic","swim","null","","<p>Correct</p>","","null","","","","","","","","","","","","","","","","","","","",""
"html-keyboard-response","18","75465","0.0-3.0-1.0-0.4","7cca11d84c1b0d5370a2777702c42ff6ad4357f37999e3d9227e3db041458a5c","arctic","swim","null","","<div style=""font-size:60px;"">+</div>","","null","","","","","","","","","","","","","","","","","","","",""
"audio-button-response","19","79808","0.0-3.0-1.0-1.4","7cca11d84c1b0d5370a2777702c42ff6ad4357f37999e3d9227e3db041458a5c","arctic","swim","4342","","audio/t3_2.mp3","2","","2","1","headphone-test","","","","","","","","","","","","","","","","",""
"html-keyboard-response","20","80310","0.0-3.0-1.0-2.4","7cca11d84c1b0d5370a2777702c42ff6ad4357f37999e3d9227e3db041458a5c","arctic","swim","null","","<p>Correct</p>","","null","","","","","","","","","","","","","","","","","","","",""
"html-keyboard-response","21","80811","0.0-3.0-1.0-0.5","7cca11d84c1b0d5370a2777702c42ff6ad4357f37999e3d9227e3db041458a5c","arctic","swim","null","","<div style=""font-size:60px;"">+</div>","","null","","","","","","","","","","","","","","","","","","","",""
"audio-button-response","22","85142","0.0-3.0-1.0-1.5","7cca11d84c1b0d5370a2777702c42ff6ad4357f37999e3d9227e3db041458a5c","arctic","swim","4331","","audio/t3_1.mp3","2","","2","1","headphone-test","","","","","","","","","","","","","","","","",""
"html-keyboard-response","23","85643","0.0-3.0-1.0-2.5","7cca11d84c1b0d5370a2777702c42ff6ad4357f37999e3d9227e3db041458a5c","arctic","swim","null","","<p>Correct</p>","","null","","","","","","","","","","","","","","","","","","","",""
"fullscreen","24","119095","0.0-4.0","7cca11d84c1b0d5370a2777702c42ff6ad4357f37999e3d9227e3db041458a5c","arctic","swim","","","","","","","","","true","","","","","","","","","","","","","","","",""
"html-button-response","25","125531","0.0-5.0-0.0","7cca11d84c1b0d5370a2777702c42ff6ad4357f37999e3d9227e3db041458a5c","arctic","swim","6436","","<p>There are two blocks to this experiment.</p><p>In each block, you will hear a ~13.5 minute story. One of the stories will be scrambled. Please listen carefully to both stories and understand them as best you can.</p><p>After each story, you will be asked some questions to assess your comprehension.</p>","0","","","","","","","","","","","","","","","","","","","","",""
"html-button-response","26","134535","0.0-5.0-1.0","7cca11d84c1b0d5370a2777702c42ff6ad4357f37999e3d9227e3db041458a5c","arctic","swim","9003","","<p>During each story, there will be an additional task.</p><p>A letter will occasionally appear on the screen.</br>Your job is to - as quickly as you can - decide whether the letter is lowercase or uppercase and press one of two keys on the keyboard:</p><p>If the letter is <b>lowercase</b>, press key &lt;<b>x</b>&gt;.</p><p>If the letter is <b>uppercase</b>, press key &lt;<b>m</b>&gt;.</p>","0","","","","","","","","","","","","","","","","","","","","",""
"html-keyboard-response","27","139041","0.0-5.0-2.0","7cca11d84c1b0d5370a2777702c42ff6ad4357f37999e3d9227e3db041458a5c","arctic","swim","4505","","<p>Because we want your responses to be as quick as possible, please keep your index fingers over the keys while listening.</p><p>Each block lasts about 20 minutes.</p><p><b>Press &lt;x&gt; or &lt;m&gt; to start the first block!</b></p>","","88","","","","","","","","","","","","","","","","","","","",""
"html-keyboard-response","28","139543","0.0-6.0-0.0-0.0","7cca11d84c1b0d5370a2777702c42ff6ad4357f37999e3d9227e3db041458a5c","arctic","swim","null","","<div style=""font-size:60px;"" tabindex=""0"">+</div>","","null","","","","","","","","","","","","","","","","","","","",""
"dual-task","null","null","null","","arctic","swim","NA","","e","null","NA","88","0","arctic-dual-task","","e","lowercase","10000","1","1","7cca11d84c1b0d5370a2777702c42ff6ad4357f37999e3d9227e3db041458a5c","10012.20000000298","NA","NA","0","arctic","","","","",""
"dual-task","null","null","null","","arctic","swim","1120.1999999955297","","T","null","77","77","1","arctic-dual-task","","T","uppercase","24000","0","1","7cca11d84c1b0d5370a2777702c42ff6ad4357f37999e3d9227e3db041458a5c","24000.60000000149","1120.1999999955297","77","1","arctic","","","","",""
"dual-task","null","null","null","","arctic","swim","608","","n","null","77","88","0","arctic-dual-task","","n","lowercase","34000","0","1","7cca11d84c1b0d5370a2777702c42ff6ad4357f37999e3d9227e3db041458a5c","34009.10000000149","608","77","0","arctic","","","","",""
"dual-task","null","null","null","","arctic","swim","492.3999999985099","","b","null","88","88","1","arctic-dual-task","","b","lowercase","44000","0","1","7cca11d84c1b0d5370a2777702c42ff6ad4357f37999e3d9227e3db041458a5c","44004.5","492.3999999985099","88","1","arctic","","","","",""
"dual-task","null","null","null","","arctic","swim","427.80000000447035","","R","null","77","77","1","arctic-dual-task","","R","uppercase","56000","0","1","7cca11d84c1b0d5370a2777702c42ff6ad4357f37999e3d9227e3db041458a5c","56005.29999999702","427.80000000447035","77","1","arctic","","","","",""
"dual-task","null","null","null","","arctic","swim","561.1000000014901","","Q","null","77","77","1","arctic-dual-task","","Q","uppercase","64000","0","1","7cca11d84c1b0d5370a2777702c42ff6ad4357f37999e3d9227e3db041458a5c","64000.29999999702","561.1000000014901","77","1","arctic","","","","",""
"dual-task","null","null","null","","arctic","swim","715.8999999985099","","G","null","77","77","1","arctic-dual-task","","G","uppercase","76000","0","1","7cca11d84c1b0d5370a2777702c42ff6ad4357f37999e3d9227e3db041458a5c","76013.39999999851","715.8999999985099","77","1","arctic","","","","",""
"dual-task","null","null","null","","arctic","swim","439.6000000014901","","n","null","88","88","1","arctic-dual-task","","n","lowercase","86000","0","1","7cca11d84c1b0d5370a2777702c42ff6ad4357f37999e3d9227e3db041458a5c","86001.29999999702","439.6000000014901","88","1","arctic","","","","",""
"dual-task","null","null","null","","arctic","swim","562.3000000044703","","A","null","77","77","1","arctic-dual-task","","A","uppercase","100000","0","1","7cca11d84c1b0d5370a2777702c42ff6ad4357f37999e3d9227e3db041458a5c","100006.60000000149","562.3000000044703","77","1","arctic","","","","",""
"dual-task","null","null","null","","arctic","swim","524.3999999985099","","F","null","77","77","1","arctic-dual-task","","F","uppercase","110000","0","1","7cca11d84c1b0d5370a2777702c42ff6ad4357f37999e3d9227e3db041458a5c","110013.39999999851","524.3999999985099","77","1","arctic","","","","",""
"dual-task","null","null","null","","arctic","swim","446","","E","null","77","77","1","arctic-dual-task","","E","uppercase","122000","0","1","7cca11d84c1b0d5370a2777702c42ff6ad4357f37999e3d9227e3db041458a5c","122011.20000000298","446","77","1","arctic","","","","",""
"dual-task","null","null","null","","arctic","swim","1951.4000000059605","","f","null","88","88","1","arctic-dual-task","","f","lowercase","128000","0","1","7cca11d84c1b0d5370a2777702c42ff6ad4357f37999e3d9227e3db041458a5c","128001.79999999702","1951.4000000059605","88","1","arctic","","","","",""
"dual-task","null","null","null","","arctic","swim","379.40000000596046","","G","null","77","77","1","arctic-dual-task","","G","uppercase","140000","0","1","7cca11d84c1b0d5370a2777702c42ff6ad4357f37999e3d9227e3db041458a5c","140013.79999999702","379.40000000596046","77","1","arctic","","","","",""
"dual-task","null","null","null","","arctic","swim","697.3000000044703","","t","null","88","88","1","arctic-dual-task","","t","lowercase","152000","0","1","7cca11d84c1b0d5370a2777702c42ff6ad4357f37999e3d9227e3db041458a5c","152015.79999999702","697.3000000044703","88","1","arctic","","","","",""
"dual-task","null","null","null","","arctic","swim","1178.7999999970198","","R","null","77","77","1","arctic-dual-task","","R","uppercase","160000","0","1","7cca11d84c1b0d5370a2777702c42ff6ad4357f37999e3d9227e3db041458a5c","160006.20000000298","1178.7999999970198","77","1","arctic","","","","",""
"dual-task","null","null","null","","arctic","swim","510.79999999701977","","B","null","77","77","1","arctic-dual-task","","B","uppercase","172000","0","1","7cca11d84c1b0d5370a2777702c42ff6ad4357f37999e3d9227e3db041458a5c","172010.3999999985","510.79999999701977","77","1","arctic","","","","",""
"dual-task","null","null","null","","arctic","swim","1020.7000000029802","","h","null","88","88","1","arctic-dual-task","","h","lowercase","180000","0","1","7cca11d84c1b0d5370a2777702c42ff6ad4357f37999e3d9227e3db041458a5c","180012.5","1020.7000000029802","88","1","arctic","","","","",""
"dual-task","null","null","null","","arctic","swim","437.1000000014901","","H","null","77","77","1","arctic-dual-task","","H","uppercase","188000","0","1","7cca11d84c1b0d5370a2777702c42ff6ad4357f37999e3d9227e3db041458a5c","188004.3999999985","437.1000000014901","77","1","arctic","","","","",""
"dual-task","null","null","null","","arctic","swim","475.70000000298023","","f","null","77","88","0","arctic-dual-task","","f","lowercase","196000","0","1","7cca11d84c1b0d5370a2777702c42ff6ad4357f37999e3d9227e3db041458a5c","196005.29999999702","475.70000000298023","77","0","arctic","","","","",""
"dual-task","null","null","null","","arctic","swim","458.6000000014901","","a","null","88","88","1","arctic-dual-task","","a","lowercase","208000","0","1","7cca11d84c1b0d5370a2777702c42ff6ad4357f37999e3d9227e3db041458a5c","208006.6000000015","458.6000000014901","88","1","arctic","","","","",""
"dual-task","null","null","null","","arctic","swim","416.30000000447035","","B","null","77","77","1","arctic-dual-task","","B","uppercase","218000","0","1","7cca11d84c1b0d5370a2777702c42ff6ad4357f37999e3d9227e3db041458a5c","218008.3999999985","416.30000000447035","77","1","arctic","","","","",""
"dual-task","null","null","null","","arctic","swim","681.1000000014901","","e","null","88","88","1","arctic-dual-task","","e","lowercase","228000","0","1","7cca11d84c1b0d5370a2777702c42ff6ad4357f37999e3d9227e3db041458a5c","228008","681.1000000014901","88","1","arctic","","","","",""
"dual-task","null","null","null","","arctic","swim","439.79999999701977","","D","null","77","77","1","arctic-dual-task","","D","uppercase","242000","0","1","7cca11d84c1b0d5370a2777702c42ff6ad4357f37999e3d9227e3db041458a5c","242009.3999999985","439.79999999701977","77","1","arctic","","","","",""
"dual-task","null","null","null","","arctic","swim","672","","A","null","88","77","0","arctic-dual-task","","A","uppercase","254000","0","1","7cca11d84c1b0d5370a2777702c42ff6ad4357f37999e3d9227e3db041458a5c","254001.1000000015","672","88","0","arctic","","","","",""
"dual-task","null","null","null","","arctic","swim","686.8999999985099","","A","null","77","77","1","arctic-dual-task","","A","uppercase","260000","0","1","7cca11d84c1b0d5370a2777702c42ff6ad4357f37999e3d9227e3db041458a5c","260010.1000000015","686.8999999985099","77","1","arctic","","","","",""
"dual-task","null","null","null","","arctic","swim","394.79999999701977","","R","null","77","77","1","arctic-dual-task","","R","uppercase","270000","0","1","7cca11d84c1b0d5370a2777702c42ff6ad4357f37999e3d9227e3db041458a5c","270006.5","394.79999999701977","77","1","arctic","","","","",""
"dual-task","null","null","null","","arctic","swim","488.70000000298023","","N","null","77","77","1","arctic-dual-task","","N","uppercase","282000","0","1","7cca11d84c1b0d5370a2777702c42ff6ad4357f37999e3d9227e3db041458a5c","282008.5","488.70000000298023","77","1","arctic","","","","",""
"dual-task","null","null","null","","arctic","swim","620.6999999955297","","g","null","77","88","0","arctic-dual-task","","g","lowercase","290000","0","1","7cca11d84c1b0d5370a2777702c42ff6ad4357f37999e3d9227e3db041458a5c","290004.1000000015","620.6999999955297","77","0","arctic","","","","",""
"dual-task","null","null","null","","arctic","swim","612.7999999970198","","g","null","88","88","1","arctic-dual-task","","g","lowercase","300000","0","1","7cca11d84c1b0d5370a2777702c42ff6ad4357f37999e3d9227e3db041458a5c","300004.8999999985","612.7999999970198","88","1","arctic","","","","",""
"dual-task","null","null","null","","arctic","swim","571.8000000044703","","t","null","88","88","1","arctic-dual-task","","t","lowercase","312000","0","1","7cca11d84c1b0d5370a2777702c42ff6ad4357f37999e3d9227e3db041458a5c","312013.299999997","571.8000000044703","88","1","arctic","","","","",""
"dual-task","null","null","null","","arctic","swim","768.6000000014901","","q","null","88","88","1","arctic-dual-task","","q","lowercase","320000","0","1","7cca11d84c1b0d5370a2777702c42ff6ad4357f37999e3d9227e3db041458a5c","320000.299999997","768.6000000014901","88","1","arctic","","","","",""
"dual-task","null","null","null","","arctic","swim","629.8999999985099","","G","null","77","77","1","arctic-dual-task","","G","uppercase","332000","0","1","7cca11d84c1b0d5370a2777702c42ff6ad4357f37999e3d9227e3db041458a5c","332003.5","629.8999999985099","77","1","arctic","","","","",""
"dual-task","null","null","null","","arctic","swim","716.1000000014901","","f","null","88","88","1","arctic-dual-task","","f","lowercase","340000","0","1","7cca11d84c1b0d5370a2777702c42ff6ad4357f37999e3d9227e3db041458a5c","340005","716.1000000014901","88","1","arctic","","","","",""
"dual-task","null","null","null","","arctic","swim","455.8999999985099","","q","null","88","88","1","arctic-dual-task","","q","lowercase","352000","0","1","7cca11d84c1b0d5370a2777702c42ff6ad4357f37999e3d9227e3db041458a5c","352001.1000000015","455.8999999985099","88","1","arctic","","","","",""
"dual-task","null","null","null","","arctic","swim","947.7000000029802","","D","null","77","77","1","arctic-dual-task","","D","uppercase","360000","0","1","7cca11d84c1b0d5370a2777702c42ff6ad4357f37999e3d9227e3db041458a5c","360013.1000000015","947.7000000029802","77","1","arctic","","","","",""
"dual-task","null","null","null","","arctic","swim","442.5","","G","null","77","77","1","arctic-dual-task","","G","uppercase","368000","0","1","7cca11d84c1b0d5370a2777702c42ff6ad4357f37999e3d9227e3db041458a5c","368006.6000000015","442.5","77","1","arctic","","","","",""
"dual-task","null","null","null","","arctic","swim","655.8999999985099","","E","null","77","77","1","arctic-dual-task","","E","uppercase","382000","0","1","7cca11d84c1b0d5370a2777702c42ff6ad4357f37999e3d9227e3db041458a5c","382001.1000000015","655.8999999985099","77","1","arctic","","","","",""
"dual-task","null","null","null","","arctic","swim","942.7999999970198","","F","null","77","77","1","arctic-dual-task","","F","uppercase","396000","0","1","7cca11d84c1b0d5370a2777702c42ff6ad4357f37999e3d9227e3db041458a5c","396002.1000000015","942.7999999970198","77","1","arctic","","","","",""
"dual-task","null","null","null","","arctic","swim","507.8999999985099","","T","null","77","77","1","arctic-dual-task","","T","uppercase","406000","0","1","7cca11d84c1b0d5370a2777702c42ff6ad4357f37999e3d9227e3db041458a5c","406013.1000000015","507.8999999985099","77","1","arctic","","","","",""
"dual-task","null","null","null","","arctic","swim","526.1999999955297","","d","null","88","88","1","arctic-dual-task","","d","lowercase","414000","0","1","7cca11d84c1b0d5370a2777702c42ff6ad4357f37999e3d9227e3db041458a5c","414010.700000003","526.1999999955297","88","1","arctic","","","","",""
"dual-task","null","null","null","","arctic","swim","993.2000000029802","","g","null","88","88","1","arctic-dual-task","","g","lowercase","422000","0","1","7cca11d84c1b0d5370a2777702c42ff6ad4357f37999e3d9227e3db041458a5c","422007.8999999985","993.2000000029802","88","1","arctic","","","","",""
"dual-task","null","null","null","","arctic","swim","632.1000000014901","","r","null","88","88","1","arctic-dual-task","","r","lowercase","432000","0","1","7cca11d84c1b0d5370a2777702c42ff6ad4357f37999e3d9227e3db041458a5c","432000.799999997","632.1000000014901","88","1","arctic","","","","",""
"dual-task","null","null","null","","arctic","swim","240.10000000149012","","h","null","88","88","1","arctic-dual-task","","h","lowercase","440000","0","1","7cca11d84c1b0d5370a2777702c42ff6ad4357f37999e3d9227e3db041458a5c","440001","240.10000000149012","88","1","arctic","","","","",""
"dual-task","null","null","null","","arctic","swim","599","","A","null","77","77","1","arctic-dual-task","","A","uppercase","454000","0","1","7cca11d84c1b0d5370a2777702c42ff6ad4357f37999e3d9227e3db041458a5c","454010.299999997","599","77","1","arctic","","","","",""
"dual-task","null","null","null","","arctic","swim","487.6000000014901","","Q","null","77","77","1","arctic-dual-task","","Q","uppercase","462000","0","1","7cca11d84c1b0d5370a2777702c42ff6ad4357f37999e3d9227e3db041458a5c","462001.299999997","487.6000000014901","77","1","arctic","","","","",""
"dual-task","null","null","null","","arctic","swim","452.09999999403954","","B","null","77","77","1","arctic-dual-task","","B","uppercase","472000","0","1","7cca11d84c1b0d5370a2777702c42ff6ad4357f37999e3d9227e3db041458a5c","472013.1000000015","452.09999999403954","77","1","arctic","","","","",""
"dual-task","null","null","null","","arctic","swim","462.79999999701977","","F","null","77","77","1","arctic-dual-task","","F","uppercase","480000","0","1","7cca11d84c1b0d5370a2777702c42ff6ad4357f37999e3d9227e3db041458a5c","480018.1000000015","462.79999999701977","77","1","arctic","","","","",""
"dual-task","null","null","null","","arctic","swim","1231.6999999955297","","F","null","77","77","1","arctic-dual-task","","F","uppercase","486000","0","1","7cca11d84c1b0d5370a2777702c42ff6ad4357f37999e3d9227e3db041458a5c","486009.5","1231.6999999955297","77","1","arctic","","","","",""
"dual-task","null","null","null","","arctic","swim","1390.7999999970198","","d","null","88","88","1","arctic-dual-task","","d","lowercase","496000","0","1","7cca11d84c1b0d5370a2777702c42ff6ad4357f37999e3d9227e3db041458a5c","496002.299999997","1390.7999999970198","88","1","arctic","","","","",""
"dual-task","null","null","null","","arctic","swim","470.29999999701977","","N","null","77","77","1","arctic-dual-task","","N","uppercase","508000","0","1","7cca11d84c1b0d5370a2777702c42ff6ad4357f37999e3d9227e3db041458a5c","508003.1000000015","470.29999999701977","77","1","arctic","","","","",""
"dual-task","null","null","null","","arctic","swim","522.7999999970198","","r","null","88","88","1","arctic-dual-task","","r","lowercase","514000","0","1","7cca11d84c1b0d5370a2777702c42ff6ad4357f37999e3d9227e3db041458a5c","514014.200000003","522.7999999970198","88","1","arctic","","","","",""
"dual-task","null","null","null","","arctic","swim","1047.1999999955297","","n","null","88","88","1","arctic-dual-task","","n","lowercase","520000","0","1","7cca11d84c1b0d5370a2777702c42ff6ad4357f37999e3d9227e3db041458a5c","520010.1000000015","1047.1999999955297","88","1","arctic","","","","",""
"dual-task","null","null","null","","arctic","swim","969","","t","null","88","88","1","arctic-dual-task","","t","lowercase","530000","0","1","7cca11d84c1b0d5370a2777702c42ff6ad4357f37999e3d9227e3db041458a5c","530000.200000003","969","88","1","arctic","","","","",""
"dual-task","null","null","null","","arctic","swim","526","","a","null","88","88","1","arctic-dual-task","","a","lowercase","542000","0","1","7cca11d84c1b0d5370a2777702c42ff6ad4357f37999e3d9227e3db041458a5c","542003.299999997","526","88","1","arctic","","","","",""
"dual-task","null","null","null","","arctic","swim","543.3999999985099","","T","null","77","77","1","arctic-dual-task","","T","uppercase","554000","0","1","7cca11d84c1b0d5370a2777702c42ff6ad4357f37999e3d9227e3db041458a5c","554009.5","543.3999999985099","77","1","arctic","","","","",""
"dual-task","null","null","null","","arctic","swim","571.1999999955297","","N","null","77","77","1","arctic-dual-task","","N","uppercase","562000","0","1","7cca11d84c1b0d5370a2777702c42ff6ad4357f37999e3d9227e3db041458a5c","562013.6000000015","571.1999999955297","77","1","arctic","","","","",""
"dual-task","null","null","null","","arctic","swim","501.5","","H","null","77","77","1","arctic-dual-task","","H","uppercase","570000","0","1","7cca11d84c1b0d5370a2777702c42ff6ad4357f37999e3d9227e3db041458a5c","570011.3999999985","501.5","77","1","arctic","","","","",""
"dual-task","null","null","null","","arctic","swim","419.29999999701977","","n","null","88","88","1","arctic-dual-task","","n","lowercase","578000","0","1","7cca11d84c1b0d5370a2777702c42ff6ad4357f37999e3d9227e3db041458a5c","578013.5","419.29999999701977","88","1","arctic","","","","",""
"dual-task","null","null","null","","arctic","swim","568","","h","null","88","88","1","arctic-dual-task","","h","lowercase","586000","0","1","7cca11d84c1b0d5370a2777702c42ff6ad4357f37999e3d9227e3db041458a5c","586001.1000000015","568","88","1","arctic","","","","",""
"dual-task","null","null","null","","arctic","swim","1291.9000000059605","","H","null","77","77","1","arctic-dual-task","","H","uppercase","594000","0","1","7cca11d84c1b0d5370a2777702c42ff6ad4357f37999e3d9227e3db041458a5c","594013.299999997","1291.9000000059605","77","1","arctic","","","","",""
"dual-task","null","null","null","","arctic","swim","512.3000000044703","","r","null","88","88","1","arctic-dual-task","","r","lowercase","608000","0","1","7cca11d84c1b0d5370a2777702c42ff6ad4357f37999e3d9227e3db041458a5c","608000.8999999985","512.3000000044703","88","1","arctic","","","","",""
"dual-task","null","null","null","","arctic","swim","1326.0999999940395","","e","null","88","88","1","arctic-dual-task","","e","lowercase","618000","0","1","7cca11d84c1b0d5370a2777702c42ff6ad4357f37999e3d9227e3db041458a5c","618003.200000003","1326.0999999940395","88","1","arctic","","","","",""
"dual-task","null","null","null","","arctic","swim","1079.5","","q","null","88","88","1","arctic-dual-task","","q","lowercase","626000","0","1","7cca11d84c1b0d5370a2777702c42ff6ad4357f37999e3d9227e3db041458a5c","626009.5","1079.5","88","1","arctic","","","","",""
"dual-task","null","null","null","","arctic","swim","485.1000000014901","","a","null","88","88","1","arctic-dual-task","","a","lowercase","638000","0","1","7cca11d84c1b0d5370a2777702c42ff6ad4357f37999e3d9227e3db041458a5c","638012.5","485.1000000014901","88","1","arctic","","","","",""
"dual-task","null","null","null","","arctic","swim","1351.8999999985099","","f","null","88","88","1","arctic-dual-task","","f","lowercase","646000","0","1","7cca11d84c1b0d5370a2777702c42ff6ad4357f37999e3d9227e3db041458a5c","646001.1000000015","1351.8999999985099","88","1","arctic","","","","",""
"dual-task","null","null","null","","arctic","swim","737.8000000044703","","Q","null","77","77","1","arctic-dual-task","","Q","uppercase","658000","0","1","7cca11d84c1b0d5370a2777702c42ff6ad4357f37999e3d9227e3db041458a5c","658015","737.8000000044703","77","1","arctic","","","","",""
"dual-task","null","null","null","","arctic","swim","640","","h","null","88","88","1","arctic-dual-task","","h","lowercase","670000","0","1","7cca11d84c1b0d5370a2777702c42ff6ad4357f37999e3d9227e3db041458a5c","670009.200000003","640","88","1","arctic","","","","",""
"dual-task","null","null","null","","arctic","swim","1692.0999999940395","","b","null","88","88","1","arctic-dual-task","","b","lowercase","680000","0","1","7cca11d84c1b0d5370a2777702c42ff6ad4357f37999e3d9227e3db041458a5c","680013.200000003","1692.0999999940395","88","1","arctic","","","","",""
"dual-task","null","null","null","","arctic","swim","980.3999999985099","","R","null","88","77","0","arctic-dual-task","","R","uppercase","688000","0","1","7cca11d84c1b0d5370a2777702c42ff6ad4357f37999e3d9227e3db041458a5c","688004.5","980.3999999985099","88","0","arctic","","","","",""
"dual-task","null","null","null","","arctic","swim","416.19999999552965","","B","null","77","77","1","arctic-dual-task","","B","uppercase","702000","0","1","7cca11d84c1b0d5370a2777702c42ff6ad4357f37999e3d9227e3db041458a5c","702004.1000000015","416.19999999552965","77","1","arctic","","","","",""
"dual-task","null","null","null","","arctic","swim","563.6000000014901","","a","null","88","88","1","arctic-dual-task","","a","lowercase","716000","0","1","7cca11d84c1b0d5370a2777702c42ff6ad4357f37999e3d9227e3db041458a5c","716012.5","563.6000000014901","88","1","arctic","","","","",""
"dual-task","null","null","null","","arctic","swim","575.2999999970198","","E","null","77","77","1","arctic-dual-task","","E","uppercase","724000","0","1","7cca11d84c1b0d5370a2777702c42ff6ad4357f37999e3d9227e3db041458a5c","724009.3999999985","575.2999999970198","77","1","arctic","","","","",""
"dual-task","null","null","null","","arctic","swim","492.1000000014901","","d","null","88","88","1","arctic-dual-task","","d","lowercase","734000","0","1","7cca11d84c1b0d5370a2777702c42ff6ad4357f37999e3d9227e3db041458a5c","734012.700000003","492.1000000014901","88","1","arctic","","","","",""
"dual-task","null","null","null","","arctic","swim","589.1000000014901","","e","null","88","88","1","arctic-dual-task","","e","lowercase","744000","0","1","7cca11d84c1b0d5370a2777702c42ff6ad4357f37999e3d9227e3db041458a5c","744005.200000003","589.1000000014901","88","1","arctic","","","","",""
"dual-task","null","null","null","","arctic","swim","476","","T","null","77","77","1","arctic-dual-task","","T","uppercase","754000","0","1","7cca11d84c1b0d5370a2777702c42ff6ad4357f37999e3d9227e3db041458a5c","754004.8999999985","476","77","1","arctic","","","","",""
"dual-task","null","null","null","","arctic","swim","605.6000000014901","","D","null","88","77","0","arctic-dual-task","","D","uppercase","766000","0","1","7cca11d84c1b0d5370a2777702c42ff6ad4357f37999e3d9227e3db041458a5c","766011.3999999985","605.6000000014901","88","0","arctic","","","","",""
"dual-task","null","null","null","","arctic","swim","543.7000000029802","","N","null","77","77","1","arctic-dual-task","","N","uppercase","778000","0","1","7cca11d84c1b0d5370a2777702c42ff6ad4357f37999e3d9227e3db041458a5c","778009.3999999985","543.7000000029802","77","1","arctic","","","","",""
"dual-task","null","null","null","","arctic","swim","474.3999999985099","","q","null","88","88","1","arctic-dual-task","","q","lowercase","788000","0","1","7cca11d84c1b0d5370a2777702c42ff6ad4357f37999e3d9227e3db041458a5c","788014.299999997","474.3999999985099","88","1","arctic","","","","",""
"audio-keyboard-response","29","937594","0.0-6.0-0.0-1.0","7cca11d84c1b0d5370a2777702c42ff6ad4357f37999e3d9227e3db041458a5c","arctic","swim","null","","audio/story_arctic.mp3","","null","","","","","","","","","","","","","","","","","","","",""
"html-button-response","30","957514","0.0-6.0-0.0-2.0","7cca11d84c1b0d5370a2777702c42ff6ad4357f37999e3d9227e3db041458a5c","arctic","swim","19920","","<p>This concludes the story. Thank you for listening.</p><p>You will now answer some questions about the content of the story.</p>","0","","","","","","","","","","","","","","","","","","","","",""
"survey-multi-choice","31","962438","0.0-6.0-0.0-3.0-0.0","7cca11d84c1b0d5370a2777702c42ff6ad4357f37999e3d9227e3db041458a5c","arctic","swim","4921","","<b>What is the name of the narrator&#39;s neighbour?</b>","","","","0","arctic-comprehension","","","","","","","","","","","","","{""Q0"":""Alan""}","","","",""
"survey-multi-choice","32","968267","0.0-6.0-0.0-3.0-0.1","7cca11d84c1b0d5370a2777702c42ff6ad4357f37999e3d9227e3db041458a5c","arctic","swim","5569","","<b>How did the narrator prepare for her expedition?</b>","","","","1","arctic-comprehension","","","","","","","","","","","","","{""Q0"":""Trained in Alaska learning how to dogsled""}","","","",""
"survey-multi-choice","33","976488","0.0-6.0-0.0-3.0-0.2","7cca11d84c1b0d5370a2777702c42ff6ad4357f37999e3d9227e3db041458a5c","arctic","swim","7968","","<b>How did the narrator&#39;s encounter with the polar bears end?</b>","","","","1","arctic-comprehension","","","","","","","","","","","","","{""Q0"":""The bears walked back to their den.""}","","","",""
"survey-multi-choice","34","981066","0.0-6.0-0.0-3.0-0.3","7cca11d84c1b0d5370a2777702c42ff6ad4357f37999e3d9227e3db041458a5c","arctic","swim","4325","","<b>Which dog on the narrator&#39;s dog team never followed instructions?</b>","","","","0","arctic-comprehension","","","","","","","","","","","","","{""Q0"":""Douggie-dog""}","","","",""
"survey-multi-choice","35","1004436","0.0-6.0-0.0-3.0-0.4","7cca11d84c1b0d5370a2777702c42ff6ad4357f37999e3d9227e3db041458a5c","arctic","swim","23118","","<b>What was the objective of the narrator&#39;s expedition?</b>","","","","0","arctic-comprehension","","","","","","","","","","","","","{""Q0"":""Dogsled across Greenland""}","","","",""
"survey-multi-choice","36","1008788","0.0-6.0-0.0-3.0-0.5","7cca11d84c1b0d5370a2777702c42ff6ad4357f37999e3d9227e3db041458a5c","arctic","swim","4098","","<b>How many sponsorships did the narrator receive to support her expedition?</b>","","","","1","arctic-comprehension","","","","","","","","","","","","","{""Q0"":""None""}","","","",""
"survey-multi-choice","37","1015377","0.0-6.0-0.0-3.0-0.6","7cca11d84c1b0d5370a2777702c42ff6ad4357f37999e3d9227e3db041458a5c","arctic","swim","6337","","<b>How did the dogs respond when they saw the bears?</b>","","","","0","arctic-comprehension","","","","","","","","","","","","","{""Q0"":""Ran away in shock""}","","","",""
"survey-multi-choice","38","1109075","0.0-6.0-0.0-3.0-0.7","7cca11d84c1b0d5370a2777702c42ff6ad4357f37999e3d9227e3db041458a5c","arctic","swim","93446","","<b>What did the narrator do for leisure while in her tent?</b>","","","","0","arctic-comprehension","","","","","","","","","","","","","{""Q0"":""Take photos""}","","","",""
"survey-multi-choice","39","1114677","0.0-6.0-0.0-3.0-0.8","7cca11d84c1b0d5370a2777702c42ff6ad4357f37999e3d9227e3db041458a5c","arctic","swim","5349","","<b>How did the narrator&#39;s neighbour respond when she told him about her expedition?</b>","","","","0","arctic-comprehension","","","","","","","","","","","","","{""Q0"":""He said he was worried about her.""}","","","",""
"survey-multi-choice","40","1141392","0.0-6.0-0.0-3.0-0.9","7cca11d84c1b0d5370a2777702c42ff6ad4357f37999e3d9227e3db041458a5c","arctic","swim","26463","","<b>What were the weather conditions in the Arctic like the winter of the narrator&#39;s expedition?</b>","","","","1","arctic-comprehension","","","","","","","","","","","","","{""Q0"":""There were more storms than any other winter in recorded history.""}","","","",""
"html-button-response","41","1159695","0.0-6.0-0.0-4.0","7cca11d84c1b0d5370a2777702c42ff6ad4357f37999e3d9227e3db041458a5c","arctic","swim","18051","","<p>Thank you for your responses.</p><p>You will now answer some questions about your impressions of the story.</p>","0","","","","","","","","","","","","","","","","","","","","",""
"html-button-response","42","1161342","0.0-6.0-0.0-5.0-0.0","7cca11d84c1b0d5370a2777702c42ff6ad4357f37999e3d9227e3db041458a5c","arctic","swim","1646","","A5","4","","","","arctic-engagement","","","","","","","","","","","","","","5","absorption","",""
"html-button-response","43","1165282","0.0-6.0-0.0-5.0-0.1","7cca11d84c1b0d5370a2777702c42ff6ad4357f37999e3d9227e3db041458a5c","arctic","swim","3688","","EE3","6","","","","arctic-engagement","","","","","","","","","","","","","","7","emo-engage","",""
"html-button-response","44","1166718","0.0-6.0-0.0-5.0-0.2","7cca11d84c1b0d5370a2777702c42ff6ad4357f37999e3d9227e3db041458a5c","arctic","swim","1184","","A2","5","","","","arctic-engagement","","","","","","","","","","","","","","6","absorption","",""
"html-button-response","45","1168031","0.0-6.0-0.0-5.0-0.3","7cca11d84c1b0d5370a2777702c42ff6ad4357f37999e3d9227e3db041458a5c","arctic","swim","1060","","EE1","4","","","","arctic-engagement","","","","","","","","","","","","","","5","emo-engage","",""
"html-button-response","46","1168893","0.0-6.0-0.0-5.0-0.4","7cca11d84c1b0d5370a2777702c42ff6ad4357f37999e3d9227e3db041458a5c","arctic","swim","612","","A4","3","","","","arctic-engagement","","","","","","","","","","","","","","4","absorption","",""
"html-button-response","47","1170224","0.0-6.0-0.0-5.0-0.5","7cca11d84c1b0d5370a2777702c42ff6ad4357f37999e3d9227e3db041458a5c","arctic","swim","1079","","E10","4","","","","arctic-engagement","","","","","","","","","","","","","","5","enjoyment","",""
"html-button-response","48","1171227","0.0-6.0-0.0-5.0-0.6","7cca11d84c1b0d5370a2777702c42ff6ad4357f37999e3d9227e3db041458a5c","arctic","swim","751","","E7","5","","","","arctic-engagement","","","","","","","","","","","","","","6","enjoyment","",""
"html-button-response","49","1172808","0.0-6.0-0.0-5.0-0.7","7cca11d84c1b0d5370a2777702c42ff6ad4357f37999e3d9227e3db041458a5c","arctic","swim","1329","","A3","2","","","","arctic-engagement","","","","","","","","","","","","","","3","absorption","",""
"html-button-response","50","1175930","0.0-6.0-0.0-5.0-0.8","7cca11d84c1b0d5370a2777702c42ff6ad4357f37999e3d9227e3db041458a5c","arctic","swim","2870","","MS1","4","","","","arctic-engagement","","","","","","","","","","","","","","5","mental-sim","",""
"html-button-response","51","1177078","0.0-6.0-0.0-5.0-0.9","7cca11d84c1b0d5370a2777702c42ff6ad4357f37999e3d9227e3db041458a5c","arctic","swim","897","","MS2","5","","","","arctic-engagement","","","","","","","","","","","","","","6","mental-sim","",""
"html-button-response","52","1179260","0.0-6.0-0.0-5.0-0.10","7cca11d84c1b0d5370a2777702c42ff6ad4357f37999e3d9227e3db041458a5c","arctic","swim","1929","","A1","3","","","","arctic-engagement","","","","","","","","","","","","","","4","absorption","",""
"html-button-response","53","1181400","0.0-6.0-0.0-5.0-0.11","7cca11d84c1b0d5370a2777702c42ff6ad4357f37999e3d9227e3db041458a5c","arctic","swim","1890","","EE5","0","","","","arctic-engagement","","","","","","","","","","","","","","1","emo-engage","",""
"html-button-response","54","1182420","0.0-6.0-0.0-5.0-0.12","7cca11d84c1b0d5370a2777702c42ff6ad4357f37999e3d9227e3db041458a5c","arctic","swim","768","","EE4","2","","","","arctic-engagement","","","","","","","","","","","","","","3","emo-engage","",""
"html-button-response","55","1183499","0.0-6.0-0.0-5.0-0.13","7cca11d84c1b0d5370a2777702c42ff6ad4357f37999e3d9227e3db041458a5c","arctic","swim","828","","E1","4","","","","arctic-engagement","","","","","","","","","","","","","","5","enjoyment","",""
"html-button-response","56","1184724","0.0-6.0-0.0-5.0-0.14","7cca11d84c1b0d5370a2777702c42ff6ad4357f37999e3d9227e3db041458a5c","arctic","swim","974","","E8","5","","","","arctic-engagement","","","","","","","","","","","","","","6","enjoyment","",""
"html-button-response","57","1188358","0.0-6.0-0.0-5.0-0.15","7cca11d84c1b0d5370a2777702c42ff6ad4357f37999e3d9227e3db041458a5c","arctic","swim","3383","","MS3","4","","","","arctic-engagement","","","","","","","","","","","","","","5","mental-sim","",""
"html-button-response","58","1189574","0.0-6.0-0.0-5.0-0.16","7cca11d84c1b0d5370a2777702c42ff6ad4357f37999e3d9227e3db041458a5c","arctic","swim","963","","EE2","6","","","","arctic-engagement","","","","","","","","","","","","","","7","emo-engage","",""
"html-button-response","59","1191155","0.0-6.0-0.0-5.0-0.17","7cca11d84c1b0d5370a2777702c42ff6ad4357f37999e3d9227e3db041458a5c","arctic","swim","1331","","E6","5","","","","arctic-engagement","","","","","","","","","","","","","","6","enjoyment","",""
"html-keyboard-response","60","1264225","0.0-6.0-1.0","7cca11d84c1b0d5370a2777702c42ff6ad4357f37999e3d9227e3db041458a5c","arctic","swim","72818","","<p>Thank you for your responses. You will now listen to the second story.</p><p>Remember, as you listen to the story you will see letters appear on the screen.</br>As quickly as possible, press <b>&lt;x&gt;</b> if the letter is lowercase and <b>&lt;m&gt;</b> if the letter is uppercase.</p><p>Press <b>&lt;x&gt;</b> or <b>&lt;m&gt;</b> to begin listening!</p>","","77","","","","","","","","","","","","","","","","","","","",""
"html-keyboard-response","61","1264726","0.0-6.0-2.0-0.0","7cca11d84c1b0d5370a2777702c42ff6ad4357f37999e3d9227e3db041458a5c","arctic","swim","null","","<div style=""font-size:60px;"" tabindex=""0"">+</div>","","null","","","","","","","","","","","","","","","","","","","",""
"dual-task","null","null","null","","arctic","swim","801.1000000014901","","g","null","88","88","1","swim-dual-task","","g","lowercase","10000","0","1","7cca11d84c1b0d5370a2777702c42ff6ad4357f37999e3d9227e3db041458a5c","10008.69999999553","801.1000000014901","88","1","swim","","","","",""
"dual-task","null","null","null","","arctic","swim","438.5","","A","null","88","77","0","swim-dual-task","","A","uppercase","18000","0","1","7cca11d84c1b0d5370a2777702c42ff6ad4357f37999e3d9227e3db041458a5c","18011.29999999702","438.5","88","0","swim","","","","",""
"dual-task","null","null","null","","arctic","swim","465.1000000014901","","r","null","88","88","1","swim-dual-task","","r","lowercase","28000","0","1","7cca11d84c1b0d5370a2777702c42ff6ad4357f37999e3d9227e3db041458a5c","28009.19999999553","465.1000000014901","88","1","swim","","","","",""
"dual-task","null","null","null","","arctic","swim","635.5","","r","null","88","88","1","swim-dual-task","","r","lowercase","40000","0","1","7cca11d84c1b0d5370a2777702c42ff6ad4357f37999e3d9227e3db041458a5c","40014","635.5","88","1","swim","","","","",""
"dual-task","null","null","null","","arctic","swim","413.5","","n","null","88","88","1","swim-dual-task","","n","lowercase","54000","0","1","7cca11d84c1b0d5370a2777702c42ff6ad4357f37999e3d9227e3db041458a5c","54012.5","413.5","88","1","swim","","","","",""
"dual-task","null","null","null","","arctic","swim","485.8999999985099","","n","null","77","88","0","swim-dual-task","","n","lowercase","62000","0","1","7cca11d84c1b0d5370a2777702c42ff6ad4357f37999e3d9227e3db041458a5c","62011.79999999702","485.8999999985099","77","0","swim","","","","",""
"dual-task","null","null","null","","arctic","swim","423.79999999701977","","d","null","88","88","1","swim-dual-task","","d","lowercase","72000","0","1","7cca11d84c1b0d5370a2777702c42ff6ad4357f37999e3d9227e3db041458a5c","72002.29999999702","423.79999999701977","88","1","swim","","","","",""
"dual-task","null","null","null","","arctic","swim","692","","E","null","88","77","0","swim-dual-task","","E","uppercase","82000","0","1","7cca11d84c1b0d5370a2777702c42ff6ad4357f37999e3d9227e3db041458a5c","82013.69999999553","692","88","0","swim","","","","",""
"dual-task","null","null","null","","arctic","swim","546.7999999970198","","d","null","88","88","1","swim-dual-task","","d","lowercase","94000","0","1","7cca11d84c1b0d5370a2777702c42ff6ad4357f37999e3d9227e3db041458a5c","94007.29999999702","546.7999999970198","88","1","swim","","","","",""
"dual-task","null","null","null","","arctic","swim","540.8999999985099","","H","null","77","77","1","swim-dual-task","","H","uppercase","108000","0","1","7cca11d84c1b0d5370a2777702c42ff6ad4357f37999e3d9227e3db041458a5c","108005.69999999553","540.8999999985099","77","1","swim","","","","",""
"dual-task","null","null","null","","arctic","swim","1195.7000000029802","","h","null","77","88","0","swim-dual-task","","h","lowercase","116000","0","1","7cca11d84c1b0d5370a2777702c42ff6ad4357f37999e3d9227e3db041458a5c","116013.09999999404","1195.7000000029802","77","0","swim","","","","",""
"dual-task","null","null","null","","arctic","swim","501.40000000596046","","d","null","88","88","1","swim-dual-task","","d","lowercase","124000","0","1","7cca11d84c1b0d5370a2777702c42ff6ad4357f37999e3d9227e3db041458a5c","124012.5","501.40000000596046","88","1","swim","","","","",""
"dual-task","null","null","null","","arctic","swim","507.5","","h","null","88","88","1","swim-dual-task","","h","lowercase","136000","0","1","7cca11d84c1b0d5370a2777702c42ff6ad4357f37999e3d9227e3db041458a5c","136014.5","507.5","88","1","swim","","","","",""
"dual-task","null","null","null","","arctic","swim","604.7999999970198","","b","null","88","88","1","swim-dual-task","","b","lowercase","150000","0","1","7cca11d84c1b0d5370a2777702c42ff6ad4357f37999e3d9227e3db041458a5c","150005.19999999553","604.7999999970198","88","1","swim","","","","",""
"dual-task","null","null","null","","arctic","swim","508.6000000014901","","r","null","88","88","1","swim-dual-task","","r","lowercase","162000","0","1","7cca11d84c1b0d5370a2777702c42ff6ad4357f37999e3d9227e3db041458a5c","162005.3999999985","508.6000000014901","88","1","swim","","","","",""
"dual-task","null","null","null","","arctic","swim","660.2999999970198","","R","null","77","77","1","swim-dual-task","","R","uppercase","174000","0","1","7cca11d84c1b0d5370a2777702c42ff6ad4357f37999e3d9227e3db041458a5c","174005.5","660.2999999970198","77","1","swim","","","","",""
"dual-task","null","null","null","","arctic","swim","625.3999999985099","","F","null","77","77","1","swim-dual-task","","F","uppercase","184000","0","1","7cca11d84c1b0d5370a2777702c42ff6ad4357f37999e3d9227e3db041458a5c","184008.29999999702","625.3999999985099","77","1","swim","","","","",""
"dual-task","null","null","null","","arctic","swim","452.1000000014901","","D","null","77","77","1","swim-dual-task","","D","uppercase","196000","0","1","7cca11d84c1b0d5370a2777702c42ff6ad4357f37999e3d9227e3db041458a5c","196013.29999999702","452.1000000014901","77","1","swim","","","","",""
"dual-task","null","null","null","","arctic","swim","519.6999999955297","","a","null","88","88","1","swim-dual-task","","a","lowercase","210000","0","1","7cca11d84c1b0d5370a2777702c42ff6ad4357f37999e3d9227e3db041458a5c","210010.29999999702","519.6999999955297","88","1","swim","","","","",""
"dual-task","null","null","null","","arctic","swim","502.5","","Q","null","77","77","1","swim-dual-task","","Q","uppercase","220000","0","1","7cca11d84c1b0d5370a2777702c42ff6ad4357f37999e3d9227e3db041458a5c","220003.09999999404","502.5","77","1","swim","","","","",""
"dual-task","null","null","null","","arctic","swim","399.70000000298023","","H","null","77","77","1","swim-dual-task","","H","uppercase","230000","0","1","7cca11d84c1b0d5370a2777702c42ff6ad4357f37999e3d9227e3db041458a5c","230010.19999999553","399.70000000298023","77","1","swim","","","","",""
"dual-task","null","null","null","","arctic","swim","717.1000000014901","","R","null","77","77","1","swim-dual-task","","R","uppercase","238000","0","1","7cca11d84c1b0d5370a2777702c42ff6ad4357f37999e3d9227e3db041458a5c","238012.59999999404","717.1000000014901","77","1","swim","","","","",""
"dual-task","null","null","null","","arctic","swim","1079.8000000044703","","t","null","88","88","1","swim-dual-task","","t","lowercase","246000","0","1","7cca11d84c1b0d5370a2777702c42ff6ad4357f37999e3d9227e3db041458a5c","246010.09999999404","1079.8000000044703","88","1","swim","","","","",""
"dual-task","null","null","null","","arctic","swim","375.8999999985099","","G","null","77","77","1","swim-dual-task","","G","uppercase","258000","0","1","7cca11d84c1b0d5370a2777702c42ff6ad4357f37999e3d9227e3db041458a5c","258002","375.8999999985099","77","1","swim","","","","",""
"dual-task","null","null","null","","arctic","swim","422","","G","null","77","77","1","swim-dual-task","","G","uppercase","268000","0","1","7cca11d84c1b0d5370a2777702c42ff6ad4357f37999e3d9227e3db041458a5c","268004","422","77","1","swim","","","","",""
"dual-task","null","null","null","","arctic","swim","512.8999999985099","","D","null","77","77","1","swim-dual-task","","D","uppercase","282000","0","1","7cca11d84c1b0d5370a2777702c42ff6ad4357f37999e3d9227e3db041458a5c","282001.19999999553","512.8999999985099","77","1","swim","","","","",""
"dual-task","null","null","null","","arctic","swim","664.5","","R","null","77","77","1","swim-dual-task","","R","uppercase","288000","0","1","7cca11d84c1b0d5370a2777702c42ff6ad4357f37999e3d9227e3db041458a5c","288009.299999997","664.5","77","1","swim","","","","",""
"dual-task","null","null","null","","arctic","swim","442.29999999701977","","b","null","77","88","0","swim-dual-task","","b","lowercase","302000","0","1","7cca11d84c1b0d5370a2777702c42ff6ad4357f37999e3d9227e3db041458a5c","301999.8999999985","442.29999999701977","77","0","swim","","","","",""
"dual-task","null","null","null","","arctic","swim","556.7000000029802","","e","null","88","88","1","swim-dual-task","","e","lowercase","312000","0","1","7cca11d84c1b0d5370a2777702c42ff6ad4357f37999e3d9227e3db041458a5c","312005","556.7000000029802","88","1","swim","","","","",""
"dual-task","null","null","null","","arctic","swim","517.2999999970198","","g","null","77","88","0","swim-dual-task","","g","lowercase","322000","0","1","7cca11d84c1b0d5370a2777702c42ff6ad4357f37999e3d9227e3db041458a5c","322004.69999999553","517.2999999970198","77","0","swim","","","","",""
"dual-task","null","null","null","","arctic","swim","477.3999999985099","","T","null","77","77","1","swim-dual-task","","T","uppercase","330000","0","1","7cca11d84c1b0d5370a2777702c42ff6ad4357f37999e3d9227e3db041458a5c","330012.19999999553","477.3999999985099","77","1","swim","","","","",""
"dual-task","null","null","null","","arctic","swim","552.9000000059605","","E","null","77","77","1","swim-dual-task","","E","uppercase","340000","0","1","7cca11d84c1b0d5370a2777702c42ff6ad4357f37999e3d9227e3db041458a5c","340001.09999999404","552.9000000059605","77","1","swim","","","","",""
"dual-task","null","null","null","","arctic","swim","441","","B","null","77","77","1","swim-dual-task","","B","uppercase","350000","0","1","7cca11d84c1b0d5370a2777702c42ff6ad4357f37999e3d9227e3db041458a5c","350000.8999999985","441","77","1","swim","","","","",""
"dual-task","null","null","null","","arctic","swim","408.70000000298023","","R","null","77","77","1","swim-dual-task","","R","uppercase","362000","0","1","7cca11d84c1b0d5370a2777702c42ff6ad4357f37999e3d9227e3db041458a5c","362001.19999999553","408.70000000298023","77","1","swim","","","","",""
"dual-task","null","null","null","","arctic","swim","580.6000000014901","","t","null","88","88","1","swim-dual-task","","t","lowercase","372000","0","1","7cca11d84c1b0d5370a2777702c42ff6ad4357f37999e3d9227e3db041458a5c","372013.5","580.6000000014901","88","1","swim","","","","",""
"dual-task","null","null","null","","arctic","swim","1163.1999999955297","","a","null","88","88","1","swim-dual-task","","a","lowercase","380000","0","1","7cca11d84c1b0d5370a2777702c42ff6ad4357f37999e3d9227e3db041458a5c","380014.5","1163.1999999955297","88","1","swim","","","","",""
"dual-task","null","null","null","","arctic","swim","644.9000000059605","","f","null","88","88","1","swim-dual-task","","f","lowercase","390000","0","1","7cca11d84c1b0d5370a2777702c42ff6ad4357f37999e3d9227e3db041458a5c","390005.09999999404","644.9000000059605","88","1","swim","","","","",""
"dual-task","null","null","null","","arctic","swim","NA","","A","null","NA","77","0","swim-dual-task","","A","uppercase","396000","1","1","7cca11d84c1b0d5370a2777702c42ff6ad4357f37999e3d9227e3db041458a5c","396008.299999997","NA","NA","0","swim","","","","",""
"dual-task","null","null","null","","arctic","swim","674.8999999985099","","b","null","77","88","0","swim-dual-task","","b","lowercase","406000","0","1","7cca11d84c1b0d5370a2777702c42ff6ad4357f37999e3d9227e3db041458a5c","406015.09999999404","674.8999999985099","77","0","swim","","","","",""
"dual-task","null","null","null","","arctic","swim","451.70000000298023","","D","null","77","77","1","swim-dual-task","","D","uppercase","416000","0","1","7cca11d84c1b0d5370a2777702c42ff6ad4357f37999e3d9227e3db041458a5c","416014.09999999404","451.70000000298023","77","1","swim","","","","",""
"dual-task","null","null","null","","arctic","swim","407.8999999985099","","F","null","77","77","1","swim-dual-task","","F","uppercase","422000","0","1","7cca11d84c1b0d5370a2777702c42ff6ad4357f37999e3d9227e3db041458a5c","422010","407.8999999985099","77","1","swim","","","","",""
"dual-task","null","null","null","","arctic","swim","1040.5","","e","null","88","88","1","swim-dual-task","","e","lowercase","428000","0","1","7cca11d84c1b0d5370a2777702c42ff6ad4357f37999e3d9227e3db041458a5c","428001.3999999985","1040.5","88","1","swim","","","","",""
"dual-task","null","null","null","","arctic","swim","351.90000000596046","","q","null","88","88","1","swim-dual-task","","q","lowercase","438000","0","1","7cca11d84c1b0d5370a2777702c42ff6ad4357f37999e3d9227e3db041458a5c","438010.09999999404","351.90000000596046","88","1","swim","","","","",""
"dual-task","null","null","null","","arctic","swim","578.6999999955297","","A","null","77","77","1","swim-dual-task","","A","uppercase","444000","0","1","7cca11d84c1b0d5370a2777702c42ff6ad4357f37999e3d9227e3db041458a5c","444014.8999999985","578.6999999955297","77","1","swim","","","","",""
"dual-task","null","null","null","","arctic","swim","759","","r","null","88","88","1","swim-dual-task","","r","lowercase","452000","0","1","7cca11d84c1b0d5370a2777702c42ff6ad4357f37999e3d9227e3db041458a5c","452003","759","88","1","swim","","","","",""
"dual-task","null","null","null","","arctic","swim","440.29999999701977","","D","null","77","77","1","swim-dual-task","","D","uppercase","460000","0","1","7cca11d84c1b0d5370a2777702c42ff6ad4357f37999e3d9227e3db041458a5c","460001.3999999985","440.29999999701977","77","1","swim","","","","",""
"dual-task","null","null","null","","arctic","swim","510.79999999701977","","Q","null","77","77","1","swim-dual-task","","Q","uppercase","474000","0","1","7cca11d84c1b0d5370a2777702c42ff6ad4357f37999e3d9227e3db041458a5c","474003.5","510.79999999701977","77","1","swim","","","","",""
"dual-task","null","null","null","","arctic","swim","511.69999999552965","","e","null","88","88","1","swim-dual-task","","e","lowercase","486000","0","1","7cca11d84c1b0d5370a2777702c42ff6ad4357f37999e3d9227e3db041458a5c","486002.3999999985","511.69999999552965","88","1","swim","","","","",""
"dual-task","null","null","null","","arctic","swim","860.0999999940395","","T","null","77","77","1","swim-dual-task","","T","uppercase","494000","0","1","7cca11d84c1b0d5370a2777702c42ff6ad4357f37999e3d9227e3db041458a5c","494005.5","860.0999999940395","77","1","swim","","","","",""
"dual-task","null","null","null","","arctic","swim","532.1000000014901","","N","null","77","77","1","swim-dual-task","","N","uppercase","508000","0","1","7cca11d84c1b0d5370a2777702c42ff6ad4357f37999e3d9227e3db041458a5c","508006.09999999404","532.1000000014901","77","1","swim","","","","",""
"dual-task","null","null","null","","arctic","swim","825","","G","null","77","77","1","swim-dual-task","","G","uppercase","522000","0","1","7cca11d84c1b0d5370a2777702c42ff6ad4357f37999e3d9227e3db041458a5c","522001","825","77","1","swim","","","","",""
"dual-task","null","null","null","","arctic","swim","632.5999999940395","","B","null","77","77","1","swim-dual-task","","B","uppercase","532000","0","1","7cca11d84c1b0d5370a2777702c42ff6ad4357f37999e3d9227e3db041458a5c","532009","632.5999999940395","77","1","swim","","","","",""
"dual-task","null","null","null","","arctic","swim","981.8999999985099","","n","null","88","88","1","swim-dual-task","","n","lowercase","544000","0","1","7cca11d84c1b0d5370a2777702c42ff6ad4357f37999e3d9227e3db041458a5c","544012.1999999955","981.8999999985099","88","1","swim","","","","",""
"dual-task","null","null","null","","arctic","swim","464.5","","Q","null","88","77","0","swim-dual-task","","Q","uppercase","558000","0","1","7cca11d84c1b0d5370a2777702c42ff6ad4357f37999e3d9227e3db041458a5c","558001.5","464.5","88","0","swim","","","","",""
"dual-task","null","null","null","","arctic","swim","904.2000000029802","","f","null","88","88","1","swim-dual-task","","f","lowercase","564000","0","1","7cca11d84c1b0d5370a2777702c42ff6ad4357f37999e3d9227e3db041458a5c","564009.6999999955","904.2000000029802","88","1","swim","","","","",""
"dual-task","null","null","null","","arctic","swim","491.8999999985099","","N","null","77","77","1","swim-dual-task","","N","uppercase","574000","0","1","7cca11d84c1b0d5370a2777702c42ff6ad4357f37999e3d9227e3db041458a5c","574013.8999999985","491.8999999985099","77","1","swim","","","","",""
"dual-task","null","null","null","","arctic","swim","659.5","","q","null","88","88","1","swim-dual-task","","q","lowercase","582000","0","1","7cca11d84c1b0d5370a2777702c42ff6ad4357f37999e3d9227e3db041458a5c","582006.299999997","659.5","88","1","swim","","","","",""
"dual-task","null","null","null","","arctic","swim","402.20000000298023","","h","null","88","88","1","swim-dual-task","","h","lowercase","592000","0","1","7cca11d84c1b0d5370a2777702c42ff6ad4357f37999e3d9227e3db041458a5c","592008.799999997","402.20000000298023","88","1","swim","","","","",""
"dual-task","null","null","null","","arctic","swim","574.8999999985099","","B","null","77","77","1","swim-dual-task","","B","uppercase","606000","0","1","7cca11d84c1b0d5370a2777702c42ff6ad4357f37999e3d9227e3db041458a5c","606003","574.8999999985099","77","1","swim","","","","",""
"dual-task","null","null","null","","arctic","swim","1298.6999999955297","","a","null","88","88","1","swim-dual-task","","a","lowercase","612000","0","1","7cca11d84c1b0d5370a2777702c42ff6ad4357f37999e3d9227e3db041458a5c","612014.3999999985","1298.6999999955297","88","1","swim","","","","",""
"dual-task","null","null","null","","arctic","swim","1339.2000000029802","","B","null","77","77","1","swim-dual-task","","B","uppercase","620000","0","1","7cca11d84c1b0d5370a2777702c42ff6ad4357f37999e3d9227e3db041458a5c","620006.599999994","1339.2000000029802","77","1","swim","","","","",""
"dual-task","null","null","null","","arctic","swim","752.5","","A","null","88","77","0","swim-dual-task","","A","uppercase","628000","0","1","7cca11d84c1b0d5370a2777702c42ff6ad4357f37999e3d9227e3db041458a5c","628001.299999997","752.5","88","0","swim","","","","",""
"dual-task","null","null","null","","arctic","swim","615.3999999985099","","F","null","77","77","1","swim-dual-task","","F","uppercase","636000","0","1","7cca11d84c1b0d5370a2777702c42ff6ad4357f37999e3d9227e3db041458a5c","636002.299999997","615.3999999985099","77","1","swim","","","","",""
"dual-task","null","null","null","","arctic","swim","541.5","","d","null","88","88","1","swim-dual-task","","d","lowercase","646000","0","1","7cca11d84c1b0d5370a2777702c42ff6ad4357f37999e3d9227e3db041458a5c","646011.8999999985","541.5","88","1","swim","","","","",""
"dual-task","null","null","null","","arctic","swim","472.5","","T","null","77","77","1","swim-dual-task","","T","uppercase","656000","0","1","7cca11d84c1b0d5370a2777702c42ff6ad4357f37999e3d9227e3db041458a5c","656009.099999994","472.5","77","1","swim","","","","",""
"dual-task","null","null","null","","arctic","swim","457","","N","null","77","77","1","swim-dual-task","","N","uppercase","664000","0","1","7cca11d84c1b0d5370a2777702c42ff6ad4357f37999e3d9227e3db041458a5c","664008.6999999955","457","77","1","swim","","","","",""
"dual-task","null","null","null","","arctic","swim","430.20000000298023","","h","null","77","88","0","swim-dual-task","","h","lowercase","676000","0","1","7cca11d84c1b0d5370a2777702c42ff6ad4357f37999e3d9227e3db041458a5c","676011.6999999955","430.20000000298023","77","0","swim","","","","",""
"dual-task","null","null","null","","arctic","swim","517.2000000029802","","q","null","88","88","1","swim-dual-task","","q","lowercase","688000","0","1","7cca11d84c1b0d5370a2777702c42ff6ad4357f37999e3d9227e3db041458a5c","688005.1999999955","517.2000000029802","88","1","swim","","","","",""
"dual-task","null","null","null","","arctic","swim","579.3999999985099","","g","null","88","88","1","swim-dual-task","","g","lowercase","694000","0","1","7cca11d84c1b0d5370a2777702c42ff6ad4357f37999e3d9227e3db041458a5c","694006.3999999985","579.3999999985099","88","1","swim","","","","",""
"dual-task","null","null","null","","arctic","swim","616.2000000029802","","g","null","88","88","1","swim-dual-task","","g","lowercase","704000","0","1","7cca11d84c1b0d5370a2777702c42ff6ad4357f37999e3d9227e3db041458a5c","704009.799999997","616.2000000029802","88","1","swim","","","","",""
"dual-task","null","null","null","","arctic","swim","907.3999999985099","","E","null","88","77","0","swim-dual-task","","E","uppercase","712000","0","1","7cca11d84c1b0d5370a2777702c42ff6ad4357f37999e3d9227e3db041458a5c","712006.3999999985","907.3999999985099","88","0","swim","","","","",""
"dual-task","null","null","null","","arctic","swim","602.3999999985099","","E","null","77","77","1","swim-dual-task","","E","uppercase","722000","0","1","7cca11d84c1b0d5370a2777702c42ff6ad4357f37999e3d9227e3db041458a5c","722007.299999997","602.3999999985099","77","1","swim","","","","",""
"dual-task","null","null","null","","arctic","swim","522.8999999985099","","Q","null","77","77","1","swim-dual-task","","Q","uppercase","734000","0","1","7cca11d84c1b0d5370a2777702c42ff6ad4357f37999e3d9227e3db041458a5c","734015.3999999985","522.8999999985099","77","1","swim","","","","",""
"dual-task","null","null","null","","arctic","swim","834.3999999985099","","n","null","88","88","1","swim-dual-task","","n","lowercase","746000","0","1","7cca11d84c1b0d5370a2777702c42ff6ad4357f37999e3d9227e3db041458a5c","746007.6999999955","834.3999999985099","88","1","swim","","","","",""
"dual-task","null","null","null","","arctic","swim","565.1000000014901","","T","null","88","77","0","swim-dual-task","","T","uppercase","760000","0","1","7cca11d84c1b0d5370a2777702c42ff6ad4357f37999e3d9227e3db041458a5c","760012.8999999985","565.1000000014901","88","0","swim","","","","",""
"dual-task","null","null","null","","arctic","swim","706.6000000014901","","a","null","88","88","1","swim-dual-task","","a","lowercase","766000","0","1","7cca11d84c1b0d5370a2777702c42ff6ad4357f37999e3d9227e3db041458a5c","766015.1999999955","706.6000000014901","88","1","swim","","","","",""
"dual-task","null","null","null","","arctic","swim","424.8999999985099","","N","null","77","77","1","swim-dual-task","","N","uppercase","778000","0","1","7cca11d84c1b0d5370a2777702c42ff6ad4357f37999e3d9227e3db041458a5c","778001","424.8999999985099","77","1","swim","","","","",""
"dual-task","null","null","null","","arctic","swim","898","","f","null","88","88","1","swim-dual-task","","f","lowercase","788000","0","1","7cca11d84c1b0d5370a2777702c42ff6ad4357f37999e3d9227e3db041458a5c","788008.099999994","898","88","1","swim","","","","",""
"dual-task","null","null","null","","arctic","swim","1079.7000000029802","","H","null","77","77","1","swim-dual-task","","H","uppercase","794000","0","1","7cca11d84c1b0d5370a2777702c42ff6ad4357f37999e3d9227e3db041458a5c","794002.099999994","1079.7000000029802","77","1","swim","","","","",""
"audio-keyboard-response","62","2074713","0.0-6.0-2.0-1.0","7cca11d84c1b0d5370a2777702c42ff6ad4357f37999e3d9227e3db041458a5c","arctic","swim","null","","audio/story_swim_scrambled.mp3","","null","","","","","","","","","","","","","","","","","","","",""
"html-button-response","63","2076852","0.0-6.0-2.0-2.0","7cca11d84c1b0d5370a2777702c42ff6ad4357f37999e3d9227e3db041458a5c","arctic","swim","2139","","<p>This concludes the story. Thank you for listening.</p><p>You will now answer some questions about the content of the story.</p>","0","","","","","","","","","","","","","","","","","","","","",""
"survey-multi-choice","64","2082650","0.0-6.0-2.0-3.0-0.0","7cca11d84c1b0d5370a2777702c42ff6ad4357f37999e3d9227e3db041458a5c","arctic","swim","5796","","<b>What is the narrator afraid of, aside from the water?</b>","","","","0","swim-comprehension","","","","","","","","","","","","","{""Q0"":""Loud noises""}","","","",""
"survey-multi-choice","65","2089257","0.0-6.0-2.0-3.0-0.1","7cca11d84c1b0d5370a2777702c42ff6ad4357f37999e3d9227e3db041458a5c","arctic","swim","6355","","<b>How did the narrator train for his swim test?</b>","","","","0","swim-comprehension","","","","","","","","","","","","","{""Q0"":""Signed up for a swim class""}","","","",""
"survey-multi-choice","66","2097916","0.0-6.0-2.0-3.0-0.2","7cca11d84c1b0d5370a2777702c42ff6ad4357f37999e3d9227e3db041458a5c","arctic","swim","8406","","<b>How many astronaut candidates reported for duty at the Johnson Space Center?</b>","","","","0","swim-comprehension","","","","","","","","","","","","","{""Q0"":""None""}","","","",""
"survey-multi-choice","67","2103779","0.0-6.0-2.0-3.0-0.3","7cca11d84c1b0d5370a2777702c42ff6ad4357f37999e3d9227e3db041458a5c","arctic","swim","5610","","<b>What was the final step of the first swim test in the pool?</b>","","","","1","swim-comprehension","","","","","","","","","","","","","{""Q0"":""Tread water with hands above the water""}","","","",""
"survey-multi-choice","68","2109417","0.0-6.0-2.0-3.0-0.4","7cca11d84c1b0d5370a2777702c42ff6ad4357f37999e3d9227e3db041458a5c","arctic","swim","5386","","<b>Where is the home of naval aviation?</b>","","","","1","swim-comprehension","","","","","","","","","","","","","{""Q0"":""Pensacola""}","","","",""
"survey-multi-choice","69","2118276","0.0-6.0-2.0-3.0-0.5","7cca11d84c1b0d5370a2777702c42ff6ad4357f37999e3d9227e3db041458a5c","arctic","swim","8606","","<b>How many astronaut candidates passed the first swim test?</b>","","","","1","swim-comprehension","","","","","","","","","","","","","{""Q0"":""All of them""}","","","",""
"survey-multi-choice","70","2139171","0.0-6.0-2.0-3.0-0.6","7cca11d84c1b0d5370a2777702c42ff6ad4357f37999e3d9227e3db041458a5c","arctic","swim","20642","","<b>How many times did the astronaut candidates have to complete the final exercise to pass?</b>","","","","1","swim-comprehension","","","","","","","","","","","","","{""Q0"":""Two""}","","","",""
"survey-multi-choice","71","2145097","0.0-6.0-2.0-3.0-0.7","7cca11d84c1b0d5370a2777702c42ff6ad4357f37999e3d9227e3db041458a5c","arctic","swim","5673","","<b>What were the astronaut candidates trained to do at the naval air station?</b>","","","","1","swim-comprehension","","","","","","","","","","","","","{""Q0"":""Eject out of aircraft and survive in water long enough to be rescued""}","","","",""
"survey-multi-choice","72","2151594","0.0-6.0-2.0-3.0-0.8","7cca11d84c1b0d5370a2777702c42ff6ad4357f37999e3d9227e3db041458a5c","arctic","swim","6244","","<b>How often does the narrator swim, now that he is a good swimmer?</b>","","","","0","swim-comprehension","","","","","","","","","","","","","{""Q0"":""Every weekend with his kids""}","","","",""
"survey-multi-choice","73","2158295","0.0-6.0-2.0-3.0-0.9","7cca11d84c1b0d5370a2777702c42ff6ad4357f37999e3d9227e3db041458a5c","arctic","swim","6449","","<b>What gave the narrator his greatest feeling of accomplishment?</b>","","","","1","swim-comprehension","","","","","","","","","","","","","{""Q0"":""Passing the water survival course""}","","","",""
"html-button-response","74","2159404","0.0-6.0-2.0-4.0","7cca11d84c1b0d5370a2777702c42ff6ad4357f37999e3d9227e3db041458a5c","arctic","swim","857","","<p>Thank you for your responses.</p><p>You will now answer some questions about your impressions of the story.</p>","0","","","","","","","","","","","","","","","","","","","","",""
"html-button-response","75","2160972","0.0-6.0-2.0-5.0-0.0","7cca11d84c1b0d5370a2777702c42ff6ad4357f37999e3d9227e3db041458a5c","arctic","swim","1566","","E1","5","","","","swim-engagement","","","","","","","","","","","","","","6","enjoyment","",""
"html-button-response","76","2161754","0.0-6.0-2.0-5.0-0.1","7cca11d84c1b0d5370a2777702c42ff6ad4357f37999e3d9227e3db041458a5c","arctic","swim","530","","A4","4","","","","swim-engagement","","","","","","","","","","","","","","5","absorption","",""
"html-button-response","77","2162640","0.0-6.0-2.0-5.0-0.2","7cca11d84c1b0d5370a2777702c42ff6ad4357f37999e3d9227e3db041458a5c","arctic","swim","633","","E10","6","","","","swim-engagement","","","","","","","","","","","","","","7","enjoyment","",""
"html-button-response","78","2166236","0.0-6.0-2.0-5.0-0.3","7cca11d84c1b0d5370a2777702c42ff6ad4357f37999e3d9227e3db041458a5c","arctic","swim","3346","","A1","4","","","","swim-engagement","","","","","","","","","","","","","","5","absorption","",""
"html-button-response","79","2168920","0.0-6.0-2.0-5.0-0.4","7cca11d84c1b0d5370a2777702c42ff6ad4357f37999e3d9227e3db041458a5c","arctic","swim","2432","","MS3","3","","","","swim-engagement","","","","","","","","","","","","","","4","mental-sim","",""
"html-button-response","80","2171246","0.0-6.0-2.0-5.0-0.5","7cca11d84c1b0d5370a2777702c42ff6ad4357f37999e3d9227e3db041458a5c","arctic","swim","2073","","A5","4","","","","swim-engagement","","","","","","","","","","","","","","5","absorption","",""
"html-button-response","81","2172480","0.0-6.0-2.0-5.0-0.6","7cca11d84c1b0d5370a2777702c42ff6ad4357f37999e3d9227e3db041458a5c","arctic","swim","980","","MS1","6","","","","swim-engagement","","","","","","","","","","","","","","7","mental-sim","",""
"html-button-response","82","2174161","0.0-6.0-2.0-5.0-0.7","7cca11d84c1b0d5370a2777702c42ff6ad4357f37999e3d9227e3db041458a5c","arctic","swim","1428","","MS2","3","","","","swim-engagement","","","","","","","","","","","","","","4","mental-sim","",""
"html-button-response","83","2175521","0.0-6.0-2.0-5.0-0.8","7cca11d84c1b0d5370a2777702c42ff6ad4357f37999e3d9227e3db041458a5c","arctic","swim","1109","","EE3","5","","","","swim-engagement","","","","","","","","","","","","","","6","emo-engage","",""
"html-button-response","84","2177389","0.0-6.0-2.0-5.0-0.9","7cca11d84c1b0d5370a2777702c42ff6ad4357f37999e3d9227e3db041458a5c","arctic","swim","1615","","A2","4","","","","swim-engagement","","","","","","","","","","","","","","5","absorption","",""
"html-button-response","85","2178981","0.0-6.0-2.0-5.0-0.10","7cca11d84c1b0d5370a2777702c42ff6ad4357f37999e3d9227e3db041458a5c","arctic","swim","1339","","E8","6","","","","swim-engagement","","","","","","","","","","","","","","7","enjoyment","",""
"html-button-response","86","2180357","0.0-6.0-2.0-5.0-0.11","7cca11d84c1b0d5370a2777702c42ff6ad4357f37999e3d9227e3db041458a5c","arctic","swim","1124","","A3","1","","","","swim-engagement","","","","","","","","","","","","","","2","absorption","",""
"html-button-response","87","2181963","0.0-6.0-2.0-5.0-0.12","7cca11d84c1b0d5370a2777702c42ff6ad4357f37999e3d9227e3db041458a5c","arctic","swim","1354","","E7","4","","","","swim-engagement","","","","","","","","","","","","","","5","enjoyment","",""
"html-button-response","88","2183398","0.0-6.0-2.0-5.0-0.13","7cca11d84c1b0d5370a2777702c42ff6ad4357f37999e3d9227e3db041458a5c","arctic","swim","1183","","EE5","3","","","","swim-engagement","","","","","","","","","","","","","","4","emo-engage","",""
"html-button-response","89","2184453","0.0-6.0-2.0-5.0-0.14","7cca11d84c1b0d5370a2777702c42ff6ad4357f37999e3d9227e3db041458a5c","arctic","swim","804","","E6","5","","","","swim-engagement","","","","","","","","","","","","","","6","enjoyment","",""
"html-button-response","90","2185742","0.0-6.0-2.0-5.0-0.15","7cca11d84c1b0d5370a2777702c42ff6ad4357f37999e3d9227e3db041458a5c","arctic","swim","1036","","EE1","6","","","","swim-engagement","","","","","","","","","","","","","","7","emo-engage","",""
"html-button-response","91","2187001","0.0-6.0-2.0-5.0-0.16","7cca11d84c1b0d5370a2777702c42ff6ad4357f37999e3d9227e3db041458a5c","arctic","swim","1008","","EE4","5","","","","swim-engagement","","","","","","","","","","","","","","6","emo-engage","",""
"html-button-response","92","2188310","0.0-6.0-2.0-5.0-0.17","7cca11d84c1b0d5370a2777702c42ff6ad4357f37999e3d9227e3db041458a5c","arctic","swim","1058","","EE2","6","","","","swim-engagement","","","","","","","","","","","","","","7","emo-engage","",""
"html-button-response","93","2189571","0.0-8.0","7cca11d84c1b0d5370a2777702c42ff6ad4357f37999e3d9227e3db041458a5c","arctic","swim","1009","","<p>Thank you for your responses.</p><p>You will now answer some demographic, hearing, and general health questions.</p>","0","","","","","","","","","","","","","","","","","","","","",""
"survey-multi-choice","94","2191536","0.0-9.0-0.0","7cca11d84c1b0d5370a2777702c42ff6ad4357f37999e3d9227e3db041458a5c","arctic","swim","1964","","","","","","","survey","","","","","","","","","","","","","{""Q0"":""Chrome""}","","","browser",""
"survey-text","95","2193403","0.0-9.0-1.0","7cca11d84c1b0d5370a2777702c42ff6ad4357f37999e3d9227e3db041458a5c","arctic","swim","1614.2000000029802","","","","","","","survey","","","","","","","","","","","","","{""AGE"":""25""}","","","age","25"
"survey-multi-choice","96","2194995","0.0-9.0-2.0","7cca11d84c1b0d5370a2777702c42ff6ad4357f37999e3d9227e3db041458a5c","arctic","swim","1340","","","","","","","survey","","","","","","","","","","","","","{""Q0"":""Male""}","","","gender","Male"
"survey-multi-choice","97","2197064","0.0-9.0-4.0","7cca11d84c1b0d5370a2777702c42ff6ad4357f37999e3d9227e3db041458a5c","arctic","swim","1817","","","","","","","survey","","","","","","","","","","","","","{""Q0"":""Right""}","","","handedness","Right"
"survey-multi-choice","98","2200887","0.0-9.0-5.0","7cca11d84c1b0d5370a2777702c42ff6ad4357f37999e3d9227e3db041458a5c","arctic","swim","3569","","","","","","","survey","","","","","","","","","","","","","{""Q0"":""Some university undergraduate schooling""}","","","education","Some university undergraduate schooling"
"survey-text","99","2204473","0.0-10.0-0.0","7cca11d84c1b0d5370a2777702c42ff6ad4357f37999e3d9227e3db041458a5c","arctic","swim","3332.7000000029802","","","","","","","survey","","","","","","","","","","","","","{""L1"":""English""}","","","first-language","English"
"survey-text","100","2218789","0.0-10.0-1.0","7cca11d84c1b0d5370a2777702c42ff6ad4357f37999e3d9227e3db041458a5c","arctic","swim","14060.60000000149","","","","","","","survey","","","","","","","","","","","","","{""L2name"":""Spanish"",""L2fluency"":""3"",""L3name"":""Korean"",""L3fluency"":""6"",""L4name"":"""",""L4fluency"":""""}","","","additional-languages","{""L2name"":""Spanish"",""L2fluency"":""3"",""L3name"":""Korean"",""L3fluency"":""6"",""L4name"":"""",""L4fluency"":""""}"
"survey-multi-choice","101","2221067","0.0-10.0-2.0","7cca11d84c1b0d5370a2777702c42ff6ad4357f37999e3d9227e3db041458a5c","arctic","swim","2023","","","","","","","survey","","","","","","","","","","","","","{""Q0"":""No""}","","","hearing-aid","No"
"survey-multi-choice","102","2224222","0.0-10.0-3.0","7cca11d84c1b0d5370a2777702c42ff6ad4357f37999e3d9227e3db041458a5c","arctic","swim","2903","","","","","","","survey","","","","","","","","","","","","","{""Q0"":""Never""}","","","ringing-ears","Never"
"survey-multi-choice","103","2226460","0.0-10.0-5.0","7cca11d84c1b0d5370a2777702c42ff6ad4357f37999e3d9227e3db041458a5c","arctic","swim","1986","","","","","","","survey","","","","","","","","","","","","","{""Q0"":""No""}","","","neuro-disease","No"
"survey-multi-choice","104","2228219","0.0-10.0-7.0","7cca11d84c1b0d5370a2777702c42ff6ad4357f37999e3d9227e3db041458a5c","arctic","swim","1506","","","","","","","survey","","","","","","","","","","","","","{""Q0"":""No""}","","","take-meds","No"
"survey-text","105","2230584","0.0-10.0-9.0","7cca11d84c1b0d5370a2777702c42ff6ad4357f37999e3d9227e3db041458a5c","arctic","swim","2101.5999999940395","","","","","","","survey","","","","","","","","","","","","","{""HC"":""None""}","","","health-concerns","None"
"html-button-response","106","2233252","0.0-11.0-0.0","7cca11d84c1b0d5370a2777702c42ff6ad4357f37999e3d9227e3db041458a5c","arctic","swim","2416","","<p>How would you describe your musical skills/experiences?</p>","4","","","","survey","","","","","","","","","","","","","","","","music-skill","5"
"survey-multi-choice","107","2235013","0.0-11.0-1.0","7cca11d84c1b0d5370a2777702c42ff6ad4357f37999e3d9227e3db041458a5c","arctic","swim","1509","","","","","","","survey","","","","","","","","","","","","","{""Q0"":""Yes""}","","","music-instrument","Yes"
"survey-text","108","2240047","0.0-11.0-2.0-0.0","7cca11d84c1b0d5370a2777702c42ff6ad4357f37999e3d9227e3db041458a5c","arctic","swim","4781.80000000447","","","","","","","survey","","","","","","","","","","","","","{""MEXP"":""13""}","","","music-training-yrs","13"
"html-button-response","109","2243952","0.0-12.0-0.0","7cca11d84c1b0d5370a2777702c42ff6ad4357f37999e3d9227e3db041458a5c","arctic","swim","3653","","<p>How would you describe your general hearing abilities?</p>","5","","","","survey","","","","","","","","","","","","","","","","ssq-01","6"
"html-button-response","110","2247987","0.0-12.0-1.0","7cca11d84c1b0d5370a2777702c42ff6ad4357f37999e3d9227e3db041458a5c","arctic","swim","3783","","<p>When you talk with someone at a place that strongly reverberates/echoes (e.g., in a church or train station),</br>can you understand what the person says?</p>","9","","","","survey","","","","","","","","","","","","","","","","ssq-02","9"
"html-button-response","111","2250613","0.0-12.0-2.0","7cca11d84c1b0d5370a2777702c42ff6ad4357f37999e3d9227e3db041458a5c","arctic","swim","2374","","<p>When you are with a group (~5 people) in a lively restaurant, can you follow the group's conversation?</p>","10","","","","survey","","","","","","","","","","","","","","","","ssq-03","10"
"html-button-response","112","2251516","0.0-12.0-3.0","7cca11d84c1b0d5370a2777702c42ff6ad4357f37999e3d9227e3db041458a5c","arctic","swim","650","","<p>Based on the sound of a bus or truck, can you tell whether it is moving towards or away from you?</p>","8","","","","survey","","","","","","","","","","","","","","","","ssq-04","8"
"html-button-response","113","2252366","0.0-12.0-4.0","7cca11d84c1b0d5370a2777702c42ff6ad4357f37999e3d9227e3db041458a5c","arctic","swim","598","","<p>When you are in an unknown environment, can you tell from which direction a brief sound originates?</p>","9","","","","survey","","","","","","","","","","","","","","","","ssq-05","9"
"html-button-response","114","2254763","0.0-12.0-5.0","7cca11d84c1b0d5370a2777702c42ff6ad4357f37999e3d9227e3db041458a5c","arctic","swim","2144","","<p>Are you able to ignore distracting sounds when you concentrate on a specific aspect of your acoustic surrounding?</p>","9","","","","survey","","","","","","","","","","","","","","","","ssq-06","9"
"fullscreen","115","2256014","0.0-13.0","7cca11d84c1b0d5370a2777702c42ff6ad4357f37999e3d9227e3db041458a5c","arctic","swim","","","","","","","","","true","","","","","","","","","","","","","","","",""
