"trial_type","trial_index","time_elapsed","internal_node_id","ParticipantID","firstStory","scramStory","rt","url","stimulus","button_pressed","key_press","correctRESP","correct","designation","success","letterStim","letterType","ONSET","TIMEOUT","CONDITION","Participant","ONSET_ACTUAL","RT","RESP","ACC","STORY","responses","response","type","surveyQuestion","QRESP"
"pavlovia","0","9","0.0-0.0","01d92d17ed0ea9d99d2bac6381808c7ee69318be66dd3daf29c6bf4568786f8d","arctic","swim","","","","","","","","","","","","","","","","","","","","","","","","",""
"external-html","1","7192","0.0-1.0","01d92d17ed0ea9d99d2bac6381808c7ee69318be66dd3daf29c6bf4568786f8d","arctic","swim","7024","consent/consent_updated.html","","","","","","","","","","","","","","","","","","","","","","",""
"html-button-response","2","17029","0.0-2.0-0.0","01d92d17ed0ea9d99d2bac6381808c7ee69318be66dd3daf29c6bf4568786f8d","arctic","swim","9836","","<p>Before we begin the main task, you will complete a short volume calibration and headphone check.</p><p>Please make sure you are in a quiet listening environment, that you are wearing headphones, and that your computer's volume is turned on.<p></p>","0","","","","","","","","","","","","","","","","","","","","",""
"html-button-response","3","19329","0.0-2.0-1.0","01d92d17ed0ea9d99d2bac6381808c7ee69318be66dd3daf29c6bf4568786f8d","arctic","swim","2043","","<p>The volume calibration will be first.</p><p>You will hear a thirty-second noise. Please adjust your computer's volume so that this noise is being presented at a comfortable level.<p></p>","0","","","","","","","","","","","","","","","","","","","","",""
"audio-button-response","4","25400","0.0-2.0-2.0","01d92d17ed0ea9d99d2bac6381808c7ee69318be66dd3daf29c6bf4568786f8d","arctic","swim","5522","","audio/volumetest.mp3","0","","","","","","","","","","","","","","","","","","","","",""
"html-keyboard-response","5","31747","0.0-3.0-0.0","01d92d17ed0ea9d99d2bac6381808c7ee69318be66dd3daf29c6bf4568786f8d","arctic","swim","6345","","<p>You will now complete a short headphone check.</p><p>On each trial, you will hear three tones. One of these tones will be quieter than the others. Your task is to identify whether the quiet tone occurred first, second, or third.</p><p>There are six trials in total.<p></p><p></p>(Press SPACEBAR to begin)","","32","","","","","","","","","","","","","","","","","","","",""
"html-keyboard-response","6","32522","0.0-3.0-1.0-0.0","01d92d17ed0ea9d99d2bac6381808c7ee69318be66dd3daf29c6bf4568786f8d","arctic","swim","null","","<div style=""font-size:60px;"">+</div>","","null","","","","","","","","","","","","","","","","","","","",""
"audio-button-response","7","37240","0.0-3.0-1.0-1.0","01d92d17ed0ea9d99d2bac6381808c7ee69318be66dd3daf29c6bf4568786f8d","arctic","swim","4716","","audio/t2_1.mp3","1","","1","1","headphone-test","","","","","","","","","","","","","","","","",""
"html-keyboard-response","8","37754","0.0-3.0-1.0-2.0","01d92d17ed0ea9d99d2bac6381808c7ee69318be66dd3daf29c6bf4568786f8d","arctic","swim","null","","<p>Correct</p>","","null","","","","","","","","","","","","","","","","","","","",""
"html-keyboard-response","9","38298","0.0-3.0-1.0-0.1","01d92d17ed0ea9d99d2bac6381808c7ee69318be66dd3daf29c6bf4568786f8d","arctic","swim","null","","<div style=""font-size:60px;"">+</div>","","null","","","","","","","","","","","","","","","","","","","",""
"audio-button-response","10","43212","0.0-3.0-1.0-1.1","01d92d17ed0ea9d99d2bac6381808c7ee69318be66dd3daf29c6bf4568786f8d","arctic","swim","4912","","audio/t1_2.mp3","0","","0","1","headphone-test","","","","","","","","","","","","","","","","",""
"html-keyboard-response","11","43738","0.0-3.0-1.0-2.1","01d92d17ed0ea9d99d2bac6381808c7ee69318be66dd3daf29c6bf4568786f8d","arctic","swim","null","","<p>Correct</p>","","null","","","","","","","","","","","","","","","","","","","",""
"html-keyboard-response","12","44244","0.0-3.0-1.0-0.2","01d92d17ed0ea9d99d2bac6381808c7ee69318be66dd3daf29c6bf4568786f8d","arctic","swim","null","","<div style=""font-size:60px;"">+</div>","","null","","","","","","","","","","","","","","","","","","","",""
"audio-button-response","13","48940","0.0-3.0-1.0-1.2","01d92d17ed0ea9d99d2bac6381808c7ee69318be66dd3daf29c6bf4568786f8d","arctic","swim","4691","","audio/t2_2.mp3","1","","1","1","headphone-test","","","","","","","","","","","","","","","","",""
"html-keyboard-response","14","49449","0.0-3.0-1.0-2.2","01d92d17ed0ea9d99d2bac6381808c7ee69318be66dd3daf29c6bf4568786f8d","arctic","swim","null","","<p>Correct</p>","","null","","","","","","","","","","","","","","","","","","","",""
"html-keyboard-response","15","49961","0.0-3.0-1.0-0.3","01d92d17ed0ea9d99d2bac6381808c7ee69318be66dd3daf29c6bf4568786f8d","arctic","swim","null","","<div style=""font-size:60px;"">+</div>","","null","","","","","","","","","","","","","","","","","","","",""
"audio-button-response","16","54982","0.0-3.0-1.0-1.3","01d92d17ed0ea9d99d2bac6381808c7ee69318be66dd3daf29c6bf4568786f8d","arctic","swim","5019","","audio/t3_2.mp3","2","","2","1","headphone-test","","","","","","","","","","","","","","","","",""
"html-keyboard-response","17","55509","0.0-3.0-1.0-2.3","01d92d17ed0ea9d99d2bac6381808c7ee69318be66dd3daf29c6bf4568786f8d","arctic","swim","null","","<p>Correct</p>","","null","","","","","","","","","","","","","","","","","","","",""
"html-keyboard-response","18","56024","0.0-3.0-1.0-0.4","01d92d17ed0ea9d99d2bac6381808c7ee69318be66dd3daf29c6bf4568786f8d","arctic","swim","null","","<div style=""font-size:60px;"">+</div>","","null","","","","","","","","","","","","","","","","","","","",""
"audio-button-response","19","60610","0.0-3.0-1.0-1.4","01d92d17ed0ea9d99d2bac6381808c7ee69318be66dd3daf29c6bf4568786f8d","arctic","swim","4586","","audio/t3_1.mp3","2","","2","1","headphone-test","","","","","","","","","","","","","","","","",""
"html-keyboard-response","20","61114","0.0-3.0-1.0-2.4","01d92d17ed0ea9d99d2bac6381808c7ee69318be66dd3daf29c6bf4568786f8d","arctic","swim","null","","<p>Correct</p>","","null","","","","","","","","","","","","","","","","","","","",""
"html-keyboard-response","21","61627","0.0-3.0-1.0-0.5","01d92d17ed0ea9d99d2bac6381808c7ee69318be66dd3daf29c6bf4568786f8d","arctic","swim","null","","<div style=""font-size:60px;"">+</div>","","null","","","","","","","","","","","","","","","","","","","",""
"audio-button-response","22","66882","0.0-3.0-1.0-1.5","01d92d17ed0ea9d99d2bac6381808c7ee69318be66dd3daf29c6bf4568786f8d","arctic","swim","5254","","audio/t1_1.mp3","0","","0","1","headphone-test","","","","","","","","","","","","","","","","",""
"html-keyboard-response","23","67389","0.0-3.0-1.0-2.5","01d92d17ed0ea9d99d2bac6381808c7ee69318be66dd3daf29c6bf4568786f8d","arctic","swim","null","","<p>Correct</p>","","null","","","","","","","","","","","","","","","","","","","",""
"fullscreen","24","70000","0.0-4.0","01d92d17ed0ea9d99d2bac6381808c7ee69318be66dd3daf29c6bf4568786f8d","arctic","swim","","","","","","","","","true","","","","","","","","","","","","","","","",""
"html-button-response","25","77376","0.0-5.0-0.0","01d92d17ed0ea9d99d2bac6381808c7ee69318be66dd3daf29c6bf4568786f8d","arctic","swim","7376","","<p>There are two blocks to this experiment.</p><p>In each block, you will hear a ~13.5 minute story. One of the stories will be scrambled. Please listen carefully to both stories and understand them as best you can.</p><p>After each story, you will be asked some questions to assess your comprehension.</p>","0","","","","","","","","","","","","","","","","","","","","",""
"html-button-response","26","89147","0.0-5.0-1.0","01d92d17ed0ea9d99d2bac6381808c7ee69318be66dd3daf29c6bf4568786f8d","arctic","swim","11771","","<p>During each story, there will be an additional task.</p><p>A letter will occasionally appear on the screen.</br>Your job is to - as quickly as you can - decide whether the letter is lowercase or uppercase and press one of two keys on the keyboard:</p><p>If the letter is <b>lowercase</b>, press key &lt;<b>x</b>&gt;.</p><p>If the letter is <b>uppercase</b>, press key &lt;<b>m</b>&gt;.</p>","0","","","","","","","","","","","","","","","","","","","","",""
"html-keyboard-response","27","97879","0.0-5.0-2.0","01d92d17ed0ea9d99d2bac6381808c7ee69318be66dd3daf29c6bf4568786f8d","arctic","swim","8731","","<p>Because we want your responses to be as quick as possible, please keep your index fingers over the keys while listening.</p><p>Each block lasts about 20 minutes.</p><p><b>Press &lt;x&gt; or &lt;m&gt; to start the first block!</b></p>","","88","","","","","","","","","","","","","","","","","","","",""
"html-keyboard-response","28","98390","0.0-6.0-0.0-0.0","01d92d17ed0ea9d99d2bac6381808c7ee69318be66dd3daf29c6bf4568786f8d","arctic","swim","null","","<div style=""font-size:60px;"" tabindex=""0"">+</div>","","null","","","","","","","","","","","","","","","","","","","",""
"dual-task","null","null","null","","arctic","swim","1361","","a","null","88","88","1","arctic-dual-task","","a","lowercase","16000","0","4","01d92d17ed0ea9d99d2bac6381808c7ee69318be66dd3daf29c6bf4568786f8d","16003","1361","88","1","arctic","","","","",""
"dual-task","null","null","null","","arctic","swim","1872","","G","null","77","77","1","arctic-dual-task","","G","uppercase","22000","0","4","01d92d17ed0ea9d99d2bac6381808c7ee69318be66dd3daf29c6bf4568786f8d","22018","1872","77","1","arctic","","","","",""
"dual-task","null","null","null","","arctic","swim","615","","D","null","77","77","1","arctic-dual-task","","D","uppercase","30000","0","4","01d92d17ed0ea9d99d2bac6381808c7ee69318be66dd3daf29c6bf4568786f8d","30012","615","77","1","arctic","","","","",""
"dual-task","null","null","null","","arctic","swim","576","","H","null","77","77","1","arctic-dual-task","","H","uppercase","40000","0","4","01d92d17ed0ea9d99d2bac6381808c7ee69318be66dd3daf29c6bf4568786f8d","40010","576","77","1","arctic","","","","",""
"dual-task","null","null","null","","arctic","swim","564","","F","null","77","77","1","arctic-dual-task","","F","uppercase","52000","0","4","01d92d17ed0ea9d99d2bac6381808c7ee69318be66dd3daf29c6bf4568786f8d","52007","564","77","1","arctic","","","","",""
"dual-task","null","null","null","","arctic","swim","NA","","F","null","NA","77","0","arctic-dual-task","","F","uppercase","60000","1","4","01d92d17ed0ea9d99d2bac6381808c7ee69318be66dd3daf29c6bf4568786f8d","60010","NA","NA","0","arctic","","","","",""
"dual-task","null","null","null","","arctic","swim","1248","","a","null","88","88","1","arctic-dual-task","","a","lowercase","66000","0","4","01d92d17ed0ea9d99d2bac6381808c7ee69318be66dd3daf29c6bf4568786f8d","66012","1248","88","1","arctic","","","","",""
"dual-task","null","null","null","","arctic","swim","574","","t","null","77","88","0","arctic-dual-task","","t","lowercase","74000","0","4","01d92d17ed0ea9d99d2bac6381808c7ee69318be66dd3daf29c6bf4568786f8d","74016","574","77","0","arctic","","","","",""
"dual-task","null","null","null","","arctic","swim","662","","N","null","77","77","1","arctic-dual-task","","N","uppercase","80000","0","4","01d92d17ed0ea9d99d2bac6381808c7ee69318be66dd3daf29c6bf4568786f8d","79999","662","77","1","arctic","","","","",""
"dual-task","null","null","null","","arctic","swim","673","","q","null","88","88","1","arctic-dual-task","","q","lowercase","94000","0","4","01d92d17ed0ea9d99d2bac6381808c7ee69318be66dd3daf29c6bf4568786f8d","94003","673","88","1","arctic","","","","",""
"dual-task","null","null","null","","arctic","swim","592","","E","null","77","77","1","arctic-dual-task","","E","uppercase","106000","0","4","01d92d17ed0ea9d99d2bac6381808c7ee69318be66dd3daf29c6bf4568786f8d","106020","592","77","1","arctic","","","","",""
"dual-task","null","null","null","","arctic","swim","764","","q","null","88","88","1","arctic-dual-task","","q","lowercase","118000","0","4","01d92d17ed0ea9d99d2bac6381808c7ee69318be66dd3daf29c6bf4568786f8d","118011","764","88","1","arctic","","","","",""
"dual-task","null","null","null","","arctic","swim","556","","Q","null","77","77","1","arctic-dual-task","","Q","uppercase","130000","0","4","01d92d17ed0ea9d99d2bac6381808c7ee69318be66dd3daf29c6bf4568786f8d","130005","556","77","1","arctic","","","","",""
"dual-task","null","null","null","","arctic","swim","608","","D","null","77","77","1","arctic-dual-task","","D","uppercase","142000","0","4","01d92d17ed0ea9d99d2bac6381808c7ee69318be66dd3daf29c6bf4568786f8d","142001","608","77","1","arctic","","","","",""
"dual-task","null","null","null","","arctic","swim","621","","e","null","88","88","1","arctic-dual-task","","e","lowercase","156000","0","4","01d92d17ed0ea9d99d2bac6381808c7ee69318be66dd3daf29c6bf4568786f8d","156011","621","88","1","arctic","","","","",""
"dual-task","null","null","null","","arctic","swim","1203","","n","null","88","88","1","arctic-dual-task","","n","lowercase","162000","0","4","01d92d17ed0ea9d99d2bac6381808c7ee69318be66dd3daf29c6bf4568786f8d","161999","1203","88","1","arctic","","","","",""
"dual-task","null","null","null","","arctic","swim","896","","h","null","88","88","1","arctic-dual-task","","h","lowercase","176000","0","4","01d92d17ed0ea9d99d2bac6381808c7ee69318be66dd3daf29c6bf4568786f8d","176010","896","88","1","arctic","","","","",""
"dual-task","null","null","null","","arctic","swim","564","","e","null","88","88","1","arctic-dual-task","","e","lowercase","184000","0","4","01d92d17ed0ea9d99d2bac6381808c7ee69318be66dd3daf29c6bf4568786f8d","184009","564","88","1","arctic","","","","",""
"dual-task","null","null","null","","arctic","swim","511","","G","null","88","77","0","arctic-dual-task","","G","uppercase","192000","0","4","01d92d17ed0ea9d99d2bac6381808c7ee69318be66dd3daf29c6bf4568786f8d","192009","511","88","0","arctic","","","","",""
"dual-task","null","null","null","","arctic","swim","856","","B","null","77","77","1","arctic-dual-task","","B","uppercase","206000","0","4","01d92d17ed0ea9d99d2bac6381808c7ee69318be66dd3daf29c6bf4568786f8d","206042","856","77","1","arctic","","","","",""
"dual-task","null","null","null","","arctic","swim","1158","","h","null","88","88","1","arctic-dual-task","","h","lowercase","216000","0","4","01d92d17ed0ea9d99d2bac6381808c7ee69318be66dd3daf29c6bf4568786f8d","216012","1158","88","1","arctic","","","","",""
"dual-task","null","null","null","","arctic","swim","853","","t","null","88","88","1","arctic-dual-task","","t","lowercase","226000","0","4","01d92d17ed0ea9d99d2bac6381808c7ee69318be66dd3daf29c6bf4568786f8d","225998","853","88","1","arctic","","","","",""
"dual-task","null","null","null","","arctic","swim","691","","d","null","88","88","1","arctic-dual-task","","d","lowercase","238000","0","4","01d92d17ed0ea9d99d2bac6381808c7ee69318be66dd3daf29c6bf4568786f8d","238023","691","88","1","arctic","","","","",""
"dual-task","null","null","null","","arctic","swim","499","","D","null","77","77","1","arctic-dual-task","","D","uppercase","252000","0","4","01d92d17ed0ea9d99d2bac6381808c7ee69318be66dd3daf29c6bf4568786f8d","252002","499","77","1","arctic","","","","",""
"dual-task","null","null","null","","arctic","swim","1107","","E","null","77","77","1","arctic-dual-task","","E","uppercase","262000","0","4","01d92d17ed0ea9d99d2bac6381808c7ee69318be66dd3daf29c6bf4568786f8d","262028","1107","77","1","arctic","","","","",""
"dual-task","null","null","null","","arctic","swim","601","","B","null","77","77","1","arctic-dual-task","","B","uppercase","272000","0","4","01d92d17ed0ea9d99d2bac6381808c7ee69318be66dd3daf29c6bf4568786f8d","272009","601","77","1","arctic","","","","",""
"dual-task","null","null","null","","arctic","swim","770","","h","null","88","88","1","arctic-dual-task","","h","lowercase","280000","0","4","01d92d17ed0ea9d99d2bac6381808c7ee69318be66dd3daf29c6bf4568786f8d","280030","770","88","1","arctic","","","","",""
"dual-task","null","null","null","","arctic","swim","582","","T","null","77","77","1","arctic-dual-task","","T","uppercase","288000","0","4","01d92d17ed0ea9d99d2bac6381808c7ee69318be66dd3daf29c6bf4568786f8d","288008","582","77","1","arctic","","","","",""
"dual-task","null","null","null","","arctic","swim","799","","g","null","88","88","1","arctic-dual-task","","g","lowercase","294000","0","4","01d92d17ed0ea9d99d2bac6381808c7ee69318be66dd3daf29c6bf4568786f8d","294005","799","88","1","arctic","","","","",""
"dual-task","null","null","null","","arctic","swim","699","","r","null","88","88","1","arctic-dual-task","","r","lowercase","302000","0","4","01d92d17ed0ea9d99d2bac6381808c7ee69318be66dd3daf29c6bf4568786f8d","301998","699","88","1","arctic","","","","",""
"dual-task","null","null","null","","arctic","swim","752","","E","null","77","77","1","arctic-dual-task","","E","uppercase","308000","0","4","01d92d17ed0ea9d99d2bac6381808c7ee69318be66dd3daf29c6bf4568786f8d","308006","752","77","1","arctic","","","","",""
"dual-task","null","null","null","","arctic","swim","605","","Q","null","77","77","1","arctic-dual-task","","Q","uppercase","318000","0","4","01d92d17ed0ea9d99d2bac6381808c7ee69318be66dd3daf29c6bf4568786f8d","318006","605","77","1","arctic","","","","",""
"dual-task","null","null","null","","arctic","swim","890","","F","null","77","77","1","arctic-dual-task","","F","uppercase","324000","0","4","01d92d17ed0ea9d99d2bac6381808c7ee69318be66dd3daf29c6bf4568786f8d","324000","890","77","1","arctic","","","","",""
"dual-task","null","null","null","","arctic","swim","1295","","R","null","88","77","0","arctic-dual-task","","R","uppercase","330000","0","4","01d92d17ed0ea9d99d2bac6381808c7ee69318be66dd3daf29c6bf4568786f8d","330008","1295","88","0","arctic","","","","",""
"dual-task","null","null","null","","arctic","swim","588","","f","null","88","88","1","arctic-dual-task","","f","lowercase","338000","0","4","01d92d17ed0ea9d99d2bac6381808c7ee69318be66dd3daf29c6bf4568786f8d","338020","588","88","1","arctic","","","","",""
"dual-task","null","null","null","","arctic","swim","873","","N","null","77","77","1","arctic-dual-task","","N","uppercase","348000","0","4","01d92d17ed0ea9d99d2bac6381808c7ee69318be66dd3daf29c6bf4568786f8d","348002","873","77","1","arctic","","","","",""
"dual-task","null","null","null","","arctic","swim","NA","","e","null","NA","88","0","arctic-dual-task","","e","lowercase","362000","1","4","01d92d17ed0ea9d99d2bac6381808c7ee69318be66dd3daf29c6bf4568786f8d","362002","NA","NA","0","arctic","","","","",""
"dual-task","null","null","null","","arctic","swim","738","","A","null","77","77","1","arctic-dual-task","","A","uppercase","374000","0","4","01d92d17ed0ea9d99d2bac6381808c7ee69318be66dd3daf29c6bf4568786f8d","374008","738","77","1","arctic","","","","",""
"dual-task","null","null","null","","arctic","swim","1174","","t","null","88","88","1","arctic-dual-task","","t","lowercase","384000","0","4","01d92d17ed0ea9d99d2bac6381808c7ee69318be66dd3daf29c6bf4568786f8d","384011","1174","88","1","arctic","","","","",""
"dual-task","null","null","null","","arctic","swim","905","","G","null","77","77","1","arctic-dual-task","","G","uppercase","390000","0","4","01d92d17ed0ea9d99d2bac6381808c7ee69318be66dd3daf29c6bf4568786f8d","390000","905","77","1","arctic","","","","",""
"dual-task","null","null","null","","arctic","swim","968","","n","null","88","88","1","arctic-dual-task","","n","lowercase","402000","0","4","01d92d17ed0ea9d99d2bac6381808c7ee69318be66dd3daf29c6bf4568786f8d","402012","968","88","1","arctic","","","","",""
"dual-task","null","null","null","","arctic","swim","897","","N","null","88","77","0","arctic-dual-task","","N","uppercase","410000","0","4","01d92d17ed0ea9d99d2bac6381808c7ee69318be66dd3daf29c6bf4568786f8d","410008","897","88","0","arctic","","","","",""
"dual-task","null","null","null","","arctic","swim","731","","b","null","88","88","1","arctic-dual-task","","b","lowercase","416000","0","4","01d92d17ed0ea9d99d2bac6381808c7ee69318be66dd3daf29c6bf4568786f8d","416025","731","88","1","arctic","","","","",""
"dual-task","null","null","null","","arctic","swim","1089","","A","null","77","77","1","arctic-dual-task","","A","uppercase","426000","0","4","01d92d17ed0ea9d99d2bac6381808c7ee69318be66dd3daf29c6bf4568786f8d","426007","1089","77","1","arctic","","","","",""
"dual-task","null","null","null","","arctic","swim","791","","b","null","88","88","1","arctic-dual-task","","b","lowercase","434000","0","4","01d92d17ed0ea9d99d2bac6381808c7ee69318be66dd3daf29c6bf4568786f8d","434005","791","88","1","arctic","","","","",""
"dual-task","null","null","null","","arctic","swim","860","","B","null","77","77","1","arctic-dual-task","","B","uppercase","444000","0","4","01d92d17ed0ea9d99d2bac6381808c7ee69318be66dd3daf29c6bf4568786f8d","444012","860","77","1","arctic","","","","",""
"dual-task","null","null","null","","arctic","swim","551","","B","null","77","77","1","arctic-dual-task","","B","uppercase","458000","0","4","01d92d17ed0ea9d99d2bac6381808c7ee69318be66dd3daf29c6bf4568786f8d","458017","551","77","1","arctic","","","","",""
"dual-task","null","null","null","","arctic","swim","668","","T","null","77","77","1","arctic-dual-task","","T","uppercase","466000","0","4","01d92d17ed0ea9d99d2bac6381808c7ee69318be66dd3daf29c6bf4568786f8d","466017","668","77","1","arctic","","","","",""
"dual-task","null","null","null","","arctic","swim","730","","f","null","88","88","1","arctic-dual-task","","f","lowercase","478000","0","4","01d92d17ed0ea9d99d2bac6381808c7ee69318be66dd3daf29c6bf4568786f8d","478009","730","88","1","arctic","","","","",""
"dual-task","null","null","null","","arctic","swim","912","","Q","null","77","77","1","arctic-dual-task","","Q","uppercase","492000","0","4","01d92d17ed0ea9d99d2bac6381808c7ee69318be66dd3daf29c6bf4568786f8d","492006","912","77","1","arctic","","","","",""
"dual-task","null","null","null","","arctic","swim","660","","e","null","88","88","1","arctic-dual-task","","e","lowercase","506000","0","4","01d92d17ed0ea9d99d2bac6381808c7ee69318be66dd3daf29c6bf4568786f8d","506020","660","88","1","arctic","","","","",""
"dual-task","null","null","null","","arctic","swim","829","","G","null","77","77","1","arctic-dual-task","","G","uppercase","520000","0","4","01d92d17ed0ea9d99d2bac6381808c7ee69318be66dd3daf29c6bf4568786f8d","520015","829","77","1","arctic","","","","",""
"dual-task","null","null","null","","arctic","swim","901","","b","null","88","88","1","arctic-dual-task","","b","lowercase","532000","0","4","01d92d17ed0ea9d99d2bac6381808c7ee69318be66dd3daf29c6bf4568786f8d","532013","901","88","1","arctic","","","","",""
"dual-task","null","null","null","","arctic","swim","1523","","g","null","88","88","1","arctic-dual-task","","g","lowercase","544000","0","4","01d92d17ed0ea9d99d2bac6381808c7ee69318be66dd3daf29c6bf4568786f8d","544017","1523","88","1","arctic","","","","",""
"dual-task","null","null","null","","arctic","swim","1213","","H","null","77","77","1","arctic-dual-task","","H","uppercase","550000","0","4","01d92d17ed0ea9d99d2bac6381808c7ee69318be66dd3daf29c6bf4568786f8d","550016","1213","77","1","arctic","","","","",""
"dual-task","null","null","null","","arctic","swim","1036","","R","null","77","77","1","arctic-dual-task","","R","uppercase","558000","0","4","01d92d17ed0ea9d99d2bac6381808c7ee69318be66dd3daf29c6bf4568786f8d","558000","1036","77","1","arctic","","","","",""
"dual-task","null","null","null","","arctic","swim","1089","","f","null","88","88","1","arctic-dual-task","","f","lowercase","566000","0","4","01d92d17ed0ea9d99d2bac6381808c7ee69318be66dd3daf29c6bf4568786f8d","566014","1089","88","1","arctic","","","","",""
"dual-task","null","null","null","","arctic","swim","1501","","D","null","77","77","1","arctic-dual-task","","D","uppercase","580000","0","4","01d92d17ed0ea9d99d2bac6381808c7ee69318be66dd3daf29c6bf4568786f8d","580004","1501","77","1","arctic","","","","",""
"dual-task","null","null","null","","arctic","swim","NA","","q","null","NA","88","0","arctic-dual-task","","q","lowercase","588000","1","4","01d92d17ed0ea9d99d2bac6381808c7ee69318be66dd3daf29c6bf4568786f8d","588039","NA","NA","0","arctic","","","","",""
"dual-task","null","null","null","","arctic","swim","756","","H","null","77","77","1","arctic-dual-task","","H","uppercase","598000","0","4","01d92d17ed0ea9d99d2bac6381808c7ee69318be66dd3daf29c6bf4568786f8d","598012","756","77","1","arctic","","","","",""
"dual-task","null","null","null","","arctic","swim","721","","R","null","77","77","1","arctic-dual-task","","R","uppercase","606000","0","4","01d92d17ed0ea9d99d2bac6381808c7ee69318be66dd3daf29c6bf4568786f8d","606005","721","77","1","arctic","","","","",""
"dual-task","null","null","null","","arctic","swim","1089","","F","null","77","77","1","arctic-dual-task","","F","uppercase","616000","0","4","01d92d17ed0ea9d99d2bac6381808c7ee69318be66dd3daf29c6bf4568786f8d","616006","1089","77","1","arctic","","","","",""
"dual-task","null","null","null","","arctic","swim","806","","N","null","77","77","1","arctic-dual-task","","N","uppercase","630000","0","4","01d92d17ed0ea9d99d2bac6381808c7ee69318be66dd3daf29c6bf4568786f8d","630014","806","77","1","arctic","","","","",""
"dual-task","null","null","null","","arctic","swim","674","","n","null","88","88","1","arctic-dual-task","","n","lowercase","640000","0","4","01d92d17ed0ea9d99d2bac6381808c7ee69318be66dd3daf29c6bf4568786f8d","640006","674","88","1","arctic","","","","",""
"dual-task","null","null","null","","arctic","swim","676","","A","null","77","77","1","arctic-dual-task","","A","uppercase","652000","0","4","01d92d17ed0ea9d99d2bac6381808c7ee69318be66dd3daf29c6bf4568786f8d","652015","676","77","1","arctic","","","","",""
"dual-task","null","null","null","","arctic","swim","1316","","a","null","88","88","1","arctic-dual-task","","a","lowercase","666000","0","4","01d92d17ed0ea9d99d2bac6381808c7ee69318be66dd3daf29c6bf4568786f8d","666014","1316","88","1","arctic","","","","",""
"dual-task","null","null","null","","arctic","swim","929","","d","null","88","88","1","arctic-dual-task","","d","lowercase","676000","0","4","01d92d17ed0ea9d99d2bac6381808c7ee69318be66dd3daf29c6bf4568786f8d","676014","929","88","1","arctic","","","","",""
"dual-task","null","null","null","","arctic","swim","1124","","Q","null","77","77","1","arctic-dual-task","","Q","uppercase","684000","0","4","01d92d17ed0ea9d99d2bac6381808c7ee69318be66dd3daf29c6bf4568786f8d","684027","1124","77","1","arctic","","","","",""
"dual-task","null","null","null","","arctic","swim","713","","f","null","88","88","1","arctic-dual-task","","f","lowercase","694000","0","4","01d92d17ed0ea9d99d2bac6381808c7ee69318be66dd3daf29c6bf4568786f8d","694014","713","88","1","arctic","","","","",""
"dual-task","null","null","null","","arctic","swim","921","","r","null","88","88","1","arctic-dual-task","","r","lowercase","706000","0","4","01d92d17ed0ea9d99d2bac6381808c7ee69318be66dd3daf29c6bf4568786f8d","706015","921","88","1","arctic","","","","",""
"dual-task","null","null","null","","arctic","swim","1115","","b","null","88","88","1","arctic-dual-task","","b","lowercase","714000","0","4","01d92d17ed0ea9d99d2bac6381808c7ee69318be66dd3daf29c6bf4568786f8d","714013","1115","88","1","arctic","","","","",""
"dual-task","null","null","null","","arctic","swim","751","","R","null","77","77","1","arctic-dual-task","","R","uppercase","728000","0","4","01d92d17ed0ea9d99d2bac6381808c7ee69318be66dd3daf29c6bf4568786f8d","728007","751","77","1","arctic","","","","",""
"dual-task","null","null","null","","arctic","swim","767","","A","null","77","77","1","arctic-dual-task","","A","uppercase","742000","0","4","01d92d17ed0ea9d99d2bac6381808c7ee69318be66dd3daf29c6bf4568786f8d","742025","767","77","1","arctic","","","","",""
"dual-task","null","null","null","","arctic","swim","1228","","h","null","77","88","0","arctic-dual-task","","h","lowercase","756000","0","4","01d92d17ed0ea9d99d2bac6381808c7ee69318be66dd3daf29c6bf4568786f8d","756020","1228","77","0","arctic","","","","",""
"dual-task","null","null","null","","arctic","swim","809","","d","null","88","88","1","arctic-dual-task","","d","lowercase","762000","0","4","01d92d17ed0ea9d99d2bac6381808c7ee69318be66dd3daf29c6bf4568786f8d","762036","809","88","1","arctic","","","","",""
"dual-task","null","null","null","","arctic","swim","978","","H","null","77","77","1","arctic-dual-task","","H","uppercase","770000","0","4","01d92d17ed0ea9d99d2bac6381808c7ee69318be66dd3daf29c6bf4568786f8d","770007","978","77","1","arctic","","","","",""
"dual-task","null","null","null","","arctic","swim","1217","","r","null","88","88","1","arctic-dual-task","","r","lowercase","776000","0","4","01d92d17ed0ea9d99d2bac6381808c7ee69318be66dd3daf29c6bf4568786f8d","776030","1217","88","1","arctic","","","","",""
"dual-task","null","null","null","","arctic","swim","1179","","g","null","88","88","1","arctic-dual-task","","g","lowercase","784000","0","4","01d92d17ed0ea9d99d2bac6381808c7ee69318be66dd3daf29c6bf4568786f8d","784006","1179","88","1","arctic","","","","",""
"audio-keyboard-response","29","896448","0.0-6.0-0.0-1.0","01d92d17ed0ea9d99d2bac6381808c7ee69318be66dd3daf29c6bf4568786f8d","arctic","swim","null","","audio/story_arctic.mp3","","null","","","","","","","","","","","","","","","","","","","",""
"html-button-response","30","900451","0.0-6.0-0.0-2.0","01d92d17ed0ea9d99d2bac6381808c7ee69318be66dd3daf29c6bf4568786f8d","arctic","swim","4003","","<p>This concludes the story. Thank you for listening.</p><p>You will now answer some questions about the content of the story.</p>","0","","","","","","","","","","","","","","","","","","","","",""
"survey-multi-choice","31","907003","0.0-6.0-0.0-3.0-0.0","01d92d17ed0ea9d99d2bac6381808c7ee69318be66dd3daf29c6bf4568786f8d","arctic","swim","6550","","<b>How did the narrator&#39;s neighbour respond when she told him about her expedition?</b>","","","","1","arctic-comprehension","","","","","","","","","","","","","{""Q0"":""He said she was going to fail.""}","","","",""
"survey-multi-choice","32","914120","0.0-6.0-0.0-3.0-0.1","01d92d17ed0ea9d99d2bac6381808c7ee69318be66dd3daf29c6bf4568786f8d","arctic","swim","6839","","<b>What were the weather conditions in the Arctic like the winter of the narrator&#39;s expedition?</b>","","","","1","arctic-comprehension","","","","","","","","","","","","","{""Q0"":""There were more storms than any other winter in recorded history.""}","","","",""
"survey-multi-choice","33","919851","0.0-6.0-0.0-3.0-0.2","01d92d17ed0ea9d99d2bac6381808c7ee69318be66dd3daf29c6bf4568786f8d","arctic","swim","5477","","<b>How did the narrator prepare for her expedition?</b>","","","","1","arctic-comprehension","","","","","","","","","","","","","{""Q0"":""Trained in Alaska learning how to dogsled""}","","","",""
"survey-multi-choice","34","923224","0.0-6.0-0.0-3.0-0.3","01d92d17ed0ea9d99d2bac6381808c7ee69318be66dd3daf29c6bf4568786f8d","arctic","swim","3120","","<b>How many sponsorships did the narrator receive to support her expedition?</b>","","","","1","arctic-comprehension","","","","","","","","","","","","","{""Q0"":""None""}","","","",""
"survey-multi-choice","35","930975","0.0-6.0-0.0-3.0-0.4","01d92d17ed0ea9d99d2bac6381808c7ee69318be66dd3daf29c6bf4568786f8d","arctic","swim","7495","","<b>How did the dogs respond when they saw the bears?</b>","","","","1","arctic-comprehension","","","","","","","","","","","","","{""Q0"":""Approached them""}","","","",""
"survey-multi-choice","36","936284","0.0-6.0-0.0-3.0-0.5","01d92d17ed0ea9d99d2bac6381808c7ee69318be66dd3daf29c6bf4568786f8d","arctic","swim","5055","","<b>How did the narrator&#39;s encounter with the polar bears end?</b>","","","","1","arctic-comprehension","","","","","","","","","","","","","{""Q0"":""The bears walked back to their den.""}","","","",""
"survey-multi-choice","37","947724","0.0-6.0-0.0-3.0-0.6","01d92d17ed0ea9d99d2bac6381808c7ee69318be66dd3daf29c6bf4568786f8d","arctic","swim","11177","","<b>What did the narrator do for leisure while in her tent?</b>","","","","1","arctic-comprehension","","","","","","","","","","","","","{""Q0"":""Read""}","","","",""
"survey-multi-choice","38","952763","0.0-6.0-0.0-3.0-0.7","01d92d17ed0ea9d99d2bac6381808c7ee69318be66dd3daf29c6bf4568786f8d","arctic","swim","4775","","<b>What was the objective of the narrator&#39;s expedition?</b>","","","","1","arctic-comprehension","","","","","","","","","","","","","{""Q0"":""Dogsled across Arctic America""}","","","",""
"survey-multi-choice","39","956074","0.0-6.0-0.0-3.0-0.8","01d92d17ed0ea9d99d2bac6381808c7ee69318be66dd3daf29c6bf4568786f8d","arctic","swim","3053","","<b>Which dog on the narrator&#39;s dog team never followed instructions?</b>","","","","1","arctic-comprehension","","","","","","","","","","","","","{""Q0"":""Robert""}","","","",""
"survey-multi-choice","40","959481","0.0-6.0-0.0-3.0-0.9","01d92d17ed0ea9d99d2bac6381808c7ee69318be66dd3daf29c6bf4568786f8d","arctic","swim","3152","","<b>What is the name of the narrator&#39;s neighbour?</b>","","","","1","arctic-comprehension","","","","","","","","","","","","","{""Q0"":""Dave""}","","","",""
"html-button-response","41","961357","0.0-6.0-0.0-4.0","01d92d17ed0ea9d99d2bac6381808c7ee69318be66dd3daf29c6bf4568786f8d","arctic","swim","1614","","<p>Thank you for your responses.</p><p>You will now answer some questions about your impressions of the story.</p>","0","","","","","","","","","","","","","","","","","","","","",""
"html-button-response","42","966578","0.0-6.0-0.0-5.0-0.0","01d92d17ed0ea9d99d2bac6381808c7ee69318be66dd3daf29c6bf4568786f8d","arctic","swim","5220","","MS3","5","","","","arctic-engagement","","","","","","","","","","","","","","6","mental-sim","",""
"html-button-response","43","970215","0.0-6.0-0.0-5.0-0.1","01d92d17ed0ea9d99d2bac6381808c7ee69318be66dd3daf29c6bf4568786f8d","arctic","swim","3384","","A1","0","","","","arctic-engagement","","","","","","","","","","","","","","1","absorption","",""
"html-button-response","44","972994","0.0-6.0-0.0-5.0-0.2","01d92d17ed0ea9d99d2bac6381808c7ee69318be66dd3daf29c6bf4568786f8d","arctic","swim","2486","","A5","0","","","","arctic-engagement","","","","","","","","","","","","","","1","absorption","",""
"html-button-response","45","975681","0.0-6.0-0.0-5.0-0.3","01d92d17ed0ea9d99d2bac6381808c7ee69318be66dd3daf29c6bf4568786f8d","arctic","swim","2420","","E1","4","","","","arctic-engagement","","","","","","","","","","","","","","5","enjoyment","",""
"html-button-response","46","977378","0.0-6.0-0.0-5.0-0.4","01d92d17ed0ea9d99d2bac6381808c7ee69318be66dd3daf29c6bf4568786f8d","arctic","swim","1438","","E6","4","","","","arctic-engagement","","","","","","","","","","","","","","5","enjoyment","",""
"html-button-response","47","980942","0.0-6.0-0.0-5.0-0.5","01d92d17ed0ea9d99d2bac6381808c7ee69318be66dd3daf29c6bf4568786f8d","arctic","swim","3261","","MS1","5","","","","arctic-engagement","","","","","","","","","","","","","","6","mental-sim","",""
"html-button-response","48","984489","0.0-6.0-0.0-5.0-0.6","01d92d17ed0ea9d99d2bac6381808c7ee69318be66dd3daf29c6bf4568786f8d","arctic","swim","3291","","EE1","3","","","","arctic-engagement","","","","","","","","","","","","","","4","emo-engage","",""
"html-button-response","49","988162","0.0-6.0-0.0-5.0-0.7","01d92d17ed0ea9d99d2bac6381808c7ee69318be66dd3daf29c6bf4568786f8d","arctic","swim","3420","","MS2","4","","","","arctic-engagement","","","","","","","","","","","","","","5","mental-sim","",""
"html-button-response","50","990249","0.0-6.0-0.0-5.0-0.8","01d92d17ed0ea9d99d2bac6381808c7ee69318be66dd3daf29c6bf4568786f8d","arctic","swim","1799","","EE5","5","","","","arctic-engagement","","","","","","","","","","","","","","6","emo-engage","",""
"html-button-response","51","991821","0.0-6.0-0.0-5.0-0.9","01d92d17ed0ea9d99d2bac6381808c7ee69318be66dd3daf29c6bf4568786f8d","arctic","swim","1309","","A3","4","","","","arctic-engagement","","","","","","","","","","","","","","5","absorption","",""
"html-button-response","52","994622","0.0-6.0-0.0-5.0-0.10","01d92d17ed0ea9d99d2bac6381808c7ee69318be66dd3daf29c6bf4568786f8d","arctic","swim","2541","","E8","4","","","","arctic-engagement","","","","","","","","","","","","","","5","enjoyment","",""
"html-button-response","53","997386","0.0-6.0-0.0-5.0-0.11","01d92d17ed0ea9d99d2bac6381808c7ee69318be66dd3daf29c6bf4568786f8d","arctic","swim","2505","","EE4","3","","","","arctic-engagement","","","","","","","","","","","","","","4","emo-engage","",""
"html-button-response","54","999318","0.0-6.0-0.0-5.0-0.12","01d92d17ed0ea9d99d2bac6381808c7ee69318be66dd3daf29c6bf4568786f8d","arctic","swim","1670","","EE2","5","","","","arctic-engagement","","","","","","","","","","","","","","6","emo-engage","",""
"html-button-response","55","1003856","0.0-6.0-0.0-5.0-0.13","01d92d17ed0ea9d99d2bac6381808c7ee69318be66dd3daf29c6bf4568786f8d","arctic","swim","4269","","A2","5","","","","arctic-engagement","","","","","","","","","","","","","","6","absorption","",""
"html-button-response","56","1006516","0.0-6.0-0.0-5.0-0.14","01d92d17ed0ea9d99d2bac6381808c7ee69318be66dd3daf29c6bf4568786f8d","arctic","swim","2392","","E7","5","","","","arctic-engagement","","","","","","","","","","","","","","6","enjoyment","",""
"html-button-response","57","1010797","0.0-6.0-0.0-5.0-0.15","01d92d17ed0ea9d99d2bac6381808c7ee69318be66dd3daf29c6bf4568786f8d","arctic","swim","4025","","EE3","3","","","","arctic-engagement","","","","","","","","","","","","","","4","emo-engage","",""
"html-button-response","58","1012994","0.0-6.0-0.0-5.0-0.16","01d92d17ed0ea9d99d2bac6381808c7ee69318be66dd3daf29c6bf4568786f8d","arctic","swim","1944","","E10","6","","","","arctic-engagement","","","","","","","","","","","","","","7","enjoyment","",""
"html-button-response","59","1015952","0.0-6.0-0.0-5.0-0.17","01d92d17ed0ea9d99d2bac6381808c7ee69318be66dd3daf29c6bf4568786f8d","arctic","swim","2707","","A4","0","","","","arctic-engagement","","","","","","","","","","","","","","1","absorption","",""
"html-keyboard-response","60","1679238","0.0-6.0-1.0","01d92d17ed0ea9d99d2bac6381808c7ee69318be66dd3daf29c6bf4568786f8d","arctic","swim","663029","","<p>Thank you for your responses. You will now listen to the second story.</p><p>Remember, as you listen to the story you will see letters appear on the screen.</br>As quickly as possible, press <b>&lt;x&gt;</b> if the letter is lowercase and <b>&lt;m&gt;</b> if the letter is uppercase.</p><p>Press <b>&lt;x&gt;</b> or <b>&lt;m&gt;</b> to begin listening!</p>","","88","","","","","","","","","","","","","","","","","","","",""
"html-keyboard-response","61","1679741","0.0-6.0-2.0-0.0","01d92d17ed0ea9d99d2bac6381808c7ee69318be66dd3daf29c6bf4568786f8d","arctic","swim","null","","<div style=""font-size:60px;"" tabindex=""0"">+</div>","","null","","","","","","","","","","","","","","","","","","","",""
"dual-task","null","null","null","","arctic","swim","NA","","G","null","NA","77","0","swim-dual-task","","G","uppercase","16000","1","4","01d92d17ed0ea9d99d2bac6381808c7ee69318be66dd3daf29c6bf4568786f8d","16012","NA","NA","0","swim","","","","",""
"dual-task","null","null","null","","arctic","swim","NA","","t","null","NA","88","0","swim-dual-task","","t","lowercase","22000","1","4","01d92d17ed0ea9d99d2bac6381808c7ee69318be66dd3daf29c6bf4568786f8d","22020","NA","NA","0","swim","","","","",""
"dual-task","null","null","null","","arctic","swim","1058","","D","null","77","77","1","swim-dual-task","","D","uppercase","36000","0","4","01d92d17ed0ea9d99d2bac6381808c7ee69318be66dd3daf29c6bf4568786f8d","36005","1058","77","1","swim","","","","",""
"dual-task","null","null","null","","arctic","swim","1095","","h","null","88","88","1","swim-dual-task","","h","lowercase","46000","0","4","01d92d17ed0ea9d99d2bac6381808c7ee69318be66dd3daf29c6bf4568786f8d","46012","1095","88","1","swim","","","","",""
"dual-task","null","null","null","","arctic","swim","1118","","f","null","88","88","1","swim-dual-task","","f","lowercase","52000","0","4","01d92d17ed0ea9d99d2bac6381808c7ee69318be66dd3daf29c6bf4568786f8d","52013","1118","88","1","swim","","","","",""
"dual-task","null","null","null","","arctic","swim","736","","d","null","88","88","1","swim-dual-task","","d","lowercase","60000","0","4","01d92d17ed0ea9d99d2bac6381808c7ee69318be66dd3daf29c6bf4568786f8d","60054","736","88","1","swim","","","","",""
"dual-task","null","null","null","","arctic","swim","812","","A","null","77","77","1","swim-dual-task","","A","uppercase","70000","0","4","01d92d17ed0ea9d99d2bac6381808c7ee69318be66dd3daf29c6bf4568786f8d","70010","812","77","1","swim","","","","",""
"dual-task","null","null","null","","arctic","swim","747","","T","null","77","77","1","swim-dual-task","","T","uppercase","84000","0","4","01d92d17ed0ea9d99d2bac6381808c7ee69318be66dd3daf29c6bf4568786f8d","84010","747","77","1","swim","","","","",""
"dual-task","null","null","null","","arctic","swim","945","","g","null","77","88","0","swim-dual-task","","g","lowercase","90000","0","4","01d92d17ed0ea9d99d2bac6381808c7ee69318be66dd3daf29c6bf4568786f8d","90005","945","77","0","swim","","","","",""
"dual-task","null","null","null","","arctic","swim","795","","F","null","77","77","1","swim-dual-task","","F","uppercase","102000","0","4","01d92d17ed0ea9d99d2bac6381808c7ee69318be66dd3daf29c6bf4568786f8d","102006","795","77","1","swim","","","","",""
"dual-task","null","null","null","","arctic","swim","735","","H","null","77","77","1","swim-dual-task","","H","uppercase","114000","0","4","01d92d17ed0ea9d99d2bac6381808c7ee69318be66dd3daf29c6bf4568786f8d","114004","735","77","1","swim","","","","",""
"dual-task","null","null","null","","arctic","swim","659","","B","null","77","77","1","swim-dual-task","","B","uppercase","122000","0","4","01d92d17ed0ea9d99d2bac6381808c7ee69318be66dd3daf29c6bf4568786f8d","121998","659","77","1","swim","","","","",""
"dual-task","null","null","null","","arctic","swim","1500","","H","null","77","77","1","swim-dual-task","","H","uppercase","130000","0","4","01d92d17ed0ea9d99d2bac6381808c7ee69318be66dd3daf29c6bf4568786f8d","130015","1500","77","1","swim","","","","",""
"dual-task","null","null","null","","arctic","swim","1468","","d","null","88","88","1","swim-dual-task","","d","lowercase","142000","0","4","01d92d17ed0ea9d99d2bac6381808c7ee69318be66dd3daf29c6bf4568786f8d","142014","1468","88","1","swim","","","","",""
"dual-task","null","null","null","","arctic","swim","832","","T","null","77","77","1","swim-dual-task","","T","uppercase","148000","0","4","01d92d17ed0ea9d99d2bac6381808c7ee69318be66dd3daf29c6bf4568786f8d","148007","832","77","1","swim","","","","",""
"dual-task","null","null","null","","arctic","swim","1193","","f","null","88","88","1","swim-dual-task","","f","lowercase","158000","0","4","01d92d17ed0ea9d99d2bac6381808c7ee69318be66dd3daf29c6bf4568786f8d","158021","1193","88","1","swim","","","","",""
"dual-task","null","null","null","","arctic","swim","952","","H","null","77","77","1","swim-dual-task","","H","uppercase","166000","0","4","01d92d17ed0ea9d99d2bac6381808c7ee69318be66dd3daf29c6bf4568786f8d","166003","952","77","1","swim","","","","",""
"dual-task","null","null","null","","arctic","swim","1001","","G","null","77","77","1","swim-dual-task","","G","uppercase","180000","0","4","01d92d17ed0ea9d99d2bac6381808c7ee69318be66dd3daf29c6bf4568786f8d","180015","1001","77","1","swim","","","","",""
"dual-task","null","null","null","","arctic","swim","1453","","G","null","77","77","1","swim-dual-task","","G","uppercase","192000","0","4","01d92d17ed0ea9d99d2bac6381808c7ee69318be66dd3daf29c6bf4568786f8d","192004","1453","77","1","swim","","","","",""
"dual-task","null","null","null","","arctic","swim","659","","n","null","88","88","1","swim-dual-task","","n","lowercase","200000","0","4","01d92d17ed0ea9d99d2bac6381808c7ee69318be66dd3daf29c6bf4568786f8d","200002","659","88","1","swim","","","","",""
"dual-task","null","null","null","","arctic","swim","809","","B","null","77","77","1","swim-dual-task","","B","uppercase","206000","0","4","01d92d17ed0ea9d99d2bac6381808c7ee69318be66dd3daf29c6bf4568786f8d","206002","809","77","1","swim","","","","",""
"dual-task","null","null","null","","arctic","swim","1138","","h","null","88","88","1","swim-dual-task","","h","lowercase","216000","0","4","01d92d17ed0ea9d99d2bac6381808c7ee69318be66dd3daf29c6bf4568786f8d","216025","1138","88","1","swim","","","","",""
"dual-task","null","null","null","","arctic","swim","769","","E","null","77","77","1","swim-dual-task","","E","uppercase","222000","0","4","01d92d17ed0ea9d99d2bac6381808c7ee69318be66dd3daf29c6bf4568786f8d","222003","769","77","1","swim","","","","",""
"dual-task","null","null","null","","arctic","swim","1422","","E","null","77","77","1","swim-dual-task","","E","uppercase","232000","0","4","01d92d17ed0ea9d99d2bac6381808c7ee69318be66dd3daf29c6bf4568786f8d","232025","1422","77","1","swim","","","","",""
"dual-task","null","null","null","","arctic","swim","717","","b","null","88","88","1","swim-dual-task","","b","lowercase","244000","0","4","01d92d17ed0ea9d99d2bac6381808c7ee69318be66dd3daf29c6bf4568786f8d","244004","717","88","1","swim","","","","",""
"dual-task","null","null","null","","arctic","swim","848","","d","null","88","88","1","swim-dual-task","","d","lowercase","250000","0","4","01d92d17ed0ea9d99d2bac6381808c7ee69318be66dd3daf29c6bf4568786f8d","250029","848","88","1","swim","","","","",""
"dual-task","null","null","null","","arctic","swim","671","","R","null","77","77","1","swim-dual-task","","R","uppercase","262000","0","4","01d92d17ed0ea9d99d2bac6381808c7ee69318be66dd3daf29c6bf4568786f8d","262010","671","77","1","swim","","","","",""
"dual-task","null","null","null","","arctic","swim","830","","h","null","88","88","1","swim-dual-task","","h","lowercase","272000","0","4","01d92d17ed0ea9d99d2bac6381808c7ee69318be66dd3daf29c6bf4568786f8d","272006","830","88","1","swim","","","","",""
"dual-task","null","null","null","","arctic","swim","1421","","A","null","77","77","1","swim-dual-task","","A","uppercase","278000","0","4","01d92d17ed0ea9d99d2bac6381808c7ee69318be66dd3daf29c6bf4568786f8d","278001","1421","77","1","swim","","","","",""
"dual-task","null","null","null","","arctic","swim","669","","q","null","88","88","1","swim-dual-task","","q","lowercase","292000","0","4","01d92d17ed0ea9d99d2bac6381808c7ee69318be66dd3daf29c6bf4568786f8d","292003","669","88","1","swim","","","","",""
"dual-task","null","null","null","","arctic","swim","699","","E","null","77","77","1","swim-dual-task","","E","uppercase","304000","0","4","01d92d17ed0ea9d99d2bac6381808c7ee69318be66dd3daf29c6bf4568786f8d","304005","699","77","1","swim","","","","",""
"dual-task","null","null","null","","arctic","swim","685","","N","null","77","77","1","swim-dual-task","","N","uppercase","316000","0","4","01d92d17ed0ea9d99d2bac6381808c7ee69318be66dd3daf29c6bf4568786f8d","316004","685","77","1","swim","","","","",""
"dual-task","null","null","null","","arctic","swim","1233","","B","null","77","77","1","swim-dual-task","","B","uppercase","324000","0","4","01d92d17ed0ea9d99d2bac6381808c7ee69318be66dd3daf29c6bf4568786f8d","324029","1233","77","1","swim","","","","",""
"dual-task","null","null","null","","arctic","swim","621","","F","null","77","77","1","swim-dual-task","","F","uppercase","336000","0","4","01d92d17ed0ea9d99d2bac6381808c7ee69318be66dd3daf29c6bf4568786f8d","336005","621","77","1","swim","","","","",""
"dual-task","null","null","null","","arctic","swim","597","","Q","null","77","77","1","swim-dual-task","","Q","uppercase","346000","0","4","01d92d17ed0ea9d99d2bac6381808c7ee69318be66dd3daf29c6bf4568786f8d","346015","597","77","1","swim","","","","",""
"dual-task","null","null","null","","arctic","swim","969","","N","null","77","77","1","swim-dual-task","","N","uppercase","360000","0","4","01d92d17ed0ea9d99d2bac6381808c7ee69318be66dd3daf29c6bf4568786f8d","360006","969","77","1","swim","","","","",""
"dual-task","null","null","null","","arctic","swim","NA","","g","null","NA","88","0","swim-dual-task","","g","lowercase","368000","1","4","01d92d17ed0ea9d99d2bac6381808c7ee69318be66dd3daf29c6bf4568786f8d","368012","NA","NA","0","swim","","","","",""
"dual-task","null","null","null","","arctic","swim","776","","e","null","88","88","1","swim-dual-task","","e","lowercase","378000","0","4","01d92d17ed0ea9d99d2bac6381808c7ee69318be66dd3daf29c6bf4568786f8d","378023","776","88","1","swim","","","","",""
"dual-task","null","null","null","","arctic","swim","814","","f","null","88","88","1","swim-dual-task","","f","lowercase","386000","0","4","01d92d17ed0ea9d99d2bac6381808c7ee69318be66dd3daf29c6bf4568786f8d","386010","814","88","1","swim","","","","",""
"dual-task","null","null","null","","arctic","swim","623","","A","null","77","77","1","swim-dual-task","","A","uppercase","398000","0","4","01d92d17ed0ea9d99d2bac6381808c7ee69318be66dd3daf29c6bf4568786f8d","398003","623","77","1","swim","","","","",""
"dual-task","null","null","null","","arctic","swim","1145","","q","null","88","88","1","swim-dual-task","","q","lowercase","408000","0","4","01d92d17ed0ea9d99d2bac6381808c7ee69318be66dd3daf29c6bf4568786f8d","408006","1145","88","1","swim","","","","",""
"dual-task","null","null","null","","arctic","swim","769","","r","null","88","88","1","swim-dual-task","","r","lowercase","418000","0","4","01d92d17ed0ea9d99d2bac6381808c7ee69318be66dd3daf29c6bf4568786f8d","418022","769","88","1","swim","","","","",""
"dual-task","null","null","null","","arctic","swim","717","","D","null","77","77","1","swim-dual-task","","D","uppercase","426000","0","4","01d92d17ed0ea9d99d2bac6381808c7ee69318be66dd3daf29c6bf4568786f8d","426014","717","77","1","swim","","","","",""
"dual-task","null","null","null","","arctic","swim","909","","a","null","88","88","1","swim-dual-task","","a","lowercase","432000","0","4","01d92d17ed0ea9d99d2bac6381808c7ee69318be66dd3daf29c6bf4568786f8d","432000","909","88","1","swim","","","","",""
"dual-task","null","null","null","","arctic","swim","647","","f","null","88","88","1","swim-dual-task","","f","lowercase","440000","0","4","01d92d17ed0ea9d99d2bac6381808c7ee69318be66dd3daf29c6bf4568786f8d","440008","647","88","1","swim","","","","",""
"dual-task","null","null","null","","arctic","swim","1113","","Q","null","77","77","1","swim-dual-task","","Q","uppercase","448000","0","4","01d92d17ed0ea9d99d2bac6381808c7ee69318be66dd3daf29c6bf4568786f8d","448007","1113","77","1","swim","","","","",""
"dual-task","null","null","null","","arctic","swim","693","","q","null","77","88","0","swim-dual-task","","q","lowercase","458000","0","4","01d92d17ed0ea9d99d2bac6381808c7ee69318be66dd3daf29c6bf4568786f8d","458006","693","77","0","swim","","","","",""
"dual-task","null","null","null","","arctic","swim","935","","T","null","77","77","1","swim-dual-task","","T","uppercase","472000","0","4","01d92d17ed0ea9d99d2bac6381808c7ee69318be66dd3daf29c6bf4568786f8d","472004","935","77","1","swim","","","","",""
"dual-task","null","null","null","","arctic","swim","789","","H","null","77","77","1","swim-dual-task","","H","uppercase","484000","0","4","01d92d17ed0ea9d99d2bac6381808c7ee69318be66dd3daf29c6bf4568786f8d","484006","789","77","1","swim","","","","",""
"dual-task","null","null","null","","arctic","swim","693","","D","null","77","77","1","swim-dual-task","","D","uppercase","492000","0","4","01d92d17ed0ea9d99d2bac6381808c7ee69318be66dd3daf29c6bf4568786f8d","492010","693","77","1","swim","","","","",""
"dual-task","null","null","null","","arctic","swim","1242","","R","null","77","77","1","swim-dual-task","","R","uppercase","502000","0","4","01d92d17ed0ea9d99d2bac6381808c7ee69318be66dd3daf29c6bf4568786f8d","502001","1242","77","1","swim","","","","",""
"dual-task","null","null","null","","arctic","swim","1013","","n","null","88","88","1","swim-dual-task","","n","lowercase","514000","0","4","01d92d17ed0ea9d99d2bac6381808c7ee69318be66dd3daf29c6bf4568786f8d","514014","1013","88","1","swim","","","","",""
"dual-task","null","null","null","","arctic","swim","888","","N","null","77","77","1","swim-dual-task","","N","uppercase","526000","0","4","01d92d17ed0ea9d99d2bac6381808c7ee69318be66dd3daf29c6bf4568786f8d","526014","888","77","1","swim","","","","",""
"dual-task","null","null","null","","arctic","swim","924","","t","null","88","88","1","swim-dual-task","","t","lowercase","538000","0","4","01d92d17ed0ea9d99d2bac6381808c7ee69318be66dd3daf29c6bf4568786f8d","538026","924","88","1","swim","","","","",""
"dual-task","null","null","null","","arctic","swim","1074","","t","null","88","88","1","swim-dual-task","","t","lowercase","548000","0","4","01d92d17ed0ea9d99d2bac6381808c7ee69318be66dd3daf29c6bf4568786f8d","548003","1074","88","1","swim","","","","",""
"dual-task","null","null","null","","arctic","swim","1622","","d","null","77","88","0","swim-dual-task","","d","lowercase","560000","0","4","01d92d17ed0ea9d99d2bac6381808c7ee69318be66dd3daf29c6bf4568786f8d","560004","1622","77","0","swim","","","","",""
"dual-task","null","null","null","","arctic","swim","1420","","F","null","77","77","1","swim-dual-task","","F","uppercase","570000","0","4","01d92d17ed0ea9d99d2bac6381808c7ee69318be66dd3daf29c6bf4568786f8d","570024","1420","77","1","swim","","","","",""
"dual-task","null","null","null","","arctic","swim","912","","Q","null","77","77","1","swim-dual-task","","Q","uppercase","576000","0","4","01d92d17ed0ea9d99d2bac6381808c7ee69318be66dd3daf29c6bf4568786f8d","576001","912","77","1","swim","","","","",""
"dual-task","null","null","null","","arctic","swim","838","","F","null","77","77","1","swim-dual-task","","F","uppercase","584000","0","4","01d92d17ed0ea9d99d2bac6381808c7ee69318be66dd3daf29c6bf4568786f8d","584000","838","77","1","swim","","","","",""
"dual-task","null","null","null","","arctic","swim","1060","","a","null","88","88","1","swim-dual-task","","a","lowercase","596000","0","4","01d92d17ed0ea9d99d2bac6381808c7ee69318be66dd3daf29c6bf4568786f8d","596014","1060","88","1","swim","","","","",""
"dual-task","null","null","null","","arctic","swim","659","","T","null","77","77","1","swim-dual-task","","T","uppercase","608000","0","4","01d92d17ed0ea9d99d2bac6381808c7ee69318be66dd3daf29c6bf4568786f8d","608006","659","77","1","swim","","","","",""
"dual-task","null","null","null","","arctic","swim","896","","E","null","77","77","1","swim-dual-task","","E","uppercase","618000","0","4","01d92d17ed0ea9d99d2bac6381808c7ee69318be66dd3daf29c6bf4568786f8d","618006","896","77","1","swim","","","","",""
"dual-task","null","null","null","","arctic","swim","NA","","e","null","NA","88","0","swim-dual-task","","e","lowercase","626000","1","4","01d92d17ed0ea9d99d2bac6381808c7ee69318be66dd3daf29c6bf4568786f8d","626011","NA","NA","0","swim","","","","",""
"dual-task","null","null","null","","arctic","swim","703","","R","null","77","77","1","swim-dual-task","","R","uppercase","638000","0","4","01d92d17ed0ea9d99d2bac6381808c7ee69318be66dd3daf29c6bf4568786f8d","638003","703","77","1","swim","","","","",""
"dual-task","null","null","null","","arctic","swim","1121","","b","null","88","88","1","swim-dual-task","","b","lowercase","644000","0","4","01d92d17ed0ea9d99d2bac6381808c7ee69318be66dd3daf29c6bf4568786f8d","644014","1121","88","1","swim","","","","",""
"dual-task","null","null","null","","arctic","swim","810","","A","null","77","77","1","swim-dual-task","","A","uppercase","658000","0","4","01d92d17ed0ea9d99d2bac6381808c7ee69318be66dd3daf29c6bf4568786f8d","658002","810","77","1","swim","","","","",""
"dual-task","null","null","null","","arctic","swim","749","","g","null","88","88","1","swim-dual-task","","g","lowercase","668000","0","4","01d92d17ed0ea9d99d2bac6381808c7ee69318be66dd3daf29c6bf4568786f8d","668004","749","88","1","swim","","","","",""
"dual-task","null","null","null","","arctic","swim","754","","n","null","88","88","1","swim-dual-task","","n","lowercase","678000","0","4","01d92d17ed0ea9d99d2bac6381808c7ee69318be66dd3daf29c6bf4568786f8d","678010","754","88","1","swim","","","","",""
"dual-task","null","null","null","","arctic","swim","843","","a","null","88","88","1","swim-dual-task","","a","lowercase","686000","0","4","01d92d17ed0ea9d99d2bac6381808c7ee69318be66dd3daf29c6bf4568786f8d","686002","843","88","1","swim","","","","",""
"dual-task","null","null","null","","arctic","swim","820","","h","null","88","88","1","swim-dual-task","","h","lowercase","698000","0","4","01d92d17ed0ea9d99d2bac6381808c7ee69318be66dd3daf29c6bf4568786f8d","698003","820","88","1","swim","","","","",""
"dual-task","null","null","null","","arctic","swim","1417","","r","null","88","88","1","swim-dual-task","","r","lowercase","706000","0","4","01d92d17ed0ea9d99d2bac6381808c7ee69318be66dd3daf29c6bf4568786f8d","706003","1417","88","1","swim","","","","",""
"dual-task","null","null","null","","arctic","swim","675","","a","null","88","88","1","swim-dual-task","","a","lowercase","714000","0","4","01d92d17ed0ea9d99d2bac6381808c7ee69318be66dd3daf29c6bf4568786f8d","714001","675","88","1","swim","","","","",""
"dual-task","null","null","null","","arctic","swim","890","","r","null","88","88","1","swim-dual-task","","r","lowercase","728000","0","4","01d92d17ed0ea9d99d2bac6381808c7ee69318be66dd3daf29c6bf4568786f8d","728007","890","88","1","swim","","","","",""
"dual-task","null","null","null","","arctic","swim","713","","b","null","88","88","1","swim-dual-task","","b","lowercase","738000","0","4","01d92d17ed0ea9d99d2bac6381808c7ee69318be66dd3daf29c6bf4568786f8d","738008","713","88","1","swim","","","","",""
"dual-task","null","null","null","","arctic","swim","669","","n","null","88","88","1","swim-dual-task","","n","lowercase","750000","0","4","01d92d17ed0ea9d99d2bac6381808c7ee69318be66dd3daf29c6bf4568786f8d","750026","669","88","1","swim","","","","",""
"dual-task","null","null","null","","arctic","swim","1629","","b","null","88","88","1","swim-dual-task","","b","lowercase","758000","0","4","01d92d17ed0ea9d99d2bac6381808c7ee69318be66dd3daf29c6bf4568786f8d","758010","1629","88","1","swim","","","","",""
"dual-task","null","null","null","","arctic","swim","816","","r","null","88","88","1","swim-dual-task","","r","lowercase","764000","0","4","01d92d17ed0ea9d99d2bac6381808c7ee69318be66dd3daf29c6bf4568786f8d","764002","816","88","1","swim","","","","",""
"dual-task","null","null","null","","arctic","swim","784","","B","null","77","77","1","swim-dual-task","","B","uppercase","774000","0","4","01d92d17ed0ea9d99d2bac6381808c7ee69318be66dd3daf29c6bf4568786f8d","774024","784","77","1","swim","","","","",""
"dual-task","null","null","null","","arctic","swim","694","","t","null","88","88","1","swim-dual-task","","t","lowercase","780000","0","4","01d92d17ed0ea9d99d2bac6381808c7ee69318be66dd3daf29c6bf4568786f8d","780005","694","88","1","swim","","","","",""
"dual-task","null","null","null","","arctic","swim","693","","e","null","88","88","1","swim-dual-task","","e","lowercase","786000","0","4","01d92d17ed0ea9d99d2bac6381808c7ee69318be66dd3daf29c6bf4568786f8d","786008","693","88","1","swim","","","","",""
"dual-task","null","null","null","","arctic","swim","820","","g","null","88","88","1","swim-dual-task","","g","lowercase","796000","0","4","01d92d17ed0ea9d99d2bac6381808c7ee69318be66dd3daf29c6bf4568786f8d","796014","820","88","1","swim","","","","",""
"audio-keyboard-response","62","2489735","0.0-6.0-2.0-1.0","01d92d17ed0ea9d99d2bac6381808c7ee69318be66dd3daf29c6bf4568786f8d","arctic","swim","null","","audio/story_swim_scrambled.mp3","","null","","","","","","","","","","","","","","","","","","","",""
"html-button-response","63","2496321","0.0-6.0-2.0-2.0","01d92d17ed0ea9d99d2bac6381808c7ee69318be66dd3daf29c6bf4568786f8d","arctic","swim","6584","","<p>This concludes the story. Thank you for listening.</p><p>You will now answer some questions about the content of the story.</p>","0","","","","","","","","","","","","","","","","","","","","",""
"survey-multi-choice","64","2501004","0.0-6.0-2.0-3.0-0.0","01d92d17ed0ea9d99d2bac6381808c7ee69318be66dd3daf29c6bf4568786f8d","arctic","swim","4680","","<b>How many astronaut candidates reported for duty at the Johnson Space Center?</b>","","","","1","swim-comprehension","","","","","","","","","","","","","{""Q0"":""Forty-four""}","","","",""
"survey-multi-choice","65","2506168","0.0-6.0-2.0-3.0-0.1","01d92d17ed0ea9d99d2bac6381808c7ee69318be66dd3daf29c6bf4568786f8d","arctic","swim","4906","","<b>How did the narrator train for his swim test?</b>","","","","0","swim-comprehension","","","","","","","","","","","","","{""Q0"":""Signed up for a swim class""}","","","",""
"survey-multi-choice","66","2510794","0.0-6.0-2.0-3.0-0.2","01d92d17ed0ea9d99d2bac6381808c7ee69318be66dd3daf29c6bf4568786f8d","arctic","swim","4373","","<b>How many astronaut candidates passed the first swim test?</b>","","","","0","swim-comprehension","","","","","","","","","","","","","{""Q0"":""None""}","","","",""
"survey-multi-choice","67","2517591","0.0-6.0-2.0-3.0-0.3","01d92d17ed0ea9d99d2bac6381808c7ee69318be66dd3daf29c6bf4568786f8d","arctic","swim","6533","","<b>How often does the narrator swim, now that he is a good swimmer?</b>","","","","1","swim-comprehension","","","","","","","","","","","","","{""Q0"":""Never swam again in his life""}","","","",""
"survey-multi-choice","68","2520578","0.0-6.0-2.0-3.0-0.4","01d92d17ed0ea9d99d2bac6381808c7ee69318be66dd3daf29c6bf4568786f8d","arctic","swim","2718","","<b>What is the narrator afraid of, aside from the water?</b>","","","","1","swim-comprehension","","","","","","","","","","","","","{""Q0"":""Heights""}","","","",""
"survey-multi-choice","69","2543791","0.0-6.0-2.0-3.0-0.5","01d92d17ed0ea9d99d2bac6381808c7ee69318be66dd3daf29c6bf4568786f8d","arctic","swim","22944","","<b>What was the final step of the first swim test in the pool?</b>","","","","1","swim-comprehension","","","","","","","","","","","","","{""Q0"":""Tread water with hands above the water""}","","","",""
"survey-multi-choice","70","2552747","0.0-6.0-2.0-3.0-0.6","01d92d17ed0ea9d99d2bac6381808c7ee69318be66dd3daf29c6bf4568786f8d","arctic","swim","8702","","<b>What gave the narrator his greatest feeling of accomplishment?</b>","","","","1","swim-comprehension","","","","","","","","","","","","","{""Q0"":""Passing the water survival course""}","","","",""
"survey-multi-choice","71","2559123","0.0-6.0-2.0-3.0-0.7","01d92d17ed0ea9d99d2bac6381808c7ee69318be66dd3daf29c6bf4568786f8d","arctic","swim","6109","","<b>What were the astronaut candidates trained to do at the naval air station?</b>","","","","1","swim-comprehension","","","","","","","","","","","","","{""Q0"":""Eject out of aircraft and survive in water long enough to be rescued""}","","","",""
"survey-multi-choice","72","2563582","0.0-6.0-2.0-3.0-0.8","01d92d17ed0ea9d99d2bac6381808c7ee69318be66dd3daf29c6bf4568786f8d","arctic","swim","4193","","<b>Where is the home of naval aviation?</b>","","","","1","swim-comprehension","","","","","","","","","","","","","{""Q0"":""Pensacola""}","","","",""
"survey-multi-choice","73","2574142","0.0-6.0-2.0-3.0-0.9","01d92d17ed0ea9d99d2bac6381808c7ee69318be66dd3daf29c6bf4568786f8d","arctic","swim","10301","","<b>How many times did the astronaut candidates have to complete the final exercise to pass?</b>","","","","0","swim-comprehension","","","","","","","","","","","","","{""Q0"":""One""}","","","",""
"html-button-response","74","2576017","0.0-6.0-2.0-4.0","01d92d17ed0ea9d99d2bac6381808c7ee69318be66dd3daf29c6bf4568786f8d","arctic","swim","1621","","<p>Thank you for your responses.</p><p>You will now answer some questions about your impressions of the story.</p>","0","","","","","","","","","","","","","","","","","","","","",""
"html-button-response","75","2578370","0.0-6.0-2.0-5.0-0.0","01d92d17ed0ea9d99d2bac6381808c7ee69318be66dd3daf29c6bf4568786f8d","arctic","swim","2351","","E8","3","","","","swim-engagement","","","","","","","","","","","","","","4","enjoyment","",""
"html-button-response","76","2580806","0.0-6.0-2.0-5.0-0.1","01d92d17ed0ea9d99d2bac6381808c7ee69318be66dd3daf29c6bf4568786f8d","arctic","swim","2181","","A4","0","","","","swim-engagement","","","","","","","","","","","","","","1","absorption","",""
"html-button-response","77","2583215","0.0-6.0-2.0-5.0-0.2","01d92d17ed0ea9d99d2bac6381808c7ee69318be66dd3daf29c6bf4568786f8d","arctic","swim","2149","","EE5","1","","","","swim-engagement","","","","","","","","","","","","","","2","emo-engage","",""
"html-button-response","78","2584578","0.0-6.0-2.0-5.0-0.3","01d92d17ed0ea9d99d2bac6381808c7ee69318be66dd3daf29c6bf4568786f8d","arctic","swim","1102","","A5","0","","","","swim-engagement","","","","","","","","","","","","","","1","absorption","",""
"html-button-response","79","2585749","0.0-6.0-2.0-5.0-0.4","01d92d17ed0ea9d99d2bac6381808c7ee69318be66dd3daf29c6bf4568786f8d","arctic","swim","918","","EE3","0","","","","swim-engagement","","","","","","","","","","","","","","1","emo-engage","",""
"html-button-response","80","2588392","0.0-6.0-2.0-5.0-0.5","01d92d17ed0ea9d99d2bac6381808c7ee69318be66dd3daf29c6bf4568786f8d","arctic","swim","2388","","EE4","3","","","","swim-engagement","","","","","","","","","","","","","","4","emo-engage","",""
"html-button-response","81","2590418","0.0-6.0-2.0-5.0-0.6","01d92d17ed0ea9d99d2bac6381808c7ee69318be66dd3daf29c6bf4568786f8d","arctic","swim","1775","","EE2","2","","","","swim-engagement","","","","","","","","","","","","","","3","emo-engage","",""
"html-button-response","82","2592611","0.0-6.0-2.0-5.0-0.7","01d92d17ed0ea9d99d2bac6381808c7ee69318be66dd3daf29c6bf4568786f8d","arctic","swim","1936","","E1","1","","","","swim-engagement","","","","","","","","","","","","","","2","enjoyment","",""
"html-button-response","83","2594996","0.0-6.0-2.0-5.0-0.8","01d92d17ed0ea9d99d2bac6381808c7ee69318be66dd3daf29c6bf4568786f8d","arctic","swim","2131","","A1","0","","","","swim-engagement","","","","","","","","","","","","","","1","absorption","",""
"html-button-response","84","2596796","0.0-6.0-2.0-5.0-0.9","01d92d17ed0ea9d99d2bac6381808c7ee69318be66dd3daf29c6bf4568786f8d","arctic","swim","1541","","E7","0","","","","swim-engagement","","","","","","","","","","","","","","1","enjoyment","",""
"html-button-response","85","2599476","0.0-6.0-2.0-5.0-0.10","01d92d17ed0ea9d99d2bac6381808c7ee69318be66dd3daf29c6bf4568786f8d","arctic","swim","2426","","MS2","0","","","","swim-engagement","","","","","","","","","","","","","","1","mental-sim","",""
"html-button-response","86","2601344","0.0-6.0-2.0-5.0-0.11","01d92d17ed0ea9d99d2bac6381808c7ee69318be66dd3daf29c6bf4568786f8d","arctic","swim","1610","","EE1","0","","","","swim-engagement","","","","","","","","","","","","","","1","emo-engage","",""
"html-button-response","87","2604347","0.0-6.0-2.0-5.0-0.12","01d92d17ed0ea9d99d2bac6381808c7ee69318be66dd3daf29c6bf4568786f8d","arctic","swim","2743","","MS1","4","","","","swim-engagement","","","","","","","","","","","","","","5","mental-sim","",""
"html-button-response","88","2606097","0.0-6.0-2.0-5.0-0.13","01d92d17ed0ea9d99d2bac6381808c7ee69318be66dd3daf29c6bf4568786f8d","arctic","swim","1494","","E10","0","","","","swim-engagement","","","","","","","","","","","","","","1","enjoyment","",""
"html-button-response","89","2610537","0.0-6.0-2.0-5.0-0.14","01d92d17ed0ea9d99d2bac6381808c7ee69318be66dd3daf29c6bf4568786f8d","arctic","swim","4180","","A2","3","","","","swim-engagement","","","","","","","","","","","","","","4","absorption","",""
"html-button-response","90","2612028","0.0-6.0-2.0-5.0-0.15","01d92d17ed0ea9d99d2bac6381808c7ee69318be66dd3daf29c6bf4568786f8d","arctic","swim","1234","","A3","0","","","","swim-engagement","","","","","","","","","","","","","","1","absorption","",""
"html-button-response","91","2613736","0.0-6.0-2.0-5.0-0.16","01d92d17ed0ea9d99d2bac6381808c7ee69318be66dd3daf29c6bf4568786f8d","arctic","swim","1455","","E6","0","","","","swim-engagement","","","","","","","","","","","","","","1","enjoyment","",""
"html-button-response","92","2616399","0.0-6.0-2.0-5.0-0.17","01d92d17ed0ea9d99d2bac6381808c7ee69318be66dd3daf29c6bf4568786f8d","arctic","swim","2392","","MS3","4","","","","swim-engagement","","","","","","","","","","","","","","5","mental-sim","",""
"html-button-response","93","2617934","0.0-8.0","01d92d17ed0ea9d99d2bac6381808c7ee69318be66dd3daf29c6bf4568786f8d","arctic","swim","1273","","<p>Thank you for your responses.</p><p>You will now answer some demographic, hearing, and general health questions.</p>","0","","","","","","","","","","","","","","","","","","","","",""
"survey-multi-choice","94","2620821","0.0-9.0-0.0","01d92d17ed0ea9d99d2bac6381808c7ee69318be66dd3daf29c6bf4568786f8d","arctic","swim","2884","","","","","","","survey","","","","","","","","","","","","","{""Q0"":""Firefox""}","","","browser",""
"survey-text","95","2624221","0.0-9.0-1.0","01d92d17ed0ea9d99d2bac6381808c7ee69318be66dd3daf29c6bf4568786f8d","arctic","swim","3142","","","","","","","survey","","","","","","","","","","","","","{""AGE"":""31""}","","","age","31"
"survey-multi-choice","96","2626243","0.0-9.0-2.0","01d92d17ed0ea9d99d2bac6381808c7ee69318be66dd3daf29c6bf4568786f8d","arctic","swim","1766","","","","","","","survey","","","","","","","","","","","","","{""Q0"":""Male""}","","","gender","Male"
"survey-multi-choice","97","2630315","0.0-9.0-4.0","01d92d17ed0ea9d99d2bac6381808c7ee69318be66dd3daf29c6bf4568786f8d","arctic","swim","3815","","","","","","","survey","","","","","","","","","","","","","{""Q0"":""Right""}","","","handedness","Right"
"survey-multi-choice","98","2634057","0.0-9.0-5.0","01d92d17ed0ea9d99d2bac6381808c7ee69318be66dd3daf29c6bf4568786f8d","arctic","swim","3479","","","","","","","survey","","","","","","","","","","","","","{""Q0"":""Bachelor's Degree""}","","","education","Bachelor's Degree"
"survey-text","99","2638960","0.0-10.0-0.0","01d92d17ed0ea9d99d2bac6381808c7ee69318be66dd3daf29c6bf4568786f8d","arctic","swim","4642","","","","","","","survey","","","","","","","","","","","","","{""L1"":""English""}","","","first-language","English"
"survey-text","100","2648198","0.0-10.0-1.0","01d92d17ed0ea9d99d2bac6381808c7ee69318be66dd3daf29c6bf4568786f8d","arctic","swim","8966","","","","","","","survey","","","","","","","","","","","","","{""L2name"":""Spanish"",""L2fluency"":""5"",""L3name"":"""",""L3fluency"":"""",""L4name"":"""",""L4fluency"":""""}","","","additional-languages","{""L2name"":""Spanish"",""L2fluency"":""5"",""L3name"":"""",""L3fluency"":"""",""L4name"":"""",""L4fluency"":""""}"
"survey-multi-choice","101","2651068","0.0-10.0-2.0","01d92d17ed0ea9d99d2bac6381808c7ee69318be66dd3daf29c6bf4568786f8d","arctic","swim","2593","","","","","","","survey","","","","","","","","","","","","","{""Q0"":""No""}","","","hearing-aid","No"
"survey-multi-choice","102","2653421","0.0-10.0-3.0","01d92d17ed0ea9d99d2bac6381808c7ee69318be66dd3daf29c6bf4568786f8d","arctic","swim","2096","","","","","","","survey","","","","","","","","","","","","","{""Q0"":""Never""}","","","ringing-ears","Never"
"survey-multi-choice","103","2655797","0.0-10.0-5.0","01d92d17ed0ea9d99d2bac6381808c7ee69318be66dd3daf29c6bf4568786f8d","arctic","swim","2117","","","","","","","survey","","","","","","","","","","","","","{""Q0"":""No""}","","","neuro-disease","No"
"survey-multi-choice","104","2658759","0.0-10.0-7.0","01d92d17ed0ea9d99d2bac6381808c7ee69318be66dd3daf29c6bf4568786f8d","arctic","swim","2701","","","","","","","survey","","","","","","","","","","","","","{""Q0"":""No""}","","","take-meds","No"
"survey-text","105","2661287","0.0-10.0-9.0","01d92d17ed0ea9d99d2bac6381808c7ee69318be66dd3daf29c6bf4568786f8d","arctic","swim","2211","","","","","","","survey","","","","","","","","","","","","","{""HC"":""""}","","","health-concerns",""
"html-button-response","106","2663685","0.0-11.0-0.0","01d92d17ed0ea9d99d2bac6381808c7ee69318be66dd3daf29c6bf4568786f8d","arctic","swim","2135","","<p>How would you describe your musical skills/experiences?</p>","4","","","","survey","","","","","","","","","","","","","","","","music-skill","5"
"survey-multi-choice","107","2665931","0.0-11.0-1.0","01d92d17ed0ea9d99d2bac6381808c7ee69318be66dd3daf29c6bf4568786f8d","arctic","swim","1985","","","","","","","survey","","","","","","","","","","","","","{""Q0"":""Yes""}","","","music-instrument","Yes"
"survey-text","108","2670057","0.0-11.0-2.0-0.0","01d92d17ed0ea9d99d2bac6381808c7ee69318be66dd3daf29c6bf4568786f8d","arctic","swim","3867","","","","","","","survey","","","","","","","","","","","","","{""MEXP"":""26""}","","","music-training-yrs","26"
"html-button-response","109","2672071","0.0-12.0-0.0","01d92d17ed0ea9d99d2bac6381808c7ee69318be66dd3daf29c6bf4568786f8d","arctic","swim","1761","","<p>How would you describe your general hearing abilities?</p>","4","","","","survey","","","","","","","","","","","","","","","","ssq-01","5"
"html-button-response","110","2676864","0.0-12.0-1.0","01d92d17ed0ea9d99d2bac6381808c7ee69318be66dd3daf29c6bf4568786f8d","arctic","swim","4534","","<p>When you talk with someone at a place that strongly reverberates/echoes (e.g., in a church or train station),</br>can you understand what the person says?</p>","9","","","","survey","","","","","","","","","","","","","","","","ssq-02","9"
"html-button-response","111","2680621","0.0-12.0-2.0","01d92d17ed0ea9d99d2bac6381808c7ee69318be66dd3daf29c6bf4568786f8d","arctic","swim","3506","","<p>When you are with a group (~5 people) in a lively restaurant, can you follow the group's conversation?</p>","9","","","","survey","","","","","","","","","","","","","","","","ssq-03","9"
"html-button-response","112","2684145","0.0-12.0-3.0","01d92d17ed0ea9d99d2bac6381808c7ee69318be66dd3daf29c6bf4568786f8d","arctic","swim","3259","","<p>Based on the sound of a bus or truck, can you tell whether it is moving towards or away from you?</p>","7","","","","survey","","","","","","","","","","","","","","","","ssq-04","7"
"html-button-response","113","2686874","0.0-12.0-4.0","01d92d17ed0ea9d99d2bac6381808c7ee69318be66dd3daf29c6bf4568786f8d","arctic","swim","2468","","<p>When you are in an unknown environment, can you tell from which direction a brief sound originates?</p>","8","","","","survey","","","","","","","","","","","","","","","","ssq-05","8"
"html-button-response","114","2691027","0.0-12.0-5.0","01d92d17ed0ea9d99d2bac6381808c7ee69318be66dd3daf29c6bf4568786f8d","arctic","swim","3896","","<p>Are you able to ignore distracting sounds when you concentrate on a specific aspect of your acoustic surrounding?</p>","8","","","","survey","","","","","","","","","","","","","","","","ssq-06","8"
"fullscreen","115","2692296","0.0-13.0","01d92d17ed0ea9d99d2bac6381808c7ee69318be66dd3daf29c6bf4568786f8d","arctic","swim","","","","","","","","","true","","","","","","","","","","","","","","","",""
