"trial_type","trial_index","time_elapsed","internal_node_id","ParticipantID","firstStory","scramStory","rt","url","stimulus","button_pressed","key_press","correctRESP","correct","designation","success","letterStim","letterType","ONSET","TIMEOUT","CONDITION","Participant","ONSET_ACTUAL","RT","RESP","ACC","STORY","responses","response","type","surveyQuestion","QRESP"
"pavlovia","0","11","0.0-0.0","f73bafe440a79a8465ff10d200ea426a80edaf2b4d4ff376b9375d3dc419816a","swim","swim","","","","","","","","","","","","","","","","","","","","","","","","",""
"external-html","1","14477","0.0-1.0","f73bafe440a79a8465ff10d200ea426a80edaf2b4d4ff376b9375d3dc419816a","swim","swim","14277","consent/consent_updated.html","","","","","","","","","","","","","","","","","","","","","","",""
"html-button-response","2","513874","0.0-2.0-0.0","f73bafe440a79a8465ff10d200ea426a80edaf2b4d4ff376b9375d3dc419816a","swim","swim","499389","","<p>Before we begin the main task, you will complete a short volume calibration and headphone check.</p><p>Please make sure you are in a quiet listening environment, that you are wearing headphones, and that your computer's volume is turned on.<p></p>","0","","","","","","","","","","","","","","","","","","","","",""
"html-button-response","3","517084","0.0-2.0-1.0","f73bafe440a79a8465ff10d200ea426a80edaf2b4d4ff376b9375d3dc419816a","swim","swim","2953","","<p>The volume calibration will be first.</p><p>You will hear a thirty-second noise. Please adjust your computer's volume so that this noise is being presented at a comfortable level.<p></p>","0","","","","","","","","","","","","","","","","","","","","",""
"audio-button-response","4","524673","0.0-2.0-2.0","f73bafe440a79a8465ff10d200ea426a80edaf2b4d4ff376b9375d3dc419816a","swim","swim","7301","","audio/volumetest.mp3","0","","","","","","","","","","","","","","","","","","","","",""
"html-keyboard-response","5","529438","0.0-3.0-0.0","f73bafe440a79a8465ff10d200ea426a80edaf2b4d4ff376b9375d3dc419816a","swim","swim","4750","","<p>You will now complete a short headphone check.</p><p>On each trial, you will hear three tones. One of these tones will be quieter than the others. Your task is to identify whether the quiet tone occurred first, second, or third.</p><p>There are six trials in total.<p></p><p></p>(Press SPACEBAR to begin)","","32","","","","","","","","","","","","","","","","","","","",""
"html-keyboard-response","6","530195","0.0-3.0-1.0-0.0","f73bafe440a79a8465ff10d200ea426a80edaf2b4d4ff376b9375d3dc419816a","swim","swim","null","","<div style=""font-size:60px;"">+</div>","","null","","","","","","","","","","","","","","","","","","","",""
"audio-button-response","7","534852","0.0-3.0-1.0-1.0","f73bafe440a79a8465ff10d200ea426a80edaf2b4d4ff376b9375d3dc419816a","swim","swim","4652","","audio/t2_1.mp3","1","","1","1","headphone-test","","","","","","","","","","","","","","","","",""
"html-keyboard-response","8","535354","0.0-3.0-1.0-2.0","f73bafe440a79a8465ff10d200ea426a80edaf2b4d4ff376b9375d3dc419816a","swim","swim","null","","<p>Correct</p>","","null","","","","","","","","","","","","","","","","","","","",""
"html-keyboard-response","9","535856","0.0-3.0-1.0-0.1","f73bafe440a79a8465ff10d200ea426a80edaf2b4d4ff376b9375d3dc419816a","swim","swim","null","","<div style=""font-size:60px;"">+</div>","","null","","","","","","","","","","","","","","","","","","","",""
"audio-button-response","10","540540","0.0-3.0-1.0-1.1","f73bafe440a79a8465ff10d200ea426a80edaf2b4d4ff376b9375d3dc419816a","swim","swim","4682","","audio/t2_2.mp3","0","","1","0","headphone-test","","","","","","","","","","","","","","","","",""
"html-keyboard-response","11","541042","0.0-3.0-1.0-2.1","f73bafe440a79a8465ff10d200ea426a80edaf2b4d4ff376b9375d3dc419816a","swim","swim","null","","<p>Incorrect</p>","","null","","","","","","","","","","","","","","","","","","","",""
"html-keyboard-response","12","541544","0.0-3.0-1.0-0.2","f73bafe440a79a8465ff10d200ea426a80edaf2b4d4ff376b9375d3dc419816a","swim","swim","null","","<div style=""font-size:60px;"">+</div>","","null","","","","","","","","","","","","","","","","","","","",""
"audio-button-response","13","546167","0.0-3.0-1.0-1.2","f73bafe440a79a8465ff10d200ea426a80edaf2b4d4ff376b9375d3dc419816a","swim","swim","4621","","audio/t1_1.mp3","0","","0","1","headphone-test","","","","","","","","","","","","","","","","",""
"html-keyboard-response","14","546669","0.0-3.0-1.0-2.2","f73bafe440a79a8465ff10d200ea426a80edaf2b4d4ff376b9375d3dc419816a","swim","swim","null","","<p>Correct</p>","","null","","","","","","","","","","","","","","","","","","","",""
"html-keyboard-response","15","547171","0.0-3.0-1.0-0.3","f73bafe440a79a8465ff10d200ea426a80edaf2b4d4ff376b9375d3dc419816a","swim","swim","null","","<div style=""font-size:60px;"">+</div>","","null","","","","","","","","","","","","","","","","","","","",""
"audio-button-response","16","551593","0.0-3.0-1.0-1.3","f73bafe440a79a8465ff10d200ea426a80edaf2b4d4ff376b9375d3dc419816a","swim","swim","4420","","audio/t3_2.mp3","2","","2","1","headphone-test","","","","","","","","","","","","","","","","",""
"html-keyboard-response","17","552094","0.0-3.0-1.0-2.3","f73bafe440a79a8465ff10d200ea426a80edaf2b4d4ff376b9375d3dc419816a","swim","swim","null","","<p>Correct</p>","","null","","","","","","","","","","","","","","","","","","","",""
"html-keyboard-response","18","552596","0.0-3.0-1.0-0.4","f73bafe440a79a8465ff10d200ea426a80edaf2b4d4ff376b9375d3dc419816a","swim","swim","null","","<div style=""font-size:60px;"">+</div>","","null","","","","","","","","","","","","","","","","","","","",""
"audio-button-response","19","557837","0.0-3.0-1.0-1.4","f73bafe440a79a8465ff10d200ea426a80edaf2b4d4ff376b9375d3dc419816a","swim","swim","5239","","audio/t1_2.mp3","0","","0","1","headphone-test","","","","","","","","","","","","","","","","",""
"html-keyboard-response","20","558337","0.0-3.0-1.0-2.4","f73bafe440a79a8465ff10d200ea426a80edaf2b4d4ff376b9375d3dc419816a","swim","swim","null","","<p>Correct</p>","","null","","","","","","","","","","","","","","","","","","","",""
"html-keyboard-response","21","558839","0.0-3.0-1.0-0.5","f73bafe440a79a8465ff10d200ea426a80edaf2b4d4ff376b9375d3dc419816a","swim","swim","null","","<div style=""font-size:60px;"">+</div>","","null","","","","","","","","","","","","","","","","","","","",""
"audio-button-response","22","564039","0.0-3.0-1.0-1.5","f73bafe440a79a8465ff10d200ea426a80edaf2b4d4ff376b9375d3dc419816a","swim","swim","5198","","audio/t3_1.mp3","2","","2","1","headphone-test","","","","","","","","","","","","","","","","",""
"html-keyboard-response","23","564541","0.0-3.0-1.0-2.5","f73bafe440a79a8465ff10d200ea426a80edaf2b4d4ff376b9375d3dc419816a","swim","swim","null","","<p>Correct</p>","","null","","","","","","","","","","","","","","","","","","","",""
"fullscreen","24","566768","0.0-4.0","f73bafe440a79a8465ff10d200ea426a80edaf2b4d4ff376b9375d3dc419816a","swim","swim","","","","","","","","","true","","","","","","","","","","","","","","","",""
"html-button-response","25","577424","0.0-5.0-0.0","f73bafe440a79a8465ff10d200ea426a80edaf2b4d4ff376b9375d3dc419816a","swim","swim","10632","","<p>There are two blocks to this experiment.</p><p>In each block, you will hear a ~13.5 minute story. One of the stories will be scrambled. Please listen carefully to both stories and understand them as best you can.</p><p>After each story, you will be asked some questions to assess your comprehension.</p>","0","","","","","","","","","","","","","","","","","","","","",""
"html-button-response","26","590302","0.0-5.0-1.0","f73bafe440a79a8465ff10d200ea426a80edaf2b4d4ff376b9375d3dc419816a","swim","swim","12873","","<p>During each story, there will be an additional task.</p><p>A letter will occasionally appear on the screen.</br>Your job is to - as quickly as you can - decide whether the letter is lowercase or uppercase and press one of two keys on the keyboard:</p><p>If the letter is <b>lowercase</b>, press key &lt;<b>x</b>&gt;.</p><p>If the letter is <b>uppercase</b>, press key &lt;<b>m</b>&gt;.</p>","0","","","","","","","","","","","","","","","","","","","","",""
"html-keyboard-response","27","607901","0.0-5.0-2.0","f73bafe440a79a8465ff10d200ea426a80edaf2b4d4ff376b9375d3dc419816a","swim","swim","17598","","<p>Because we want your responses to be as quick as possible, please keep your index fingers over the keys while listening.</p><p>Each block lasts about 20 minutes.</p><p><b>Press &lt;x&gt; or &lt;m&gt; to start the first block!</b></p>","","88","","","","","","","","","","","","","","","","","","","",""
"html-keyboard-response","28","608407","0.0-7.0-0.0-0.0","f73bafe440a79a8465ff10d200ea426a80edaf2b4d4ff376b9375d3dc419816a","swim","swim","null","","<div style=""font-size:60px;"" tabindex=""0"">+</div>","","null","","","","","","","","","","","","","","","","","","","",""
"dual-task","null","null","null","","swim","swim","1462.1000000238419","","E","null","77","77","1","swim-dual-task","","E","uppercase","16000","0","4","f73bafe440a79a8465ff10d200ea426a80edaf2b4d4ff376b9375d3dc419816a","16002.5","1462.1000000238419","77","1","swim","","","","",""
"dual-task","null","null","null","","swim","swim","1028.5","","F","null","77","77","1","swim-dual-task","","F","uppercase","22000","0","4","f73bafe440a79a8465ff10d200ea426a80edaf2b4d4ff376b9375d3dc419816a","21998.199999928474","1028.5","77","1","swim","","","","",""
"dual-task","null","null","null","","swim","swim","654.1000000238419","","N","null","77","77","1","swim-dual-task","","N","uppercase","36000","0","4","f73bafe440a79a8465ff10d200ea426a80edaf2b4d4ff376b9375d3dc419816a","35996.199999928474","654.1000000238419","77","1","swim","","","","",""
"dual-task","null","null","null","","swim","swim","669.3000000715256","","R","null","77","77","1","swim-dual-task","","R","uppercase","46000","0","4","f73bafe440a79a8465ff10d200ea426a80edaf2b4d4ff376b9375d3dc419816a","45999","669.3000000715256","77","1","swim","","","","",""
"dual-task","null","null","null","","swim","swim","621.2000000476837","","N","null","77","77","1","swim-dual-task","","N","uppercase","52000","0","4","f73bafe440a79a8465ff10d200ea426a80edaf2b4d4ff376b9375d3dc419816a","51999.299999952316","621.2000000476837","77","1","swim","","","","",""
"dual-task","null","null","null","","swim","swim","839","","g","null","88","88","1","swim-dual-task","","g","lowercase","60000","0","4","f73bafe440a79a8465ff10d200ea426a80edaf2b4d4ff376b9375d3dc419816a","59999.39999997616","839","88","1","swim","","","","",""
"dual-task","null","null","null","","swim","swim","752.1000000238419","","T","null","77","77","1","swim-dual-task","","T","uppercase","70000","0","4","f73bafe440a79a8465ff10d200ea426a80edaf2b4d4ff376b9375d3dc419816a","69997.10000002384","752.1000000238419","77","1","swim","","","","",""
"dual-task","null","null","null","","swim","swim","902.6999999284744","","f","null","88","88","1","swim-dual-task","","f","lowercase","84000","0","4","f73bafe440a79a8465ff10d200ea426a80edaf2b4d4ff376b9375d3dc419816a","83999.39999997616","902.6999999284744","88","1","swim","","","","",""
"dual-task","null","null","null","","swim","swim","747.3999999761581","","n","null","88","88","1","swim-dual-task","","n","lowercase","90000","0","4","f73bafe440a79a8465ff10d200ea426a80edaf2b4d4ff376b9375d3dc419816a","89999.10000002384","747.3999999761581","88","1","swim","","","","",""
"dual-task","null","null","null","","swim","swim","1008","","D","null","77","77","1","swim-dual-task","","D","uppercase","102000","0","4","f73bafe440a79a8465ff10d200ea426a80edaf2b4d4ff376b9375d3dc419816a","101999.29999995232","1008","77","1","swim","","","","",""
"dual-task","null","null","null","","swim","swim","860","","D","null","77","77","1","swim-dual-task","","D","uppercase","114000","0","4","f73bafe440a79a8465ff10d200ea426a80edaf2b4d4ff376b9375d3dc419816a","113999.5","860","77","1","swim","","","","",""
"dual-task","null","null","null","","swim","swim","613.3000000715256","","f","null","88","88","1","swim-dual-task","","f","lowercase","122000","0","4","f73bafe440a79a8465ff10d200ea426a80edaf2b4d4ff376b9375d3dc419816a","122000.60000002384","613.3000000715256","88","1","swim","","","","",""
"dual-task","null","null","null","","swim","swim","885.8999999761581","","d","null","88","88","1","swim-dual-task","","d","lowercase","130000","0","4","f73bafe440a79a8465ff10d200ea426a80edaf2b4d4ff376b9375d3dc419816a","129996.29999995232","885.8999999761581","88","1","swim","","","","",""
"dual-task","null","null","null","","swim","swim","613","","n","null","88","88","1","swim-dual-task","","n","lowercase","142000","0","4","f73bafe440a79a8465ff10d200ea426a80edaf2b4d4ff376b9375d3dc419816a","141996.79999995232","613","88","1","swim","","","","",""
"dual-task","null","null","null","","swim","swim","1040.8999999761581","","F","null","77","77","1","swim-dual-task","","F","uppercase","148000","0","4","f73bafe440a79a8465ff10d200ea426a80edaf2b4d4ff376b9375d3dc419816a","148005.69999992847","1040.8999999761581","77","1","swim","","","","",""
"dual-task","null","null","null","","swim","swim","1105.7000000476837","","F","null","77","77","1","swim-dual-task","","F","uppercase","158000","0","4","f73bafe440a79a8465ff10d200ea426a80edaf2b4d4ff376b9375d3dc419816a","157999.29999995232","1105.7000000476837","77","1","swim","","","","",""
"dual-task","null","null","null","","swim","swim","1326.1000000238419","","H","null","77","77","1","swim-dual-task","","H","uppercase","166000","0","4","f73bafe440a79a8465ff10d200ea426a80edaf2b4d4ff376b9375d3dc419816a","165999.19999992847","1326.1000000238419","77","1","swim","","","","",""
"dual-task","null","null","null","","swim","swim","1163.0999999046326","","H","null","77","77","1","swim-dual-task","","H","uppercase","180000","0","4","f73bafe440a79a8465ff10d200ea426a80edaf2b4d4ff376b9375d3dc419816a","179999","1163.0999999046326","77","1","swim","","","","",""
"dual-task","null","null","null","","swim","swim","1685.1000000238419","","h","null","88","88","1","swim-dual-task","","h","lowercase","192000","0","4","f73bafe440a79a8465ff10d200ea426a80edaf2b4d4ff376b9375d3dc419816a","191996.29999995232","1685.1000000238419","88","1","swim","","","","",""
"dual-task","null","null","null","","swim","swim","NA","","e","null","NA","88","0","swim-dual-task","","e","lowercase","200000","1","4","f73bafe440a79a8465ff10d200ea426a80edaf2b4d4ff376b9375d3dc419816a","199996.10000002384","NA","NA","0","swim","","","","",""
"dual-task","null","null","null","","swim","swim","1307.7999999523163","","N","null","77","77","1","swim-dual-task","","N","uppercase","206000","0","4","f73bafe440a79a8465ff10d200ea426a80edaf2b4d4ff376b9375d3dc419816a","205996.79999995232","1307.7999999523163","77","1","swim","","","","",""
"dual-task","null","null","null","","swim","swim","1185.7000000476837","","t","null","88","88","1","swim-dual-task","","t","lowercase","216000","0","4","f73bafe440a79a8465ff10d200ea426a80edaf2b4d4ff376b9375d3dc419816a","215999.19999992847","1185.7000000476837","88","1","swim","","","","",""
"dual-task","null","null","null","","swim","swim","1904","","r","null","88","88","1","swim-dual-task","","r","lowercase","222000","0","4","f73bafe440a79a8465ff10d200ea426a80edaf2b4d4ff376b9375d3dc419816a","221999.10000002384","1904","88","1","swim","","","","",""
"dual-task","null","null","null","","swim","swim","830.2000000476837","","G","null","77","77","1","swim-dual-task","","G","uppercase","232000","0","4","f73bafe440a79a8465ff10d200ea426a80edaf2b4d4ff376b9375d3dc419816a","231997","830.2000000476837","77","1","swim","","","","",""
"dual-task","null","null","null","","swim","swim","1086","","F","null","77","77","1","swim-dual-task","","F","uppercase","244000","0","4","f73bafe440a79a8465ff10d200ea426a80edaf2b4d4ff376b9375d3dc419816a","243999.89999997616","1086","77","1","swim","","","","",""
"dual-task","null","null","null","","swim","swim","1382.2000000476837","","q","null","88","88","1","swim-dual-task","","q","lowercase","250000","0","4","f73bafe440a79a8465ff10d200ea426a80edaf2b4d4ff376b9375d3dc419816a","249999.60000002384","1382.2000000476837","88","1","swim","","","","",""
"dual-task","null","null","null","","swim","swim","1153.6999999284744","","G","null","77","77","1","swim-dual-task","","G","uppercase","262000","0","4","f73bafe440a79a8465ff10d200ea426a80edaf2b4d4ff376b9375d3dc419816a","261999.10000002384","1153.6999999284744","77","1","swim","","","","",""
"dual-task","null","null","null","","swim","swim","905.5","","E","null","77","77","1","swim-dual-task","","E","uppercase","272000","0","4","f73bafe440a79a8465ff10d200ea426a80edaf2b4d4ff376b9375d3dc419816a","271999.5","905.5","77","1","swim","","","","",""
"dual-task","null","null","null","","swim","swim","1029.6000000238419","","r","null","88","88","1","swim-dual-task","","r","lowercase","278000","0","4","f73bafe440a79a8465ff10d200ea426a80edaf2b4d4ff376b9375d3dc419816a","277999.1999999285","1029.6000000238419","88","1","swim","","","","",""
"dual-task","null","null","null","","swim","swim","956.7000000476837","","R","null","77","77","1","swim-dual-task","","R","uppercase","292000","0","4","f73bafe440a79a8465ff10d200ea426a80edaf2b4d4ff376b9375d3dc419816a","292000.60000002384","956.7000000476837","77","1","swim","","","","",""
"dual-task","null","null","null","","swim","swim","941.3999999761581","","Q","null","77","77","1","swim-dual-task","","Q","uppercase","304000","0","4","f73bafe440a79a8465ff10d200ea426a80edaf2b4d4ff376b9375d3dc419816a","304001","941.3999999761581","77","1","swim","","","","",""
"dual-task","null","null","null","","swim","swim","1143.2999999523163","","Q","null","77","77","1","swim-dual-task","","Q","uppercase","316000","0","4","f73bafe440a79a8465ff10d200ea426a80edaf2b4d4ff376b9375d3dc419816a","315999.2999999523","1143.2999999523163","77","1","swim","","","","",""
"dual-task","null","null","null","","swim","swim","1148.4000000953674","","e","null","88","88","1","swim-dual-task","","e","lowercase","324000","0","4","f73bafe440a79a8465ff10d200ea426a80edaf2b4d4ff376b9375d3dc419816a","323997.1999999285","1148.4000000953674","88","1","swim","","","","",""
"dual-task","null","null","null","","swim","swim","1306.3999999761581","","a","null","88","88","1","swim-dual-task","","a","lowercase","336000","0","4","f73bafe440a79a8465ff10d200ea426a80edaf2b4d4ff376b9375d3dc419816a","336000.6999999285","1306.3999999761581","88","1","swim","","","","",""
"dual-task","null","null","null","","swim","swim","1631.6999999284744","","n","null","88","88","1","swim-dual-task","","n","lowercase","346000","0","4","f73bafe440a79a8465ff10d200ea426a80edaf2b4d4ff376b9375d3dc419816a","346001.2999999523","1631.6999999284744","88","1","swim","","","","",""
"dual-task","null","null","null","","swim","swim","1310.8999999761581","","q","null","88","88","1","swim-dual-task","","q","lowercase","360000","0","4","f73bafe440a79a8465ff10d200ea426a80edaf2b4d4ff376b9375d3dc419816a","360000.10000002384","1310.8999999761581","88","1","swim","","","","",""
"dual-task","null","null","null","","swim","swim","1835.1000000238419","","T","null","77","77","1","swim-dual-task","","T","uppercase","368000","0","4","f73bafe440a79a8465ff10d200ea426a80edaf2b4d4ff376b9375d3dc419816a","368000.5","1835.1000000238419","77","1","swim","","","","",""
"dual-task","null","null","null","","swim","swim","1165.7999999523163","","f","null","88","88","1","swim-dual-task","","f","lowercase","378000","0","4","f73bafe440a79a8465ff10d200ea426a80edaf2b4d4ff376b9375d3dc419816a","377999.2999999523","1165.7999999523163","88","1","swim","","","","",""
"dual-task","null","null","null","","swim","swim","NA","","q","null","NA","88","0","swim-dual-task","","q","lowercase","386000","1","4","f73bafe440a79a8465ff10d200ea426a80edaf2b4d4ff376b9375d3dc419816a","385999.1999999285","NA","NA","0","swim","","","","",""
"dual-task","null","null","null","","swim","swim","836.8999999761581","","e","null","88","88","1","swim-dual-task","","e","lowercase","398000","0","4","f73bafe440a79a8465ff10d200ea426a80edaf2b4d4ff376b9375d3dc419816a","398001.1999999285","836.8999999761581","88","1","swim","","","","",""
"dual-task","null","null","null","","swim","swim","1222","","g","null","88","88","1","swim-dual-task","","g","lowercase","408000","0","4","f73bafe440a79a8465ff10d200ea426a80edaf2b4d4ff376b9375d3dc419816a","408001.1999999285","1222","88","1","swim","","","","",""
"dual-task","null","null","null","","swim","swim","1477.3999999761581","","B","null","77","77","1","swim-dual-task","","B","uppercase","418000","0","4","f73bafe440a79a8465ff10d200ea426a80edaf2b4d4ff376b9375d3dc419816a","417999.2999999523","1477.3999999761581","77","1","swim","","","","",""
"dual-task","null","null","null","","swim","swim","1368.6999999284744","","t","null","88","88","1","swim-dual-task","","t","lowercase","426000","0","4","f73bafe440a79a8465ff10d200ea426a80edaf2b4d4ff376b9375d3dc419816a","426001.5","1368.6999999284744","88","1","swim","","","","",""
"dual-task","null","null","null","","swim","swim","974.8999999761581","","d","null","88","88","1","swim-dual-task","","d","lowercase","432000","0","4","f73bafe440a79a8465ff10d200ea426a80edaf2b4d4ff376b9375d3dc419816a","431999.2999999523","974.8999999761581","88","1","swim","","","","",""
"dual-task","null","null","null","","swim","swim","1291.7000000476837","","r","null","88","88","1","swim-dual-task","","r","lowercase","440000","0","4","f73bafe440a79a8465ff10d200ea426a80edaf2b4d4ff376b9375d3dc419816a","439999.60000002384","1291.7000000476837","88","1","swim","","","","",""
"dual-task","null","null","null","","swim","swim","1137.6000000238419","","A","null","77","77","1","swim-dual-task","","A","uppercase","448000","0","4","f73bafe440a79a8465ff10d200ea426a80edaf2b4d4ff376b9375d3dc419816a","448015.5","1137.6000000238419","77","1","swim","","","","",""
"dual-task","null","null","null","","swim","swim","1083.1000000238419","","d","null","88","88","1","swim-dual-task","","d","lowercase","458000","0","4","f73bafe440a79a8465ff10d200ea426a80edaf2b4d4ff376b9375d3dc419816a","458005.10000002384","1083.1000000238419","88","1","swim","","","","",""
"dual-task","null","null","null","","swim","swim","1484.4000000953674","","f","null","88","88","1","swim-dual-task","","f","lowercase","472000","0","4","f73bafe440a79a8465ff10d200ea426a80edaf2b4d4ff376b9375d3dc419816a","471998.6999999285","1484.4000000953674","88","1","swim","","","","",""
"dual-task","null","null","null","","swim","swim","1117.7999999523163","","g","null","88","88","1","swim-dual-task","","g","lowercase","484000","0","4","f73bafe440a79a8465ff10d200ea426a80edaf2b4d4ff376b9375d3dc419816a","483998.89999997616","1117.7999999523163","88","1","swim","","","","",""
"dual-task","null","null","null","","swim","swim","1288.1000000238419","","D","null","77","77","1","swim-dual-task","","D","uppercase","492000","0","4","f73bafe440a79a8465ff10d200ea426a80edaf2b4d4ff376b9375d3dc419816a","492000.2999999523","1288.1000000238419","77","1","swim","","","","",""
"dual-task","null","null","null","","swim","swim","1075.1999999284744","","g","null","88","88","1","swim-dual-task","","g","lowercase","502000","0","4","f73bafe440a79a8465ff10d200ea426a80edaf2b4d4ff376b9375d3dc419816a","502000.5","1075.1999999284744","88","1","swim","","","","",""
"dual-task","null","null","null","","swim","swim","1125.3999999761581","","N","null","77","77","1","swim-dual-task","","N","uppercase","514000","0","4","f73bafe440a79a8465ff10d200ea426a80edaf2b4d4ff376b9375d3dc419816a","513999.7999999523","1125.3999999761581","77","1","swim","","","","",""
"dual-task","null","null","null","","swim","swim","1295.1000000238419","","q","null","88","88","1","swim-dual-task","","q","lowercase","526000","0","4","f73bafe440a79a8465ff10d200ea426a80edaf2b4d4ff376b9375d3dc419816a","526001.7999999523","1295.1000000238419","88","1","swim","","","","",""
"dual-task","null","null","null","","swim","swim","1251.1000000238419","","Q","null","77","77","1","swim-dual-task","","Q","uppercase","538000","0","4","f73bafe440a79a8465ff10d200ea426a80edaf2b4d4ff376b9375d3dc419816a","537998.3999999762","1251.1000000238419","77","1","swim","","","","",""
"dual-task","null","null","null","","swim","swim","1043.5","","b","null","88","88","1","swim-dual-task","","b","lowercase","548000","0","4","f73bafe440a79a8465ff10d200ea426a80edaf2b4d4ff376b9375d3dc419816a","547997.7999999523","1043.5","88","1","swim","","","","",""
"dual-task","null","null","null","","swim","swim","873.3999999761581","","H","null","77","77","1","swim-dual-task","","H","uppercase","560000","0","4","f73bafe440a79a8465ff10d200ea426a80edaf2b4d4ff376b9375d3dc419816a","560000.3999999762","873.3999999761581","77","1","swim","","","","",""
"dual-task","null","null","null","","swim","swim","1277.1000000238419","","t","null","88","88","1","swim-dual-task","","t","lowercase","570000","0","4","f73bafe440a79a8465ff10d200ea426a80edaf2b4d4ff376b9375d3dc419816a","570001.3999999762","1277.1000000238419","88","1","swim","","","","",""
"dual-task","null","null","null","","swim","swim","1139.7999999523163","","R","null","77","77","1","swim-dual-task","","R","uppercase","576000","0","4","f73bafe440a79a8465ff10d200ea426a80edaf2b4d4ff376b9375d3dc419816a","576000.2999999523","1139.7999999523163","77","1","swim","","","","",""
"dual-task","null","null","null","","swim","swim","1333.8999999761581","","A","null","77","77","1","swim-dual-task","","A","uppercase","584000","0","4","f73bafe440a79a8465ff10d200ea426a80edaf2b4d4ff376b9375d3dc419816a","584000.1999999285","1333.8999999761581","77","1","swim","","","","",""
"dual-task","null","null","null","","swim","swim","1153.5","","Q","null","77","77","1","swim-dual-task","","Q","uppercase","596000","0","4","f73bafe440a79a8465ff10d200ea426a80edaf2b4d4ff376b9375d3dc419816a","595999.1999999285","1153.5","77","1","swim","","","","",""
"dual-task","null","null","null","","swim","swim","856","","B","null","77","77","1","swim-dual-task","","B","uppercase","608000","0","4","f73bafe440a79a8465ff10d200ea426a80edaf2b4d4ff376b9375d3dc419816a","608000.5","856","77","1","swim","","","","",""
"dual-task","null","null","null","","swim","swim","1100.5","","h","null","88","88","1","swim-dual-task","","h","lowercase","618000","0","4","f73bafe440a79a8465ff10d200ea426a80edaf2b4d4ff376b9375d3dc419816a","618001.1000000238","1100.5","88","1","swim","","","","",""
"dual-task","null","null","null","","swim","swim","1359.7000000476837","","D","null","77","77","1","swim-dual-task","","D","uppercase","626000","0","4","f73bafe440a79a8465ff10d200ea426a80edaf2b4d4ff376b9375d3dc419816a","626001.2999999523","1359.7000000476837","77","1","swim","","","","",""
"dual-task","null","null","null","","swim","swim","883.5","","T","null","77","77","1","swim-dual-task","","T","uppercase","638000","0","4","f73bafe440a79a8465ff10d200ea426a80edaf2b4d4ff376b9375d3dc419816a","638000.1000000238","883.5","77","1","swim","","","","",""
"dual-task","null","null","null","","swim","swim","1200.5999999046326","","n","null","88","88","1","swim-dual-task","","n","lowercase","644000","0","4","f73bafe440a79a8465ff10d200ea426a80edaf2b4d4ff376b9375d3dc419816a","644000.3999999762","1200.5999999046326","88","1","swim","","","","",""
"dual-task","null","null","null","","swim","swim","837.3999999761581","","H","null","77","77","1","swim-dual-task","","H","uppercase","658000","0","4","f73bafe440a79a8465ff10d200ea426a80edaf2b4d4ff376b9375d3dc419816a","658001.5","837.3999999761581","77","1","swim","","","","",""
"dual-task","null","null","null","","swim","swim","1016.6999999284744","","B","null","77","77","1","swim-dual-task","","B","uppercase","668000","0","4","f73bafe440a79a8465ff10d200ea426a80edaf2b4d4ff376b9375d3dc419816a","668000.5","1016.6999999284744","77","1","swim","","","","",""
"dual-task","null","null","null","","swim","swim","1343.8999999761581","","h","null","88","88","1","swim-dual-task","","h","lowercase","678000","0","4","f73bafe440a79a8465ff10d200ea426a80edaf2b4d4ff376b9375d3dc419816a","677999.2999999523","1343.8999999761581","88","1","swim","","","","",""
"dual-task","null","null","null","","swim","swim","1161.1999999284744","","r","null","88","88","1","swim-dual-task","","r","lowercase","686000","0","4","f73bafe440a79a8465ff10d200ea426a80edaf2b4d4ff376b9375d3dc419816a","685998.3999999762","1161.1999999284744","88","1","swim","","","","",""
"dual-task","null","null","null","","swim","swim","1039.3999999761581","","b","null","88","88","1","swim-dual-task","","b","lowercase","698000","0","4","f73bafe440a79a8465ff10d200ea426a80edaf2b4d4ff376b9375d3dc419816a","698001.2999999523","1039.3999999761581","88","1","swim","","","","",""
"dual-task","null","null","null","","swim","swim","1146.7999999523163","","a","null","88","88","1","swim-dual-task","","a","lowercase","706000","0","4","f73bafe440a79a8465ff10d200ea426a80edaf2b4d4ff376b9375d3dc419816a","706001.2999999523","1146.7999999523163","88","1","swim","","","","",""
"dual-task","null","null","null","","swim","swim","1042.6999999284744","","b","null","88","88","1","swim-dual-task","","b","lowercase","714000","0","4","f73bafe440a79a8465ff10d200ea426a80edaf2b4d4ff376b9375d3dc419816a","714001.5","1042.6999999284744","88","1","swim","","","","",""
"dual-task","null","null","null","","swim","swim","1165.9000000953674","","a","null","88","88","1","swim-dual-task","","a","lowercase","728000","0","4","f73bafe440a79a8465ff10d200ea426a80edaf2b4d4ff376b9375d3dc419816a","728000.6999999285","1165.9000000953674","88","1","swim","","","","",""
"dual-task","null","null","null","","swim","swim","1200.8999999761581","","G","null","77","77","1","swim-dual-task","","G","uppercase","738000","0","4","f73bafe440a79a8465ff10d200ea426a80edaf2b4d4ff376b9375d3dc419816a","738001.1000000238","1200.8999999761581","77","1","swim","","","","",""
"dual-task","null","null","null","","swim","swim","NA","","b","null","NA","88","0","swim-dual-task","","b","lowercase","750000","1","4","f73bafe440a79a8465ff10d200ea426a80edaf2b4d4ff376b9375d3dc419816a","750000.6999999285","NA","NA","0","swim","","","","",""
"dual-task","null","null","null","","swim","swim","1038","","G","null","77","77","1","swim-dual-task","","G","uppercase","758000","0","4","f73bafe440a79a8465ff10d200ea426a80edaf2b4d4ff376b9375d3dc419816a","758000.2999999523","1038","77","1","swim","","","","",""
"dual-task","null","null","null","","swim","swim","1346.1999999284744","","A","null","77","77","1","swim-dual-task","","A","uppercase","764000","0","4","f73bafe440a79a8465ff10d200ea426a80edaf2b4d4ff376b9375d3dc419816a","764000.5","1346.1999999284744","77","1","swim","","","","",""
"dual-task","null","null","null","","swim","swim","1285","","R","null","77","77","1","swim-dual-task","","R","uppercase","774000","0","4","f73bafe440a79a8465ff10d200ea426a80edaf2b4d4ff376b9375d3dc419816a","774000.6000000238","1285","77","1","swim","","","","",""
"dual-task","null","null","null","","swim","swim","810.2000000476837","","d","null","88","88","1","swim-dual-task","","d","lowercase","780000","0","4","f73bafe440a79a8465ff10d200ea426a80edaf2b4d4ff376b9375d3dc419816a","779999.1000000238","810.2000000476837","88","1","swim","","","","",""
"dual-task","null","null","null","","swim","swim","1197.6999999284744","","B","null","77","77","1","swim-dual-task","","B","uppercase","786000","0","4","f73bafe440a79a8465ff10d200ea426a80edaf2b4d4ff376b9375d3dc419816a","786001.5","1197.6999999284744","77","1","swim","","","","",""
"dual-task","null","null","null","","swim","swim","932.8000000715256","","t","null","88","88","1","swim-dual-task","","t","lowercase","796000","0","4","f73bafe440a79a8465ff10d200ea426a80edaf2b4d4ff376b9375d3dc419816a","796000.6000000238","932.8000000715256","88","1","swim","","","","",""
"audio-keyboard-response","29","1418813","0.0-7.0-0.0-1.0","f73bafe440a79a8465ff10d200ea426a80edaf2b4d4ff376b9375d3dc419816a","swim","swim","null","","audio/story_swim_scrambled.mp3","","null","","","","","","","","","","","","","","","","","","","",""
"html-button-response","30","1421242","0.0-7.0-0.0-2.0","f73bafe440a79a8465ff10d200ea426a80edaf2b4d4ff376b9375d3dc419816a","swim","swim","2422","","<p>This concludes the story. Thank you for listening.</p><p>You will now answer some questions about the content of the story.</p>","0","","","","","","","","","","","","","","","","","","","","",""
"survey-multi-choice","31","1430369","0.0-7.0-0.0-3.0-0.0","f73bafe440a79a8465ff10d200ea426a80edaf2b4d4ff376b9375d3dc419816a","swim","swim","9084","","<b>How often does the narrator swim, now that he is a good swimmer?</b>","","","","0","swim-comprehension","","","","","","","","","","","","","{""Q0"":""Every weekend with his kids""}","","","",""
"survey-multi-choice","32","1438176","0.0-7.0-0.0-3.0-0.1","f73bafe440a79a8465ff10d200ea426a80edaf2b4d4ff376b9375d3dc419816a","swim","swim","7541","","<b>How many astronaut candidates passed the first swim test?</b>","","","","1","swim-comprehension","","","","","","","","","","","","","{""Q0"":""All of them""}","","","",""
"survey-multi-choice","33","1445349","0.0-7.0-0.0-3.0-0.2","f73bafe440a79a8465ff10d200ea426a80edaf2b4d4ff376b9375d3dc419816a","swim","swim","6905","","<b>How many times did the astronaut candidates have to complete the final exercise to pass?</b>","","","","1","swim-comprehension","","","","","","","","","","","","","{""Q0"":""Two""}","","","",""
"survey-multi-choice","34","1450193","0.0-7.0-0.0-3.0-0.3","f73bafe440a79a8465ff10d200ea426a80edaf2b4d4ff376b9375d3dc419816a","swim","swim","4580","","<b>Where is the home of naval aviation?</b>","","","","1","swim-comprehension","","","","","","","","","","","","","{""Q0"":""Pensacola""}","","","",""
"survey-multi-choice","35","1455255","0.0-7.0-0.0-3.0-0.4","f73bafe440a79a8465ff10d200ea426a80edaf2b4d4ff376b9375d3dc419816a","swim","swim","4803","","<b>What is the narrator afraid of, aside from the water?</b>","","","","1","swim-comprehension","","","","","","","","","","","","","{""Q0"":""Heights""}","","","",""
"survey-multi-choice","36","1460398","0.0-7.0-0.0-3.0-0.5","f73bafe440a79a8465ff10d200ea426a80edaf2b4d4ff376b9375d3dc419816a","swim","swim","4880","","<b>What was the final step of the first swim test in the pool?</b>","","","","1","swim-comprehension","","","","","","","","","","","","","{""Q0"":""Tread water with hands above the water""}","","","",""
"survey-multi-choice","37","1472162","0.0-7.0-0.0-3.0-0.6","f73bafe440a79a8465ff10d200ea426a80edaf2b4d4ff376b9375d3dc419816a","swim","swim","11510","","<b>What gave the narrator his greatest feeling of accomplishment?</b>","","","","1","swim-comprehension","","","","","","","","","","","","","{""Q0"":""Passing the water survival course""}","","","",""
"survey-multi-choice","38","1482844","0.0-7.0-0.0-3.0-0.7","f73bafe440a79a8465ff10d200ea426a80edaf2b4d4ff376b9375d3dc419816a","swim","swim","10415","","<b>What were the astronaut candidates trained to do at the naval air station?</b>","","","","1","swim-comprehension","","","","","","","","","","","","","{""Q0"":""Eject out of aircraft and survive in water long enough to be rescued""}","","","",""
"survey-multi-choice","39","1497703","0.0-7.0-0.0-3.0-0.8","f73bafe440a79a8465ff10d200ea426a80edaf2b4d4ff376b9375d3dc419816a","swim","swim","14603","","<b>How did the narrator train for his swim test?</b>","","","","0","swim-comprehension","","","","","","","","","","","","","{""Q0"":""Signed up for a swim class""}","","","",""
"survey-multi-choice","40","1505895","0.0-7.0-0.0-3.0-0.9","f73bafe440a79a8465ff10d200ea426a80edaf2b4d4ff376b9375d3dc419816a","swim","swim","7937","","<b>How many astronaut candidates reported for duty at the Johnson Space Center?</b>","","","","1","swim-comprehension","","","","","","","","","","","","","{""Q0"":""Forty-four""}","","","",""
"html-button-response","41","1508412","0.0-7.0-0.0-4.0","f73bafe440a79a8465ff10d200ea426a80edaf2b4d4ff376b9375d3dc419816a","swim","swim","2259","","<p>Thank you for your responses.</p><p>You will now answer some questions about your impressions of the story.</p>","0","","","","","","","","","","","","","","","","","","","","",""
"html-button-response","42","1512827","0.0-7.0-0.0-5.0-0.0","f73bafe440a79a8465ff10d200ea426a80edaf2b4d4ff376b9375d3dc419816a","swim","swim","4412","","MS3","6","","","","swim-engagement","","","","","","","","","","","","","","7","mental-sim","",""
"html-button-response","43","1514453","0.0-7.0-0.0-5.0-0.1","f73bafe440a79a8465ff10d200ea426a80edaf2b4d4ff376b9375d3dc419816a","swim","swim","1373","","EE4","6","","","","swim-engagement","","","","","","","","","","","","","","7","emo-engage","",""
"html-button-response","44","1516458","0.0-7.0-0.0-5.0-0.2","f73bafe440a79a8465ff10d200ea426a80edaf2b4d4ff376b9375d3dc419816a","swim","swim","1749","","MS1","6","","","","swim-engagement","","","","","","","","","","","","","","7","mental-sim","",""
"html-button-response","45","1517806","0.0-7.0-0.0-5.0-0.3","f73bafe440a79a8465ff10d200ea426a80edaf2b4d4ff376b9375d3dc419816a","swim","swim","1092","","E8","6","","","","swim-engagement","","","","","","","","","","","","","","7","enjoyment","",""
"html-button-response","46","1521339","0.0-7.0-0.0-5.0-0.4","f73bafe440a79a8465ff10d200ea426a80edaf2b4d4ff376b9375d3dc419816a","swim","swim","3278","","EE1","5","","","","swim-engagement","","","","","","","","","","","","","","6","emo-engage","",""
"html-button-response","47","1522886","0.0-7.0-0.0-5.0-0.5","f73bafe440a79a8465ff10d200ea426a80edaf2b4d4ff376b9375d3dc419816a","swim","swim","1291","","EE3","5","","","","swim-engagement","","","","","","","","","","","","","","6","emo-engage","",""
"html-button-response","48","1526994","0.0-7.0-0.0-5.0-0.6","f73bafe440a79a8465ff10d200ea426a80edaf2b4d4ff376b9375d3dc419816a","swim","swim","3854","","E6","4","","","","swim-engagement","","","","","","","","","","","","","","5","enjoyment","",""
"html-button-response","49","1530019","0.0-7.0-0.0-5.0-0.7","f73bafe440a79a8465ff10d200ea426a80edaf2b4d4ff376b9375d3dc419816a","swim","swim","2771","","A1","5","","","","swim-engagement","","","","","","","","","","","","","","6","absorption","",""
"html-button-response","50","1533401","0.0-7.0-0.0-5.0-0.8","f73bafe440a79a8465ff10d200ea426a80edaf2b4d4ff376b9375d3dc419816a","swim","swim","3129","","A5","1","","","","swim-engagement","","","","","","","","","","","","","","2","absorption","",""
"html-button-response","51","1535989","0.0-7.0-0.0-5.0-0.9","f73bafe440a79a8465ff10d200ea426a80edaf2b4d4ff376b9375d3dc419816a","swim","swim","2336","","A2","6","","","","swim-engagement","","","","","","","","","","","","","","7","absorption","",""
"html-button-response","52","1537531","0.0-7.0-0.0-5.0-0.10","f73bafe440a79a8465ff10d200ea426a80edaf2b4d4ff376b9375d3dc419816a","swim","swim","1286","","A3","5","","","","swim-engagement","","","","","","","","","","","","","","6","absorption","",""
"html-button-response","53","1539057","0.0-7.0-0.0-5.0-0.11","f73bafe440a79a8465ff10d200ea426a80edaf2b4d4ff376b9375d3dc419816a","swim","swim","1270","","EE5","5","","","","swim-engagement","","","","","","","","","","","","","","6","emo-engage","",""
"html-button-response","54","1540580","0.0-7.0-0.0-5.0-0.12","f73bafe440a79a8465ff10d200ea426a80edaf2b4d4ff376b9375d3dc419816a","swim","swim","1267","","E10","5","","","","swim-engagement","","","","","","","","","","","","","","6","enjoyment","",""
"html-button-response","55","1541903","0.0-7.0-0.0-5.0-0.13","f73bafe440a79a8465ff10d200ea426a80edaf2b4d4ff376b9375d3dc419816a","swim","swim","1069","","E1","5","","","","swim-engagement","","","","","","","","","","","","","","6","enjoyment","",""
"html-button-response","56","1545442","0.0-7.0-0.0-5.0-0.14","f73bafe440a79a8465ff10d200ea426a80edaf2b4d4ff376b9375d3dc419816a","swim","swim","3281","","MS2","6","","","","swim-engagement","","","","","","","","","","","","","","7","mental-sim","",""
"html-button-response","57","1546815","0.0-7.0-0.0-5.0-0.15","f73bafe440a79a8465ff10d200ea426a80edaf2b4d4ff376b9375d3dc419816a","swim","swim","1119","","E7","6","","","","swim-engagement","","","","","","","","","","","","","","7","enjoyment","",""
"html-button-response","58","1551554","0.0-7.0-0.0-5.0-0.16","f73bafe440a79a8465ff10d200ea426a80edaf2b4d4ff376b9375d3dc419816a","swim","swim","4487","","A4","2","","","","swim-engagement","","","","","","","","","","","","","","3","absorption","",""
"html-button-response","59","1553918","0.0-7.0-0.0-5.0-0.17","f73bafe440a79a8465ff10d200ea426a80edaf2b4d4ff376b9375d3dc419816a","swim","swim","2109","","EE2","2","","","","swim-engagement","","","","","","","","","","","","","","3","emo-engage","",""
"html-keyboard-response","60","1561280","0.0-7.0-1.0","f73bafe440a79a8465ff10d200ea426a80edaf2b4d4ff376b9375d3dc419816a","swim","swim","7107","","<p>Thank you for your responses. You will now listen to the second story.</p><p>Remember, as you listen to the story you will see letters appear on the screen.</br>As quickly as possible, press <b>&lt;x&gt;</b> if the letter is lowercase and <b>&lt;m&gt;</b> if the letter is uppercase.</p><p>Press <b>&lt;x&gt;</b> or <b>&lt;m&gt;</b> to begin listening!</p>","","88","","","","","","","","","","","","","","","","","","","",""
"html-keyboard-response","61","1561783","0.0-7.0-2.0-0.0","f73bafe440a79a8465ff10d200ea426a80edaf2b4d4ff376b9375d3dc419816a","swim","swim","null","","<div style=""font-size:60px;"" tabindex=""0"">+</div>","","null","","","","","","","","","","","","","","","","","","","",""
"dual-task","null","null","null","","swim","swim","1163","","f","null","88","88","1","arctic-dual-task","","f","lowercase","16000","0","4","f73bafe440a79a8465ff10d200ea426a80edaf2b4d4ff376b9375d3dc419816a","16002.399999976158","1163","88","1","arctic","","","","",""
"dual-task","null","null","null","","swim","swim","1579.5999999046326","","N","null","77","77","1","arctic-dual-task","","N","uppercase","22000","0","4","f73bafe440a79a8465ff10d200ea426a80edaf2b4d4ff376b9375d3dc419816a","22000.399999976158","1579.5999999046326","77","1","arctic","","","","",""
"dual-task","null","null","null","","swim","swim","918.4000000953674","","a","null","88","88","1","arctic-dual-task","","a","lowercase","30000","0","4","f73bafe440a79a8465ff10d200ea426a80edaf2b4d4ff376b9375d3dc419816a","30002.599999904633","918.4000000953674","88","1","arctic","","","","",""
"dual-task","null","null","null","","swim","swim","1349.3999999761581","","b","null","88","88","1","arctic-dual-task","","b","lowercase","40000","0","4","f73bafe440a79a8465ff10d200ea426a80edaf2b4d4ff376b9375d3dc419816a","39999.299999952316","1349.3999999761581","88","1","arctic","","","","",""
"dual-task","null","null","null","","swim","swim","1083.2999999523163","","A","null","77","77","1","arctic-dual-task","","A","uppercase","52000","0","4","f73bafe440a79a8465ff10d200ea426a80edaf2b4d4ff376b9375d3dc419816a","52003.09999990463","1083.2999999523163","77","1","arctic","","","","",""
"dual-task","null","null","null","","swim","swim","1086.8999999761581","","n","null","88","88","1","arctic-dual-task","","n","lowercase","60000","0","4","f73bafe440a79a8465ff10d200ea426a80edaf2b4d4ff376b9375d3dc419816a","60003.299999952316","1086.8999999761581","88","1","arctic","","","","",""
"dual-task","null","null","null","","swim","swim","1019.5","","N","null","77","77","1","arctic-dual-task","","N","uppercase","66000","0","4","f73bafe440a79a8465ff10d200ea426a80edaf2b4d4ff376b9375d3dc419816a","66001.39999997616","1019.5","77","1","arctic","","","","",""
"dual-task","null","null","null","","swim","swim","1052.2999999523163","","F","null","77","77","1","arctic-dual-task","","F","uppercase","74000","0","4","f73bafe440a79a8465ff10d200ea426a80edaf2b4d4ff376b9375d3dc419816a","74003.69999992847","1052.2999999523163","77","1","arctic","","","","",""
"dual-task","null","null","null","","swim","swim","1326.3000000715256","","e","null","88","88","1","arctic-dual-task","","e","lowercase","80000","0","4","f73bafe440a79a8465ff10d200ea426a80edaf2b4d4ff376b9375d3dc419816a","80000.29999995232","1326.3000000715256","88","1","arctic","","","","",""
"dual-task","null","null","null","","swim","swim","963.3000000715256","","D","null","77","77","1","arctic-dual-task","","D","uppercase","94000","0","4","f73bafe440a79a8465ff10d200ea426a80edaf2b4d4ff376b9375d3dc419816a","94003.59999990463","963.3000000715256","77","1","arctic","","","","",""
"dual-task","null","null","null","","swim","swim","905.6000000238419","","H","null","77","77","1","arctic-dual-task","","H","uppercase","106000","0","4","f73bafe440a79a8465ff10d200ea426a80edaf2b4d4ff376b9375d3dc419816a","106001.59999990463","905.6000000238419","77","1","arctic","","","","",""
"dual-task","null","null","null","","swim","swim","1085.6999999284744","","A","null","77","77","1","arctic-dual-task","","A","uppercase","118000","0","4","f73bafe440a79a8465ff10d200ea426a80edaf2b4d4ff376b9375d3dc419816a","118000.29999995232","1085.6999999284744","77","1","arctic","","","","",""
"dual-task","null","null","null","","swim","swim","1044.3999999761581","","t","null","88","88","1","arctic-dual-task","","t","lowercase","130000","0","4","f73bafe440a79a8465ff10d200ea426a80edaf2b4d4ff376b9375d3dc419816a","130000.69999992847","1044.3999999761581","88","1","arctic","","","","",""
"dual-task","null","null","null","","swim","swim","1670.0999999046326","","F","null","77","77","1","arctic-dual-task","","F","uppercase","142000","0","4","f73bafe440a79a8465ff10d200ea426a80edaf2b4d4ff376b9375d3dc419816a","141999.39999997616","1670.0999999046326","77","1","arctic","","","","",""
"dual-task","null","null","null","","swim","swim","1062.3999999761581","","N","null","77","77","1","arctic-dual-task","","N","uppercase","156000","0","4","f73bafe440a79a8465ff10d200ea426a80edaf2b4d4ff376b9375d3dc419816a","155999.89999997616","1062.3999999761581","77","1","arctic","","","","",""
"dual-task","null","null","null","","swim","swim","1184.1000000238419","","e","null","88","88","1","arctic-dual-task","","e","lowercase","162000","0","4","f73bafe440a79a8465ff10d200ea426a80edaf2b4d4ff376b9375d3dc419816a","162000.79999995232","1184.1000000238419","88","1","arctic","","","","",""
"dual-task","null","null","null","","swim","swim","958.1000000238419","","n","null","88","88","1","arctic-dual-task","","n","lowercase","176000","0","4","f73bafe440a79a8465ff10d200ea426a80edaf2b4d4ff376b9375d3dc419816a","175999.5","958.1000000238419","88","1","arctic","","","","",""
"dual-task","null","null","null","","swim","swim","1276.2000000476837","","R","null","77","77","1","arctic-dual-task","","R","uppercase","184000","0","4","f73bafe440a79a8465ff10d200ea426a80edaf2b4d4ff376b9375d3dc419816a","184003.59999990463","1276.2000000476837","77","1","arctic","","","","",""
"dual-task","null","null","null","","swim","swim","1052.6999999284744","","f","null","88","88","1","arctic-dual-task","","f","lowercase","192000","0","4","f73bafe440a79a8465ff10d200ea426a80edaf2b4d4ff376b9375d3dc419816a","192002.39999997616","1052.6999999284744","88","1","arctic","","","","",""
"dual-task","null","null","null","","swim","swim","1165.5","","r","null","88","88","1","arctic-dual-task","","r","lowercase","206000","0","4","f73bafe440a79a8465ff10d200ea426a80edaf2b4d4ff376b9375d3dc419816a","206003.89999997616","1165.5","88","1","arctic","","","","",""
"dual-task","null","null","null","","swim","swim","1190.3000000715256","","t","null","88","88","1","arctic-dual-task","","t","lowercase","216000","0","4","f73bafe440a79a8465ff10d200ea426a80edaf2b4d4ff376b9375d3dc419816a","216002.5","1190.3000000715256","88","1","arctic","","","","",""
"dual-task","null","null","null","","swim","swim","1292.1999999284744","","n","null","88","88","1","arctic-dual-task","","n","lowercase","226000","0","4","f73bafe440a79a8465ff10d200ea426a80edaf2b4d4ff376b9375d3dc419816a","225999.79999995232","1292.1999999284744","88","1","arctic","","","","",""
"dual-task","null","null","null","","swim","swim","1418.6999999284744","","T","null","77","77","1","arctic-dual-task","","T","uppercase","238000","0","4","f73bafe440a79a8465ff10d200ea426a80edaf2b4d4ff376b9375d3dc419816a","238002.19999992847","1418.6999999284744","77","1","arctic","","","","",""
"dual-task","null","null","null","","swim","swim","1595.4000000953674","","h","null","88","88","1","arctic-dual-task","","h","lowercase","252000","0","4","f73bafe440a79a8465ff10d200ea426a80edaf2b4d4ff376b9375d3dc419816a","251999.5","1595.4000000953674","88","1","arctic","","","","",""
"dual-task","null","null","null","","swim","swim","1365","","d","null","88","88","1","arctic-dual-task","","d","lowercase","262000","0","4","f73bafe440a79a8465ff10d200ea426a80edaf2b4d4ff376b9375d3dc419816a","262001.79999995232","1365","88","1","arctic","","","","",""
"dual-task","null","null","null","","swim","swim","1266.5","","q","null","88","88","1","arctic-dual-task","","q","lowercase","272000","0","4","f73bafe440a79a8465ff10d200ea426a80edaf2b4d4ff376b9375d3dc419816a","272002.1999999285","1266.5","88","1","arctic","","","","",""
"dual-task","null","null","null","","swim","swim","1137.6000000238419","","b","null","88","88","1","arctic-dual-task","","b","lowercase","280000","0","4","f73bafe440a79a8465ff10d200ea426a80edaf2b4d4ff376b9375d3dc419816a","280000.1999999285","1137.6000000238419","88","1","arctic","","","","",""
"dual-task","null","null","null","","swim","swim","1114.3999999761581","","a","null","88","88","1","arctic-dual-task","","a","lowercase","288000","0","4","f73bafe440a79a8465ff10d200ea426a80edaf2b4d4ff376b9375d3dc419816a","288000","1114.3999999761581","88","1","arctic","","","","",""
"dual-task","null","null","null","","swim","swim","1174.7999999523163","","R","null","77","77","1","arctic-dual-task","","R","uppercase","294000","0","4","f73bafe440a79a8465ff10d200ea426a80edaf2b4d4ff376b9375d3dc419816a","294000.39999997616","1174.7999999523163","77","1","arctic","","","","",""
"dual-task","null","null","null","","swim","swim","1086.7000000476837","","H","null","77","77","1","arctic-dual-task","","H","uppercase","302000","0","4","f73bafe440a79a8465ff10d200ea426a80edaf2b4d4ff376b9375d3dc419816a","302003.5","1086.7000000476837","77","1","arctic","","","","",""
"dual-task","null","null","null","","swim","swim","1299.5","","e","null","88","88","1","arctic-dual-task","","e","lowercase","308000","0","4","f73bafe440a79a8465ff10d200ea426a80edaf2b4d4ff376b9375d3dc419816a","308003.89999997616","1299.5","88","1","arctic","","","","",""
"dual-task","null","null","null","","swim","swim","1080.6000000238419","","F","null","77","77","1","arctic-dual-task","","F","uppercase","318000","0","4","f73bafe440a79a8465ff10d200ea426a80edaf2b4d4ff376b9375d3dc419816a","318004.2999999523","1080.6000000238419","77","1","arctic","","","","",""
"dual-task","null","null","null","","swim","swim","854.3999999761581","","T","null","77","77","1","arctic-dual-task","","T","uppercase","324000","0","4","f73bafe440a79a8465ff10d200ea426a80edaf2b4d4ff376b9375d3dc419816a","324002.09999990463","854.3999999761581","77","1","arctic","","","","",""
"dual-task","null","null","null","","swim","swim","968.7000000476837","","T","null","77","77","1","arctic-dual-task","","T","uppercase","330000","0","4","f73bafe440a79a8465ff10d200ea426a80edaf2b4d4ff376b9375d3dc419816a","330000","968.7000000476837","77","1","arctic","","","","",""
"dual-task","null","null","null","","swim","swim","1136.8000000715256","","A","null","77","77","1","arctic-dual-task","","A","uppercase","338000","0","4","f73bafe440a79a8465ff10d200ea426a80edaf2b4d4ff376b9375d3dc419816a","338000","1136.8000000715256","77","1","arctic","","","","",""
"dual-task","null","null","null","","swim","swim","1075.8000000715256","","E","null","77","77","1","arctic-dual-task","","E","uppercase","348000","0","4","f73bafe440a79a8465ff10d200ea426a80edaf2b4d4ff376b9375d3dc419816a","348000.59999990463","1075.8000000715256","77","1","arctic","","","","",""
"dual-task","null","null","null","","swim","swim","NA","","G","null","NA","77","0","arctic-dual-task","","G","uppercase","362000","1","4","f73bafe440a79a8465ff10d200ea426a80edaf2b4d4ff376b9375d3dc419816a","361999.59999990463","NA","NA","0","arctic","","","","",""
"dual-task","null","null","null","","swim","swim","1122.3999999761581","","f","null","88","88","1","arctic-dual-task","","f","lowercase","374000","0","4","f73bafe440a79a8465ff10d200ea426a80edaf2b4d4ff376b9375d3dc419816a","373999.89999997616","1122.3999999761581","88","1","arctic","","","","",""
"dual-task","null","null","null","","swim","swim","1465.8999999761581","","D","null","77","77","1","arctic-dual-task","","D","uppercase","384000","0","4","f73bafe440a79a8465ff10d200ea426a80edaf2b4d4ff376b9375d3dc419816a","383999.5","1465.8999999761581","77","1","arctic","","","","",""
"dual-task","null","null","null","","swim","swim","1714.3999999761581","","H","null","77","77","1","arctic-dual-task","","H","uppercase","390000","0","4","f73bafe440a79a8465ff10d200ea426a80edaf2b4d4ff376b9375d3dc419816a","390000.6999999285","1714.3999999761581","77","1","arctic","","","","",""
"dual-task","null","null","null","","swim","swim","1205.1000000238419","","F","null","77","77","1","arctic-dual-task","","F","uppercase","402000","0","4","f73bafe440a79a8465ff10d200ea426a80edaf2b4d4ff376b9375d3dc419816a","402000.5","1205.1000000238419","77","1","arctic","","","","",""
"dual-task","null","null","null","","swim","swim","1069","","d","null","88","88","1","arctic-dual-task","","d","lowercase","410000","0","4","f73bafe440a79a8465ff10d200ea426a80edaf2b4d4ff376b9375d3dc419816a","410005.09999990463","1069","88","1","arctic","","","","",""
"dual-task","null","null","null","","swim","swim","964.6000000238419","","b","null","88","88","1","arctic-dual-task","","b","lowercase","416000","0","4","f73bafe440a79a8465ff10d200ea426a80edaf2b4d4ff376b9375d3dc419816a","416004","964.6000000238419","88","1","arctic","","","","",""
"dual-task","null","null","null","","swim","swim","907.0999999046326","","g","null","88","88","1","arctic-dual-task","","g","lowercase","426000","0","4","f73bafe440a79a8465ff10d200ea426a80edaf2b4d4ff376b9375d3dc419816a","426002.89999997616","907.0999999046326","88","1","arctic","","","","",""
"dual-task","null","null","null","","swim","swim","1076.2000000476837","","e","null","88","88","1","arctic-dual-task","","e","lowercase","434000","0","4","f73bafe440a79a8465ff10d200ea426a80edaf2b4d4ff376b9375d3dc419816a","434003.1999999285","1076.2000000476837","88","1","arctic","","","","",""
"dual-task","null","null","null","","swim","swim","1229.6000000238419","","g","null","88","88","1","arctic-dual-task","","g","lowercase","444000","0","4","f73bafe440a79a8465ff10d200ea426a80edaf2b4d4ff376b9375d3dc419816a","444002.7999999523","1229.6000000238419","88","1","arctic","","","","",""
"dual-task","null","null","null","","swim","swim","895.9000000953674","","q","null","88","88","1","arctic-dual-task","","q","lowercase","458000","0","4","f73bafe440a79a8465ff10d200ea426a80edaf2b4d4ff376b9375d3dc419816a","458002.5","895.9000000953674","88","1","arctic","","","","",""
"dual-task","null","null","null","","swim","swim","1944.3999999761581","","A","null","77","77","1","arctic-dual-task","","A","uppercase","466000","0","4","f73bafe440a79a8465ff10d200ea426a80edaf2b4d4ff376b9375d3dc419816a","466003","1944.3999999761581","77","1","arctic","","","","",""
"dual-task","null","null","null","","swim","swim","1003.3000000715256","","Q","null","77","77","1","arctic-dual-task","","Q","uppercase","478000","0","4","f73bafe440a79a8465ff10d200ea426a80edaf2b4d4ff376b9375d3dc419816a","478002.59999990463","1003.3000000715256","77","1","arctic","","","","",""
"dual-task","null","null","null","","swim","swim","1068.6999999284744","","f","null","88","88","1","arctic-dual-task","","f","lowercase","492000","0","4","f73bafe440a79a8465ff10d200ea426a80edaf2b4d4ff376b9375d3dc419816a","492003.7999999523","1068.6999999284744","88","1","arctic","","","","",""
"dual-task","null","null","null","","swim","swim","1332.7000000476837","","Q","null","77","77","1","arctic-dual-task","","Q","uppercase","506000","0","4","f73bafe440a79a8465ff10d200ea426a80edaf2b4d4ff376b9375d3dc419816a","506003.2999999523","1332.7000000476837","77","1","arctic","","","","",""
"dual-task","null","null","null","","swim","swim","1224","","R","null","77","77","1","arctic-dual-task","","R","uppercase","520000","0","4","f73bafe440a79a8465ff10d200ea426a80edaf2b4d4ff376b9375d3dc419816a","520002.6999999285","1224","77","1","arctic","","","","",""
"dual-task","null","null","null","","swim","swim","1354.8000000715256","","r","null","88","88","1","arctic-dual-task","","r","lowercase","532000","0","4","f73bafe440a79a8465ff10d200ea426a80edaf2b4d4ff376b9375d3dc419816a","532003","1354.8000000715256","88","1","arctic","","","","",""
"dual-task","null","null","null","","swim","swim","1283.6000000238419","","G","null","77","77","1","arctic-dual-task","","G","uppercase","544000","0","4","f73bafe440a79a8465ff10d200ea426a80edaf2b4d4ff376b9375d3dc419816a","544002.7999999523","1283.6000000238419","77","1","arctic","","","","",""
"dual-task","null","null","null","","swim","swim","1130.8999999761581","","h","null","88","88","1","arctic-dual-task","","h","lowercase","550000","0","4","f73bafe440a79a8465ff10d200ea426a80edaf2b4d4ff376b9375d3dc419816a","550002.6999999285","1130.8999999761581","88","1","arctic","","","","",""
"dual-task","null","null","null","","swim","swim","1250.1000000238419","","q","null","88","88","1","arctic-dual-task","","q","lowercase","558000","0","4","f73bafe440a79a8465ff10d200ea426a80edaf2b4d4ff376b9375d3dc419816a","558003","1250.1000000238419","88","1","arctic","","","","",""
"dual-task","null","null","null","","swim","swim","1175","","d","null","88","88","1","arctic-dual-task","","d","lowercase","566000","0","4","f73bafe440a79a8465ff10d200ea426a80edaf2b4d4ff376b9375d3dc419816a","566003.0999999046","1175","88","1","arctic","","","","",""
"dual-task","null","null","null","","swim","swim","1275.5999999046326","","Q","null","77","77","1","arctic-dual-task","","Q","uppercase","580000","0","4","f73bafe440a79a8465ff10d200ea426a80edaf2b4d4ff376b9375d3dc419816a","580007.7999999523","1275.5999999046326","77","1","arctic","","","","",""
"dual-task","null","null","null","","swim","swim","1310.1000000238419","","B","null","77","77","1","arctic-dual-task","","B","uppercase","588000","0","4","f73bafe440a79a8465ff10d200ea426a80edaf2b4d4ff376b9375d3dc419816a","588002.5999999046","1310.1000000238419","77","1","arctic","","","","",""
"dual-task","null","null","null","","swim","swim","1218.6000000238419","","E","null","77","77","1","arctic-dual-task","","E","uppercase","598000","0","4","f73bafe440a79a8465ff10d200ea426a80edaf2b4d4ff376b9375d3dc419816a","598003","1218.6000000238419","77","1","arctic","","","","",""
"dual-task","null","null","null","","swim","swim","1234.2999999523163","","h","null","88","88","1","arctic-dual-task","","h","lowercase","606000","0","4","f73bafe440a79a8465ff10d200ea426a80edaf2b4d4ff376b9375d3dc419816a","606003.0999999046","1234.2999999523163","88","1","arctic","","","","",""
"dual-task","null","null","null","","swim","swim","1512.5","","E","null","77","77","1","arctic-dual-task","","E","uppercase","616000","0","4","f73bafe440a79a8465ff10d200ea426a80edaf2b4d4ff376b9375d3dc419816a","616005.1999999285","1512.5","77","1","arctic","","","","",""
"dual-task","null","null","null","","swim","swim","1118.8999999761581","","q","null","88","88","1","arctic-dual-task","","q","lowercase","630000","0","4","f73bafe440a79a8465ff10d200ea426a80edaf2b4d4ff376b9375d3dc419816a","630003.0999999046","1118.8999999761581","88","1","arctic","","","","",""
"dual-task","null","null","null","","swim","swim","1479.7999999523163","","b","null","88","88","1","arctic-dual-task","","b","lowercase","640000","0","4","f73bafe440a79a8465ff10d200ea426a80edaf2b4d4ff376b9375d3dc419816a","640002.6999999285","1479.7999999523163","88","1","arctic","","","","",""
"dual-task","null","null","null","","swim","swim","1164.1999999284744","","G","null","77","77","1","arctic-dual-task","","G","uppercase","652000","0","4","f73bafe440a79a8465ff10d200ea426a80edaf2b4d4ff376b9375d3dc419816a","652002.6999999285","1164.1999999284744","77","1","arctic","","","","",""
"dual-task","null","null","null","","swim","swim","1317.7000000476837","","h","null","88","88","1","arctic-dual-task","","h","lowercase","666000","0","4","f73bafe440a79a8465ff10d200ea426a80edaf2b4d4ff376b9375d3dc419816a","666001.1999999285","1317.7000000476837","88","1","arctic","","","","",""
"dual-task","null","null","null","","swim","swim","1313","","G","null","77","77","1","arctic-dual-task","","G","uppercase","676000","0","4","f73bafe440a79a8465ff10d200ea426a80edaf2b4d4ff376b9375d3dc419816a","676003.3999999762","1313","77","1","arctic","","","","",""
"dual-task","null","null","null","","swim","swim","1483.3999999761581","","a","null","88","88","1","arctic-dual-task","","a","lowercase","684000","0","4","f73bafe440a79a8465ff10d200ea426a80edaf2b4d4ff376b9375d3dc419816a","684002.5","1483.3999999761581","88","1","arctic","","","","",""
"dual-task","null","null","null","","swim","swim","1118.8000000715256","","D","null","77","77","1","arctic-dual-task","","D","uppercase","694000","0","4","f73bafe440a79a8465ff10d200ea426a80edaf2b4d4ff376b9375d3dc419816a","694002.5999999046","1118.8000000715256","77","1","arctic","","","","",""
"dual-task","null","null","null","","swim","swim","1090.9000000953674","","B","null","77","77","1","arctic-dual-task","","B","uppercase","706000","0","4","f73bafe440a79a8465ff10d200ea426a80edaf2b4d4ff376b9375d3dc419816a","706005","1090.9000000953674","77","1","arctic","","","","",""
"dual-task","null","null","null","","swim","swim","1053.0999999046326","","N","null","77","77","1","arctic-dual-task","","N","uppercase","714000","0","4","f73bafe440a79a8465ff10d200ea426a80edaf2b4d4ff376b9375d3dc419816a","714002.3999999762","1053.0999999046326","77","1","arctic","","","","",""
"dual-task","null","null","null","","swim","swim","1616.2000000476837","","T","null","77","77","1","arctic-dual-task","","T","uppercase","728000","0","4","f73bafe440a79a8465ff10d200ea426a80edaf2b4d4ff376b9375d3dc419816a","728002.5999999046","1616.2000000476837","77","1","arctic","","","","",""
"dual-task","null","null","null","","swim","swim","1271.2999999523163","","n","null","88","88","1","arctic-dual-task","","n","lowercase","742000","0","4","f73bafe440a79a8465ff10d200ea426a80edaf2b4d4ff376b9375d3dc419816a","742002.7999999523","1271.2999999523163","88","1","arctic","","","","",""
"dual-task","null","null","null","","swim","swim","1201.5","","r","null","88","88","1","arctic-dual-task","","r","lowercase","756000","0","4","f73bafe440a79a8465ff10d200ea426a80edaf2b4d4ff376b9375d3dc419816a","756004.5","1201.5","88","1","arctic","","","","",""
"dual-task","null","null","null","","swim","swim","NA","","a","null","NA","88","0","arctic-dual-task","","a","lowercase","762000","1","4","f73bafe440a79a8465ff10d200ea426a80edaf2b4d4ff376b9375d3dc419816a","762004.5","NA","NA","0","arctic","","","","",""
"dual-task","null","null","null","","swim","swim","1543.1000000238419","","E","null","77","77","1","arctic-dual-task","","E","uppercase","770000","0","4","f73bafe440a79a8465ff10d200ea426a80edaf2b4d4ff376b9375d3dc419816a","770002.7999999523","1543.1000000238419","77","1","arctic","","","","",""
"dual-task","null","null","null","","swim","swim","1365.7999999523163","","r","null","88","88","1","arctic-dual-task","","r","lowercase","776000","0","4","f73bafe440a79a8465ff10d200ea426a80edaf2b4d4ff376b9375d3dc419816a","776002.6999999285","1365.7999999523163","88","1","arctic","","","","",""
"dual-task","null","null","null","","swim","swim","1103.5","","d","null","88","88","1","arctic-dual-task","","d","lowercase","784000","0","4","f73bafe440a79a8465ff10d200ea426a80edaf2b4d4ff376b9375d3dc419816a","784002.6999999285","1103.5","88","1","arctic","","","","",""
"audio-keyboard-response","62","2360168","0.0-7.0-2.0-1.0","f73bafe440a79a8465ff10d200ea426a80edaf2b4d4ff376b9375d3dc419816a","swim","swim","null","","audio/story_arctic.mp3","","null","","","","","","","","","","","","","","","","","","","",""
"html-button-response","63","2362002","0.0-7.0-2.0-2.0","f73bafe440a79a8465ff10d200ea426a80edaf2b4d4ff376b9375d3dc419816a","swim","swim","1829","","<p>This concludes the story. Thank you for listening.</p><p>You will now answer some questions about the content of the story.</p>","0","","","","","","","","","","","","","","","","","","","","",""
"survey-multi-choice","64","2368758","0.0-7.0-2.0-3.0-0.0","f73bafe440a79a8465ff10d200ea426a80edaf2b4d4ff376b9375d3dc419816a","swim","swim","6750","","<b>How did the narrator&#39;s neighbour respond when she told him about her expedition?</b>","","","","1","arctic-comprehension","","","","","","","","","","","","","{""Q0"":""He said she was going to fail.""}","","","",""
"survey-multi-choice","65","2372580","0.0-7.0-2.0-3.0-0.1","f73bafe440a79a8465ff10d200ea426a80edaf2b4d4ff376b9375d3dc419816a","swim","swim","3568","","<b>What is the name of the narrator&#39;s neighbour?</b>","","","","1","arctic-comprehension","","","","","","","","","","","","","{""Q0"":""Dave""}","","","",""
"survey-multi-choice","66","2378167","0.0-7.0-2.0-3.0-0.2","f73bafe440a79a8465ff10d200ea426a80edaf2b4d4ff376b9375d3dc419816a","swim","swim","5333","","<b>How many sponsorships did the narrator receive to support her expedition?</b>","","","","1","arctic-comprehension","","","","","","","","","","","","","{""Q0"":""None""}","","","",""
"survey-multi-choice","67","2382681","0.0-7.0-2.0-3.0-0.3","f73bafe440a79a8465ff10d200ea426a80edaf2b4d4ff376b9375d3dc419816a","swim","swim","4257","","<b>How did the narrator&#39;s encounter with the polar bears end?</b>","","","","1","arctic-comprehension","","","","","","","","","","","","","{""Q0"":""The bears walked back to their den.""}","","","",""
"survey-multi-choice","68","2388341","0.0-7.0-2.0-3.0-0.4","f73bafe440a79a8465ff10d200ea426a80edaf2b4d4ff376b9375d3dc419816a","swim","swim","5400","","<b>Which dog on the narrator&#39;s dog team never followed instructions?</b>","","","","1","arctic-comprehension","","","","","","","","","","","","","{""Q0"":""Robert""}","","","",""
"survey-multi-choice","69","2397105","0.0-7.0-2.0-3.0-0.5","f73bafe440a79a8465ff10d200ea426a80edaf2b4d4ff376b9375d3dc419816a","swim","swim","8506","","<b>What did the narrator do for leisure while in her tent?</b>","","","","1","arctic-comprehension","","","","","","","","","","","","","{""Q0"":""Read""}","","","",""
"survey-multi-choice","70","2406533","0.0-7.0-2.0-3.0-0.6","f73bafe440a79a8465ff10d200ea426a80edaf2b4d4ff376b9375d3dc419816a","swim","swim","9171","","<b>How did the narrator prepare for her expedition?</b>","","","","0","arctic-comprehension","","","","","","","","","","","","","{""Q0"":""Practiced living on rations and taking cold showers""}","","","",""
"survey-multi-choice","71","2416094","0.0-7.0-2.0-3.0-0.7","f73bafe440a79a8465ff10d200ea426a80edaf2b4d4ff376b9375d3dc419816a","swim","swim","9300","","<b>What were the weather conditions in the Arctic like the winter of the narrator&#39;s expedition?</b>","","","","1","arctic-comprehension","","","","","","","","","","","","","{""Q0"":""There were more storms than any other winter in recorded history.""}","","","",""
"survey-multi-choice","72","2424566","0.0-7.0-2.0-3.0-0.8","f73bafe440a79a8465ff10d200ea426a80edaf2b4d4ff376b9375d3dc419816a","swim","swim","8217","","<b>How did the dogs respond when they saw the bears?</b>","","","","0","arctic-comprehension","","","","","","","","","","","","","{""Q0"":""Whimpered and submitted""}","","","",""
"survey-multi-choice","73","2430673","0.0-7.0-2.0-3.0-0.9","f73bafe440a79a8465ff10d200ea426a80edaf2b4d4ff376b9375d3dc419816a","swim","swim","5851","","<b>What was the objective of the narrator&#39;s expedition?</b>","","","","1","arctic-comprehension","","","","","","","","","","","","","{""Q0"":""Dogsled across Arctic America""}","","","",""
"html-button-response","74","2432377","0.0-7.0-2.0-4.0","f73bafe440a79a8465ff10d200ea426a80edaf2b4d4ff376b9375d3dc419816a","swim","swim","1448","","<p>Thank you for your responses.</p><p>You will now answer some questions about your impressions of the story.</p>","0","","","","","","","","","","","","","","","","","","","","",""
"html-button-response","75","2436324","0.0-7.0-2.0-5.0-0.0","f73bafe440a79a8465ff10d200ea426a80edaf2b4d4ff376b9375d3dc419816a","swim","swim","3946","","A1","5","","","","arctic-engagement","","","","","","","","","","","","","","6","absorption","",""
"html-button-response","76","2439142","0.0-7.0-2.0-5.0-0.1","f73bafe440a79a8465ff10d200ea426a80edaf2b4d4ff376b9375d3dc419816a","swim","swim","2564","","A5","2","","","","arctic-engagement","","","","","","","","","","","","","","3","absorption","",""
"html-button-response","77","2441388","0.0-7.0-2.0-5.0-0.2","f73bafe440a79a8465ff10d200ea426a80edaf2b4d4ff376b9375d3dc419816a","swim","swim","1990","","E1","6","","","","arctic-engagement","","","","","","","","","","","","","","7","enjoyment","",""
"html-button-response","78","2442775","0.0-7.0-2.0-5.0-0.3","f73bafe440a79a8465ff10d200ea426a80edaf2b4d4ff376b9375d3dc419816a","swim","swim","1131","","MS2","6","","","","arctic-engagement","","","","","","","","","","","","","","7","mental-sim","",""
"html-button-response","79","2444158","0.0-7.0-2.0-5.0-0.4","f73bafe440a79a8465ff10d200ea426a80edaf2b4d4ff376b9375d3dc419816a","swim","swim","1131","","MS3","6","","","","arctic-engagement","","","","","","","","","","","","","","7","mental-sim","",""
"html-button-response","80","2445919","0.0-7.0-2.0-5.0-0.5","f73bafe440a79a8465ff10d200ea426a80edaf2b4d4ff376b9375d3dc419816a","swim","swim","1505","","A4","6","","","","arctic-engagement","","","","","","","","","","","","","","7","absorption","",""
"html-button-response","81","2447935","0.0-7.0-2.0-5.0-0.6","f73bafe440a79a8465ff10d200ea426a80edaf2b4d4ff376b9375d3dc419816a","swim","swim","1760","","EE3","5","","","","arctic-engagement","","","","","","","","","","","","","","6","emo-engage","",""
"html-button-response","82","2449344","0.0-7.0-2.0-5.0-0.7","f73bafe440a79a8465ff10d200ea426a80edaf2b4d4ff376b9375d3dc419816a","swim","swim","1157","","E7","6","","","","arctic-engagement","","","","","","","","","","","","","","7","enjoyment","",""
"html-button-response","83","2451528","0.0-7.0-2.0-5.0-0.8","f73bafe440a79a8465ff10d200ea426a80edaf2b4d4ff376b9375d3dc419816a","swim","swim","1927","","A2","6","","","","arctic-engagement","","","","","","","","","","","","","","7","absorption","",""
"html-button-response","84","2455417","0.0-7.0-2.0-5.0-0.9","f73bafe440a79a8465ff10d200ea426a80edaf2b4d4ff376b9375d3dc419816a","swim","swim","3637","","EE2","1","","","","arctic-engagement","","","","","","","","","","","","","","2","emo-engage","",""
"html-button-response","85","2457087","0.0-7.0-2.0-5.0-0.10","f73bafe440a79a8465ff10d200ea426a80edaf2b4d4ff376b9375d3dc419816a","swim","swim","1415","","E8","6","","","","arctic-engagement","","","","","","","","","","","","","","7","enjoyment","",""
"html-button-response","86","2459386","0.0-7.0-2.0-5.0-0.11","f73bafe440a79a8465ff10d200ea426a80edaf2b4d4ff376b9375d3dc419816a","swim","swim","2044","","MS1","6","","","","arctic-engagement","","","","","","","","","","","","","","7","mental-sim","",""
"html-button-response","87","2460855","0.0-7.0-2.0-5.0-0.12","f73bafe440a79a8465ff10d200ea426a80edaf2b4d4ff376b9375d3dc419816a","swim","swim","1215","","A3","6","","","","arctic-engagement","","","","","","","","","","","","","","7","absorption","",""
"html-button-response","88","2462521","0.0-7.0-2.0-5.0-0.13","f73bafe440a79a8465ff10d200ea426a80edaf2b4d4ff376b9375d3dc419816a","swim","swim","1414","","E6","5","","","","arctic-engagement","","","","","","","","","","","","","","6","enjoyment","",""
"html-button-response","89","2464134","0.0-7.0-2.0-5.0-0.14","f73bafe440a79a8465ff10d200ea426a80edaf2b4d4ff376b9375d3dc419816a","swim","swim","1356","","E10","6","","","","arctic-engagement","","","","","","","","","","","","","","7","enjoyment","",""
"html-button-response","90","2465616","0.0-7.0-2.0-5.0-0.15","f73bafe440a79a8465ff10d200ea426a80edaf2b4d4ff376b9375d3dc419816a","swim","swim","1227","","EE4","6","","","","arctic-engagement","","","","","","","","","","","","","","7","emo-engage","",""
"html-button-response","91","2469373","0.0-7.0-2.0-5.0-0.16","f73bafe440a79a8465ff10d200ea426a80edaf2b4d4ff376b9375d3dc419816a","swim","swim","3505","","EE1","4","","","","arctic-engagement","","","","","","","","","","","","","","5","emo-engage","",""
"html-button-response","92","2471110","0.0-7.0-2.0-5.0-0.17","f73bafe440a79a8465ff10d200ea426a80edaf2b4d4ff376b9375d3dc419816a","swim","swim","1483","","EE5","4","","","","arctic-engagement","","","","","","","","","","","","","","5","emo-engage","",""
"html-button-response","93","2473076","0.0-8.0","f73bafe440a79a8465ff10d200ea426a80edaf2b4d4ff376b9375d3dc419816a","swim","swim","1712","","<p>Thank you for your responses.</p><p>You will now answer some demographic, hearing, and general health questions.</p>","0","","","","","","","","","","","","","","","","","","","","",""
"survey-multi-choice","94","2476275","0.0-9.0-0.0","f73bafe440a79a8465ff10d200ea426a80edaf2b4d4ff376b9375d3dc419816a","swim","swim","3194","","","","","","","survey","","","","","","","","","","","","","{""Q0"":""Chrome""}","","","browser",""
"survey-text","95","2479128","0.0-9.0-1.0","f73bafe440a79a8465ff10d200ea426a80edaf2b4d4ff376b9375d3dc419816a","swim","swim","2551","","","","","","","survey","","","","","","","","","","","","","{""AGE"":""33""}","","","age","33"
"survey-multi-choice","96","2481167","0.0-9.0-2.0","f73bafe440a79a8465ff10d200ea426a80edaf2b4d4ff376b9375d3dc419816a","swim","swim","1783","","","","","","","survey","","","","","","","","","","","","","{""Q0"":""Male""}","","","gender","Male"
"survey-multi-choice","97","2483090","0.0-9.0-4.0","f73bafe440a79a8465ff10d200ea426a80edaf2b4d4ff376b9375d3dc419816a","swim","swim","1668","","","","","","","survey","","","","","","","","","","","","","{""Q0"":""Right""}","","","handedness","Right"
"survey-multi-choice","98","2486744","0.0-9.0-5.0","f73bafe440a79a8465ff10d200ea426a80edaf2b4d4ff376b9375d3dc419816a","swim","swim","3390","","","","","","","survey","","","","","","","","","","","","","{""Q0"":""Bachelor's Degree""}","","","education","Bachelor's Degree"
"survey-text","99","2490625","0.0-10.0-0.0","f73bafe440a79a8465ff10d200ea426a80edaf2b4d4ff376b9375d3dc419816a","swim","swim","3624.8000000715256","","","","","","","survey","","","","","","","","","","","","","{""L1"":""English""}","","","first-language","English"
"survey-text","100","2502804","0.0-10.0-1.0","f73bafe440a79a8465ff10d200ea426a80edaf2b4d4ff376b9375d3dc419816a","swim","swim","11912.800000071526","","","","","","","survey","","","","","","","","","","","","","{""L2name"":"""",""L2fluency"":"""",""L3name"":"""",""L3fluency"":"""",""L4name"":"""",""L4fluency"":""""}","","","additional-languages","{""L2name"":"""",""L2fluency"":"""",""L3name"":"""",""L3fluency"":"""",""L4name"":"""",""L4fluency"":""""}"
"survey-multi-choice","101","2505249","0.0-10.0-2.0","f73bafe440a79a8465ff10d200ea426a80edaf2b4d4ff376b9375d3dc419816a","swim","swim","2189","","","","","","","survey","","","","","","","","","","","","","{""Q0"":""No""}","","","hearing-aid","No"
"survey-multi-choice","102","2507685","0.0-10.0-3.0","f73bafe440a79a8465ff10d200ea426a80edaf2b4d4ff376b9375d3dc419816a","swim","swim","2183","","","","","","","survey","","","","","","","","","","","","","{""Q0"":""Never""}","","","ringing-ears","Never"
"survey-multi-choice","103","2509827","0.0-10.0-5.0","f73bafe440a79a8465ff10d200ea426a80edaf2b4d4ff376b9375d3dc419816a","swim","swim","1889","","","","","","","survey","","","","","","","","","","","","","{""Q0"":""No""}","","","neuro-disease","No"
"survey-multi-choice","104","2513370","0.0-10.0-7.0","f73bafe440a79a8465ff10d200ea426a80edaf2b4d4ff376b9375d3dc419816a","swim","swim","3287","","","","","","","survey","","","","","","","","","","","","","{""Q0"":""No""}","","","take-meds","No"
"survey-text","105","2516930","0.0-10.0-9.0","f73bafe440a79a8465ff10d200ea426a80edaf2b4d4ff376b9375d3dc419816a","swim","swim","3145","","","","","","","survey","","","","","","","","","","","","","{""HC"":""""}","","","health-concerns",""
"html-button-response","106","2519005","0.0-11.0-0.0","f73bafe440a79a8465ff10d200ea426a80edaf2b4d4ff376b9375d3dc419816a","swim","swim","1818","","<p>How would you describe your musical skills/experiences?</p>","2","","","","survey","","","","","","","","","","","","","","","","music-skill","3"
"survey-multi-choice","107","2521404","0.0-11.0-1.0","f73bafe440a79a8465ff10d200ea426a80edaf2b4d4ff376b9375d3dc419816a","swim","swim","2142","","","","","","","survey","","","","","","","","","","","","","{""Q0"":""Yes""}","","","music-instrument","Yes"
"survey-text","108","2523775","0.0-11.0-2.0-0.0","f73bafe440a79a8465ff10d200ea426a80edaf2b4d4ff376b9375d3dc419816a","swim","swim","2116.3000000715256","","","","","","","survey","","","","","","","","","","","","","{""MEXP"":""4""}","","","music-training-yrs","4"
"html-button-response","109","2525550","0.0-12.0-0.0","f73bafe440a79a8465ff10d200ea426a80edaf2b4d4ff376b9375d3dc419816a","swim","swim","1520","","<p>How would you describe your general hearing abilities?</p>","5","","","","survey","","","","","","","","","","","","","","","","ssq-01","6"
"html-button-response","110","2529327","0.0-12.0-1.0","f73bafe440a79a8465ff10d200ea426a80edaf2b4d4ff376b9375d3dc419816a","swim","swim","3521","","<p>When you talk with someone at a place that strongly reverberates/echoes (e.g., in a church or train station),</br>can you understand what the person says?</p>","9","","","","survey","","","","","","","","","","","","","","","","ssq-02","9"
"html-button-response","111","2531573","0.0-12.0-2.0","f73bafe440a79a8465ff10d200ea426a80edaf2b4d4ff376b9375d3dc419816a","swim","swim","1990","","<p>When you are with a group (~5 people) in a lively restaurant, can you follow the group's conversation?</p>","10","","","","survey","","","","","","","","","","","","","","","","ssq-03","10"
"html-button-response","112","2535083","0.0-12.0-3.0","f73bafe440a79a8465ff10d200ea426a80edaf2b4d4ff376b9375d3dc419816a","swim","swim","3255","","<p>Based on the sound of a bus or truck, can you tell whether it is moving towards or away from you?</p>","9","","","","survey","","","","","","","","","","","","","","","","ssq-04","9"
"html-button-response","113","2538321","0.0-12.0-4.0","f73bafe440a79a8465ff10d200ea426a80edaf2b4d4ff376b9375d3dc419816a","swim","swim","2984","","<p>When you are in an unknown environment, can you tell from which direction a brief sound originates?</p>","9","","","","survey","","","","","","","","","","","","","","","","ssq-05","9"
"html-button-response","114","2541171","0.0-12.0-5.0","f73bafe440a79a8465ff10d200ea426a80edaf2b4d4ff376b9375d3dc419816a","swim","swim","2596","","<p>Are you able to ignore distracting sounds when you concentrate on a specific aspect of your acoustic surrounding?</p>","8","","","","survey","","","","","","","","","","","","","","","","ssq-06","8"
"fullscreen","115","2542434","0.0-13.0","f73bafe440a79a8465ff10d200ea426a80edaf2b4d4ff376b9375d3dc419816a","swim","swim","","","","","","","","","true","","","","","","","","","","","","","","","",""
