"trial_type","trial_index","time_elapsed","internal_node_id","ParticipantID","firstStory","scramStory","rt","url","stimulus","button_pressed","key_press","correctRESP","correct","designation","success","letterStim","letterType","ONSET","TIMEOUT","CONDITION","Participant","ONSET_ACTUAL","RT","RESP","ACC","STORY","responses","response","type","surveyQuestion","QRESP"
"pavlovia","0","2","0.0-0.0","4ba927e140bf012b1ef94da77df200063b7cece47978022b466cd6082736d184","swim","arctic","","","","","","","","","","","","","","","","","","","","","","","","",""
"external-html","1","9860","0.0-1.0","4ba927e140bf012b1ef94da77df200063b7cece47978022b466cd6082736d184","swim","arctic","9840","consent/consent_updated.html","","","","","","","","","","","","","","","","","","","","","","",""
"html-button-response","2","11405","0.0-2.0-0.0","4ba927e140bf012b1ef94da77df200063b7cece47978022b466cd6082736d184","swim","arctic","1545","","<p>Before we begin the main task, you will complete a short volume calibration and headphone check.</p><p>Please make sure you are in a quiet listening environment, that you are wearing headphones, and that your computer's volume is turned on.<p></p>","0","","","","","","","","","","","","","","","","","","","","",""
"html-button-response","3","13007","0.0-2.0-1.0","4ba927e140bf012b1ef94da77df200063b7cece47978022b466cd6082736d184","swim","arctic","1352","","<p>The volume calibration will be first.</p><p>You will hear a thirty-second noise. Please adjust your computer's volume so that this noise is being presented at a comfortable level.<p></p>","0","","","","","","","","","","","","","","","","","","","","",""
"audio-button-response","4","14905","0.0-2.0-2.0","4ba927e140bf012b1ef94da77df200063b7cece47978022b466cd6082736d184","swim","arctic","1647","","audio/volumetest.mp3","0","","","","","","","","","","","","","","","","","","","","",""
"html-keyboard-response","5","19539","0.0-3.0-0.0","4ba927e140bf012b1ef94da77df200063b7cece47978022b466cd6082736d184","swim","arctic","4633","","<p>You will now complete a short headphone check.</p><p>On each trial, you will hear three tones. One of these tones will be quieter than the others. Your task is to identify whether the quiet tone occurred first, second, or third.</p><p>There are six trials in total.<p></p><p></p>(Press SPACEBAR to begin)","","32","","","","","","","","","","","","","","","","","","","",""
"html-keyboard-response","6","20290","0.0-3.0-1.0-0.0","4ba927e140bf012b1ef94da77df200063b7cece47978022b466cd6082736d184","swim","arctic","null","","<div style=""font-size:60px;"">+</div>","","null","","","","","","","","","","","","","","","","","","","",""
"audio-button-response","7","24850","0.0-3.0-1.0-1.0","4ba927e140bf012b1ef94da77df200063b7cece47978022b466cd6082736d184","swim","arctic","4559","","audio/t2_2.mp3","1","","1","1","headphone-test","","","","","","","","","","","","","","","","",""
"html-keyboard-response","8","25366","0.0-3.0-1.0-2.0","4ba927e140bf012b1ef94da77df200063b7cece47978022b466cd6082736d184","swim","arctic","null","","<p>Correct</p>","","null","","","","","","","","","","","","","","","","","","","",""
"html-keyboard-response","9","25880","0.0-3.0-1.0-0.1","4ba927e140bf012b1ef94da77df200063b7cece47978022b466cd6082736d184","swim","arctic","null","","<div style=""font-size:60px;"">+</div>","","null","","","","","","","","","","","","","","","","","","","",""
"audio-button-response","10","30267","0.0-3.0-1.0-1.1","4ba927e140bf012b1ef94da77df200063b7cece47978022b466cd6082736d184","swim","arctic","4385","","audio/t1_2.mp3","0","","0","1","headphone-test","","","","","","","","","","","","","","","","",""
"html-keyboard-response","11","30778","0.0-3.0-1.0-2.1","4ba927e140bf012b1ef94da77df200063b7cece47978022b466cd6082736d184","swim","arctic","null","","<p>Correct</p>","","null","","","","","","","","","","","","","","","","","","","",""
"html-keyboard-response","12","31291","0.0-3.0-1.0-0.2","4ba927e140bf012b1ef94da77df200063b7cece47978022b466cd6082736d184","swim","arctic","null","","<div style=""font-size:60px;"">+</div>","","null","","","","","","","","","","","","","","","","","","","",""
"audio-button-response","13","37136","0.0-3.0-1.0-1.2","4ba927e140bf012b1ef94da77df200063b7cece47978022b466cd6082736d184","swim","arctic","5843","","audio/t3_2.mp3","2","","2","1","headphone-test","","","","","","","","","","","","","","","","",""
"html-keyboard-response","14","37646","0.0-3.0-1.0-2.2","4ba927e140bf012b1ef94da77df200063b7cece47978022b466cd6082736d184","swim","arctic","null","","<p>Correct</p>","","null","","","","","","","","","","","","","","","","","","","",""
"html-keyboard-response","15","38158","0.0-3.0-1.0-0.3","4ba927e140bf012b1ef94da77df200063b7cece47978022b466cd6082736d184","swim","arctic","null","","<div style=""font-size:60px;"">+</div>","","null","","","","","","","","","","","","","","","","","","","",""
"audio-button-response","16","42938","0.0-3.0-1.0-1.3","4ba927e140bf012b1ef94da77df200063b7cece47978022b466cd6082736d184","swim","arctic","4779","","audio/t2_1.mp3","1","","1","1","headphone-test","","","","","","","","","","","","","","","","",""
"html-keyboard-response","17","43439","0.0-3.0-1.0-2.3","4ba927e140bf012b1ef94da77df200063b7cece47978022b466cd6082736d184","swim","arctic","null","","<p>Correct</p>","","null","","","","","","","","","","","","","","","","","","","",""
"html-keyboard-response","18","43943","0.0-3.0-1.0-0.4","4ba927e140bf012b1ef94da77df200063b7cece47978022b466cd6082736d184","swim","arctic","null","","<div style=""font-size:60px;"">+</div>","","null","","","","","","","","","","","","","","","","","","","",""
"audio-button-response","19","48541","0.0-3.0-1.0-1.4","4ba927e140bf012b1ef94da77df200063b7cece47978022b466cd6082736d184","swim","arctic","4597","","audio/t3_1.mp3","2","","2","1","headphone-test","","","","","","","","","","","","","","","","",""
"html-keyboard-response","20","49049","0.0-3.0-1.0-2.4","4ba927e140bf012b1ef94da77df200063b7cece47978022b466cd6082736d184","swim","arctic","null","","<p>Correct</p>","","null","","","","","","","","","","","","","","","","","","","",""
"html-keyboard-response","21","49558","0.0-3.0-1.0-0.5","4ba927e140bf012b1ef94da77df200063b7cece47978022b466cd6082736d184","swim","arctic","null","","<div style=""font-size:60px;"">+</div>","","null","","","","","","","","","","","","","","","","","","","",""
"audio-button-response","22","54133","0.0-3.0-1.0-1.5","4ba927e140bf012b1ef94da77df200063b7cece47978022b466cd6082736d184","swim","arctic","4574","","audio/t1_1.mp3","0","","0","1","headphone-test","","","","","","","","","","","","","","","","",""
"html-keyboard-response","23","54647","0.0-3.0-1.0-2.5","4ba927e140bf012b1ef94da77df200063b7cece47978022b466cd6082736d184","swim","arctic","null","","<p>Correct</p>","","null","","","","","","","","","","","","","","","","","","","",""
"fullscreen","24","57179","0.0-4.0","4ba927e140bf012b1ef94da77df200063b7cece47978022b466cd6082736d184","swim","arctic","","","","","","","","","true","","","","","","","","","","","","","","","",""
"html-button-response","25","58452","0.0-5.0-0.0","4ba927e140bf012b1ef94da77df200063b7cece47978022b466cd6082736d184","swim","arctic","1272","","<p>There are two blocks to this experiment.</p><p>In each block, you will hear a ~13.5 minute story. One of the stories will be scrambled. Please listen carefully to both stories and understand them as best you can.</p><p>After each story, you will be asked some questions to assess your comprehension.</p>","0","","","","","","","","","","","","","","","","","","","","",""
"html-button-response","26","60384","0.0-5.0-1.0","4ba927e140bf012b1ef94da77df200063b7cece47978022b466cd6082736d184","swim","arctic","1932","","<p>During each story, there will be an additional task.</p><p>A letter will occasionally appear on the screen.</br>Your job is to - as quickly as you can - decide whether the letter is lowercase or uppercase and press one of two keys on the keyboard:</p><p>If the letter is <b>lowercase</b>, press key &lt;<b>x</b>&gt;.</p><p>If the letter is <b>uppercase</b>, press key &lt;<b>m</b>&gt;.</p>","0","","","","","","","","","","","","","","","","","","","","",""
"html-keyboard-response","27","65696","0.0-5.0-2.0","4ba927e140bf012b1ef94da77df200063b7cece47978022b466cd6082736d184","swim","arctic","5311","","<p>Because we want your responses to be as quick as possible, please keep your index fingers over the keys while listening.</p><p>Each block lasts about 20 minutes.</p><p><b>Press &lt;x&gt; or &lt;m&gt; to start the first block!</b></p>","","88","","","","","","","","","","","","","","","","","","","",""
"html-keyboard-response","28","66200","0.0-7.0-0.0-0.0","4ba927e140bf012b1ef94da77df200063b7cece47978022b466cd6082736d184","swim","arctic","null","","<div style=""font-size:60px;"" tabindex=""0"">+</div>","","null","","","","","","","","","","","","","","","","","","","",""
"dual-task","null","null","null","","swim","arctic","890.5","","h","null","88","88","1","swim-dual-task","","h","lowercase","18000","0","6","4ba927e140bf012b1ef94da77df200063b7cece47978022b466cd6082736d184","18005.299999952316","890.5","88","1","swim","","","","",""
"dual-task","null","null","null","","swim","arctic","859.5999999046326","","G","null","77","77","1","swim-dual-task","","G","uppercase","30000","0","6","4ba927e140bf012b1ef94da77df200063b7cece47978022b466cd6082736d184","30005.5","859.5999999046326","77","1","swim","","","","",""
"dual-task","null","null","null","","swim","arctic","562.4000000953674","","F","null","77","77","1","swim-dual-task","","F","uppercase","40000","0","6","4ba927e140bf012b1ef94da77df200063b7cece47978022b466cd6082736d184","40014.59999990463","562.4000000953674","77","1","swim","","","","",""
"dual-task","null","null","null","","swim","arctic","584.6999998092651","","a","null","88","88","1","swim-dual-task","","a","lowercase","54000","0","6","4ba927e140bf012b1ef94da77df200063b7cece47978022b466cd6082736d184","54010.299999952316","584.6999998092651","88","1","swim","","","","",""
"dual-task","null","null","null","","swim","arctic","534","","F","null","77","77","1","swim-dual-task","","F","uppercase","62000","0","6","4ba927e140bf012b1ef94da77df200063b7cece47978022b466cd6082736d184","62013.799999952316","534","77","1","swim","","","","",""
"dual-task","null","null","null","","swim","arctic","1064.2999999523163","","q","null","88","88","1","swim-dual-task","","q","lowercase","76000","0","6","4ba927e140bf012b1ef94da77df200063b7cece47978022b466cd6082736d184","76013.70000004768","1064.2999999523163","88","1","swim","","","","",""
"dual-task","null","null","null","","swim","arctic","661","","G","null","77","77","1","swim-dual-task","","G","uppercase","86000","0","6","4ba927e140bf012b1ef94da77df200063b7cece47978022b466cd6082736d184","86009.20000004768","661","77","1","swim","","","","",""
"dual-task","null","null","null","","swim","arctic","635.3000001907349","","H","null","77","77","1","swim-dual-task","","H","uppercase","100000","0","6","4ba927e140bf012b1ef94da77df200063b7cece47978022b466cd6082736d184","100005.09999990463","635.3000001907349","77","1","swim","","","","",""
"dual-task","null","null","null","","swim","arctic","838.3999998569489","","h","null","88","88","1","swim-dual-task","","h","lowercase","106000","0","6","4ba927e140bf012b1ef94da77df200063b7cece47978022b466cd6082736d184","106009.70000004768","838.3999998569489","88","1","swim","","","","",""
"dual-task","null","null","null","","swim","arctic","574.7000000476837","","b","null","88","88","1","swim-dual-task","","b","lowercase","114000","0","6","4ba927e140bf012b1ef94da77df200063b7cece47978022b466cd6082736d184","114011.20000004768","574.7000000476837","88","1","swim","","","","",""
"dual-task","null","null","null","","swim","arctic","669.3000001907349","","t","null","88","88","1","swim-dual-task","","t","lowercase","128000","0","6","4ba927e140bf012b1ef94da77df200063b7cece47978022b466cd6082736d184","128014.59999990463","669.3000001907349","88","1","swim","","","","",""
"dual-task","null","null","null","","swim","arctic","627.1000001430511","","H","null","77","77","1","swim-dual-task","","H","uppercase","140000","0","6","4ba927e140bf012b1ef94da77df200063b7cece47978022b466cd6082736d184","140009.59999990463","627.1000001430511","77","1","swim","","","","",""
"dual-task","null","null","null","","swim","arctic","711.2000000476837","","q","null","88","88","1","swim-dual-task","","q","lowercase","152000","0","6","4ba927e140bf012b1ef94da77df200063b7cece47978022b466cd6082736d184","152014.20000004768","711.2000000476837","88","1","swim","","","","",""
"dual-task","null","null","null","","swim","arctic","909.5","","H","null","77","77","1","swim-dual-task","","H","uppercase","164000","0","6","4ba927e140bf012b1ef94da77df200063b7cece47978022b466cd6082736d184","164001.70000004768","909.5","77","1","swim","","","","",""
"dual-task","null","null","null","","swim","arctic","569.5","","f","null","88","88","1","swim-dual-task","","f","lowercase","172000","0","6","4ba927e140bf012b1ef94da77df200063b7cece47978022b466cd6082736d184","172013.70000004768","569.5","88","1","swim","","","","",""
"dual-task","null","null","null","","swim","arctic","917.7999999523163","","q","null","88","88","1","swim-dual-task","","q","lowercase","184000","0","6","4ba927e140bf012b1ef94da77df200063b7cece47978022b466cd6082736d184","184003.29999995232","917.7999999523163","88","1","swim","","","","",""
"dual-task","null","null","null","","swim","arctic","799.7000000476837","","q","null","88","88","1","swim-dual-task","","q","lowercase","194000","0","6","4ba927e140bf012b1ef94da77df200063b7cece47978022b466cd6082736d184","194009.70000004768","799.7000000476837","88","1","swim","","","","",""
"dual-task","null","null","null","","swim","arctic","572.5","","D","null","77","77","1","swim-dual-task","","D","uppercase","206000","0","6","4ba927e140bf012b1ef94da77df200063b7cece47978022b466cd6082736d184","206007","572.5","77","1","swim","","","","",""
"dual-task","null","null","null","","swim","arctic","602.4000000953674","","n","null","88","88","1","swim-dual-task","","n","lowercase","220000","0","6","4ba927e140bf012b1ef94da77df200063b7cece47978022b466cd6082736d184","220002.70000004768","602.4000000953674","88","1","swim","","","","",""
"dual-task","null","null","null","","swim","arctic","625.0999999046326","","A","null","77","77","1","swim-dual-task","","A","uppercase","232000","0","6","4ba927e140bf012b1ef94da77df200063b7cece47978022b466cd6082736d184","232012.59999990463","625.0999999046326","77","1","swim","","","","",""
"dual-task","null","null","null","","swim","arctic","620.6000001430511","","E","null","77","77","1","swim-dual-task","","E","uppercase","242000","0","6","4ba927e140bf012b1ef94da77df200063b7cece47978022b466cd6082736d184","242009.79999995232","620.6000001430511","77","1","swim","","","","",""
"dual-task","null","null","null","","swim","arctic","538.5","","n","null","88","88","1","swim-dual-task","","n","lowercase","256000","0","6","4ba927e140bf012b1ef94da77df200063b7cece47978022b466cd6082736d184","256014.59999990463","538.5","88","1","swim","","","","",""
"dual-task","null","null","null","","swim","arctic","708.8000001907349","","g","null","88","88","1","swim-dual-task","","g","lowercase","262000","0","6","4ba927e140bf012b1ef94da77df200063b7cece47978022b466cd6082736d184","262011.59999990463","708.8000001907349","88","1","swim","","","","",""
"dual-task","null","null","null","","swim","arctic","726.5","","f","null","88","88","1","swim-dual-task","","f","lowercase","272000","0","6","4ba927e140bf012b1ef94da77df200063b7cece47978022b466cd6082736d184","272003.59999990463","726.5","88","1","swim","","","","",""
"dual-task","null","null","null","","swim","arctic","575.3999998569489","","b","null","88","88","1","swim-dual-task","","b","lowercase","280000","0","6","4ba927e140bf012b1ef94da77df200063b7cece47978022b466cd6082736d184","280010.90000009537","575.3999998569489","88","1","swim","","","","",""
"dual-task","null","null","null","","swim","arctic","531.4000000953674","","H","null","77","77","1","swim-dual-task","","H","uppercase","288000","0","6","4ba927e140bf012b1ef94da77df200063b7cece47978022b466cd6082736d184","288000.7999999523","531.4000000953674","77","1","swim","","","","",""
"dual-task","null","null","null","","swim","arctic","717.7999999523163","","e","null","88","88","1","swim-dual-task","","e","lowercase","300000","0","6","4ba927e140bf012b1ef94da77df200063b7cece47978022b466cd6082736d184","299999.7000000477","717.7999999523163","88","1","swim","","","","",""
"dual-task","null","null","null","","swim","arctic","646","","N","null","77","77","1","swim-dual-task","","N","uppercase","308000","0","6","4ba927e140bf012b1ef94da77df200063b7cece47978022b466cd6082736d184","308007.7999999523","646","77","1","swim","","","","",""
"dual-task","null","null","null","","swim","arctic","579.2999999523163","","d","null","88","88","1","swim-dual-task","","d","lowercase","314000","0","6","4ba927e140bf012b1ef94da77df200063b7cece47978022b466cd6082736d184","314003.59999990463","579.2999999523163","88","1","swim","","","","",""
"dual-task","null","null","null","","swim","arctic","1004.5999999046326","","B","null","77","77","1","swim-dual-task","","B","uppercase","324000","0","6","4ba927e140bf012b1ef94da77df200063b7cece47978022b466cd6082736d184","324011.5","1004.5999999046326","77","1","swim","","","","",""
"dual-task","null","null","null","","swim","arctic","656.3999998569489","","G","null","77","77","1","swim-dual-task","","G","uppercase","334000","0","6","4ba927e140bf012b1ef94da77df200063b7cece47978022b466cd6082736d184","333999.7999999523","656.3999998569489","77","1","swim","","","","",""
"dual-task","null","null","null","","swim","arctic","661.2000000476837","","E","null","77","77","1","swim-dual-task","","E","uppercase","342000","0","6","4ba927e140bf012b1ef94da77df200063b7cece47978022b466cd6082736d184","342004.59999990463","661.2000000476837","77","1","swim","","","","",""
"dual-task","null","null","null","","swim","arctic","525.2999999523163","","R","null","77","77","1","swim-dual-task","","R","uppercase","350000","0","6","4ba927e140bf012b1ef94da77df200063b7cece47978022b466cd6082736d184","350005.09999990463","525.2999999523163","77","1","swim","","","","",""
"dual-task","null","null","null","","swim","arctic","807.7999999523163","","f","null","88","88","1","swim-dual-task","","f","lowercase","358000","0","6","4ba927e140bf012b1ef94da77df200063b7cece47978022b466cd6082736d184","358011.7999999523","807.7999999523163","88","1","swim","","","","",""
"dual-task","null","null","null","","swim","arctic","594","","b","null","88","88","1","swim-dual-task","","b","lowercase","368000","0","6","4ba927e140bf012b1ef94da77df200063b7cece47978022b466cd6082736d184","368009.90000009537","594","88","1","swim","","","","",""
"dual-task","null","null","null","","swim","arctic","668.6000001430511","","F","null","77","77","1","swim-dual-task","","F","uppercase","376000","0","6","4ba927e140bf012b1ef94da77df200063b7cece47978022b466cd6082736d184","376008.7999999523","668.6000001430511","77","1","swim","","","","",""
"dual-task","null","null","null","","swim","arctic","1268.1999998092651","","T","null","77","77","1","swim-dual-task","","T","uppercase","386000","0","6","4ba927e140bf012b1ef94da77df200063b7cece47978022b466cd6082736d184","386009.7999999523","1268.1999998092651","77","1","swim","","","","",""
"dual-task","null","null","null","","swim","arctic","654.0999999046326","","e","null","88","88","1","swim-dual-task","","e","lowercase","396000","0","6","4ba927e140bf012b1ef94da77df200063b7cece47978022b466cd6082736d184","396008.90000009537","654.0999999046326","88","1","swim","","","","",""
"dual-task","null","null","null","","swim","arctic","629.0999999046326","","d","null","88","88","1","swim-dual-task","","d","lowercase","402000","0","6","4ba927e140bf012b1ef94da77df200063b7cece47978022b466cd6082736d184","402002.7000000477","629.0999999046326","88","1","swim","","","","",""
"dual-task","null","null","null","","swim","arctic","552.1000001430511","","a","null","88","88","1","swim-dual-task","","a","lowercase","414000","0","6","4ba927e140bf012b1ef94da77df200063b7cece47978022b466cd6082736d184","414000.7999999523","552.1000001430511","88","1","swim","","","","",""
"dual-task","null","null","null","","swim","arctic","582.7000000476837","","R","null","77","77","1","swim-dual-task","","R","uppercase","426000","0","6","4ba927e140bf012b1ef94da77df200063b7cece47978022b466cd6082736d184","426004.2000000477","582.7000000476837","77","1","swim","","","","",""
"dual-task","null","null","null","","swim","arctic","625.0999999046326","","r","null","88","88","1","swim-dual-task","","r","lowercase","434000","0","6","4ba927e140bf012b1ef94da77df200063b7cece47978022b466cd6082736d184","434001.7000000477","625.0999999046326","88","1","swim","","","","",""
"dual-task","null","null","null","","swim","arctic","520.5","","T","null","77","77","1","swim-dual-task","","T","uppercase","446000","0","6","4ba927e140bf012b1ef94da77df200063b7cece47978022b466cd6082736d184","446004.2999999523","520.5","77","1","swim","","","","",""
"dual-task","null","null","null","","swim","arctic","664.7999999523163","","A","null","77","77","1","swim-dual-task","","A","uppercase","452000","0","6","4ba927e140bf012b1ef94da77df200063b7cece47978022b466cd6082736d184","452003.59999990463","664.7999999523163","77","1","swim","","","","",""
"dual-task","null","null","null","","swim","arctic","863.4000000953674","","f","null","88","88","1","swim-dual-task","","f","lowercase","462000","0","6","4ba927e140bf012b1ef94da77df200063b7cece47978022b466cd6082736d184","462007.09999990463","863.4000000953674","88","1","swim","","","","",""
"dual-task","null","null","null","","swim","arctic","595.5","","g","null","88","88","1","swim-dual-task","","g","lowercase","468000","0","6","4ba927e140bf012b1ef94da77df200063b7cece47978022b466cd6082736d184","468010.90000009537","595.5","88","1","swim","","","","",""
"dual-task","null","null","null","","swim","arctic","1006.2000000476837","","R","null","77","77","1","swim-dual-task","","R","uppercase","480000","0","6","4ba927e140bf012b1ef94da77df200063b7cece47978022b466cd6082736d184","480009.7999999523","1006.2000000476837","77","1","swim","","","","",""
"dual-task","null","null","null","","swim","arctic","1049.2999999523163","","n","null","88","88","1","swim-dual-task","","n","lowercase","488000","0","6","4ba927e140bf012b1ef94da77df200063b7cece47978022b466cd6082736d184","488006.7999999523","1049.2999999523163","88","1","swim","","","","",""
"dual-task","null","null","null","","swim","arctic","1172.3999998569489","","R","null","77","77","1","swim-dual-task","","R","uppercase","496000","0","6","4ba927e140bf012b1ef94da77df200063b7cece47978022b466cd6082736d184","496013.7000000477","1172.3999998569489","77","1","swim","","","","",""
"dual-task","null","null","null","","swim","arctic","1439.6000001430511","","r","null","88","88","1","swim-dual-task","","r","lowercase","504000","0","6","4ba927e140bf012b1ef94da77df200063b7cece47978022b466cd6082736d184","504002.59999990463","1439.6000001430511","88","1","swim","","","","",""
"dual-task","null","null","null","","swim","arctic","950","","d","null","88","88","1","swim-dual-task","","d","lowercase","514000","0","6","4ba927e140bf012b1ef94da77df200063b7cece47978022b466cd6082736d184","514005.7000000477","950","88","1","swim","","","","",""
"dual-task","null","null","null","","swim","arctic","580.6999998092651","","Q","null","77","77","1","swim-dual-task","","Q","uppercase","526000","0","6","4ba927e140bf012b1ef94da77df200063b7cece47978022b466cd6082736d184","526008.9000000954","580.6999998092651","77","1","swim","","","","",""
"dual-task","null","null","null","","swim","arctic","741.5","","A","null","77","77","1","swim-dual-task","","A","uppercase","534000","0","6","4ba927e140bf012b1ef94da77df200063b7cece47978022b466cd6082736d184","534007.7999999523","741.5","77","1","swim","","","","",""
"dual-task","null","null","null","","swim","arctic","1454.6999998092651","","T","null","77","77","1","swim-dual-task","","T","uppercase","546000","0","6","4ba927e140bf012b1ef94da77df200063b7cece47978022b466cd6082736d184","546008.4000000954","1454.6999998092651","77","1","swim","","","","",""
"dual-task","null","null","null","","swim","arctic","547.7000000476837","","t","null","88","88","1","swim-dual-task","","t","lowercase","558000","0","6","4ba927e140bf012b1ef94da77df200063b7cece47978022b466cd6082736d184","558012.7999999523","547.7000000476837","88","1","swim","","","","",""
"dual-task","null","null","null","","swim","arctic","575.7999999523163","","e","null","88","88","1","swim-dual-task","","e","lowercase","570000","0","6","4ba927e140bf012b1ef94da77df200063b7cece47978022b466cd6082736d184","570010.2000000477","575.7999999523163","88","1","swim","","","","",""
"dual-task","null","null","null","","swim","arctic","778.6999998092651","","E","null","77","77","1","swim-dual-task","","E","uppercase","582000","0","6","4ba927e140bf012b1ef94da77df200063b7cece47978022b466cd6082736d184","582007.7999999523","778.6999998092651","77","1","swim","","","","",""
"dual-task","null","null","null","","swim","arctic","711","","D","null","77","77","1","swim-dual-task","","D","uppercase","594000","0","6","4ba927e140bf012b1ef94da77df200063b7cece47978022b466cd6082736d184","594013.5999999046","711","77","1","swim","","","","",""
"dual-task","null","null","null","","swim","arctic","610.5","","r","null","88","88","1","swim-dual-task","","r","lowercase","602000","0","6","4ba927e140bf012b1ef94da77df200063b7cece47978022b466cd6082736d184","602001.9000000954","610.5","88","1","swim","","","","",""
"dual-task","null","null","null","","swim","arctic","1493.1000001430511","","t","null","88","88","1","swim-dual-task","","t","lowercase","616000","0","6","4ba927e140bf012b1ef94da77df200063b7cece47978022b466cd6082736d184","616009.7999999523","1493.1000001430511","88","1","swim","","","","",""
"dual-task","null","null","null","","swim","arctic","699.3999998569489","","N","null","77","77","1","swim-dual-task","","N","uppercase","622000","0","6","4ba927e140bf012b1ef94da77df200063b7cece47978022b466cd6082736d184","622002.9000000954","699.3999998569489","77","1","swim","","","","",""
"dual-task","null","null","null","","swim","arctic","803","","G","null","77","77","1","swim-dual-task","","G","uppercase","636000","0","6","4ba927e140bf012b1ef94da77df200063b7cece47978022b466cd6082736d184","636013.9000000954","803","77","1","swim","","","","",""
"dual-task","null","null","null","","swim","arctic","547.6000001430511","","N","null","77","77","1","swim-dual-task","","N","uppercase","644000","0","6","4ba927e140bf012b1ef94da77df200063b7cece47978022b466cd6082736d184","644013.7999999523","547.6000001430511","77","1","swim","","","","",""
"dual-task","null","null","null","","swim","arctic","625","","F","null","77","77","1","swim-dual-task","","F","uppercase","654000","0","6","4ba927e140bf012b1ef94da77df200063b7cece47978022b466cd6082736d184","654009.7999999523","625","77","1","swim","","","","",""
"dual-task","null","null","null","","swim","arctic","496.2000000476837","","T","null","77","77","1","swim-dual-task","","T","uppercase","668000","0","6","4ba927e140bf012b1ef94da77df200063b7cece47978022b466cd6082736d184","668003.7000000477","496.2000000476837","77","1","swim","","","","",""
"dual-task","null","null","null","","swim","arctic","585.0999999046326","","d","null","88","88","1","swim-dual-task","","d","lowercase","676000","0","6","4ba927e140bf012b1ef94da77df200063b7cece47978022b466cd6082736d184","676010.9000000954","585.0999999046326","88","1","swim","","","","",""
"dual-task","null","null","null","","swim","arctic","494.19999980926514","","B","null","77","77","1","swim-dual-task","","B","uppercase","686000","0","6","4ba927e140bf012b1ef94da77df200063b7cece47978022b466cd6082736d184","686007.9000000954","494.19999980926514","77","1","swim","","","","",""
"dual-task","null","null","null","","swim","arctic","837.7000000476837","","g","null","88","88","1","swim-dual-task","","g","lowercase","698000","0","6","4ba927e140bf012b1ef94da77df200063b7cece47978022b466cd6082736d184","698002","837.7000000476837","88","1","swim","","","","",""
"dual-task","null","null","null","","swim","arctic","567.8999998569489","","Q","null","77","77","1","swim-dual-task","","Q","uppercase","708000","0","6","4ba927e140bf012b1ef94da77df200063b7cece47978022b466cd6082736d184","708015.7000000477","567.8999998569489","77","1","swim","","","","",""
"dual-task","null","null","null","","swim","arctic","1239.5999999046326","","B","null","77","77","1","swim-dual-task","","B","uppercase","720000","0","6","4ba927e140bf012b1ef94da77df200063b7cece47978022b466cd6082736d184","720009.9000000954","1239.5999999046326","77","1","swim","","","","",""
"dual-task","null","null","null","","swim","arctic","615.7999999523163","","A","null","77","77","1","swim-dual-task","","A","uppercase","728000","0","6","4ba927e140bf012b1ef94da77df200063b7cece47978022b466cd6082736d184","728009.9000000954","615.7999999523163","77","1","swim","","","","",""
"dual-task","null","null","null","","swim","arctic","696.9000000953674","","Q","null","77","77","1","swim-dual-task","","Q","uppercase","740000","0","6","4ba927e140bf012b1ef94da77df200063b7cece47978022b466cd6082736d184","740011","696.9000000953674","77","1","swim","","","","",""
"dual-task","null","null","null","","swim","arctic","489.2999999523163","","a","null","88","88","1","swim-dual-task","","a","lowercase","754000","0","6","4ba927e140bf012b1ef94da77df200063b7cece47978022b466cd6082736d184","754011.9000000954","489.2999999523163","88","1","swim","","","","",""
"dual-task","null","null","null","","swim","arctic","592.5","","B","null","77","77","1","swim-dual-task","","B","uppercase","762000","0","6","4ba927e140bf012b1ef94da77df200063b7cece47978022b466cd6082736d184","762012.7999999523","592.5","77","1","swim","","","","",""
"dual-task","null","null","null","","swim","arctic","838","","g","null","88","88","1","swim-dual-task","","g","lowercase","770000","0","6","4ba927e140bf012b1ef94da77df200063b7cece47978022b466cd6082736d184","770008.9000000954","838","88","1","swim","","","","",""
"dual-task","null","null","null","","swim","arctic","503.09999990463257","","N","null","77","77","1","swim-dual-task","","N","uppercase","778000","0","6","4ba927e140bf012b1ef94da77df200063b7cece47978022b466cd6082736d184","778007.9000000954","503.09999990463257","77","1","swim","","","","",""
"dual-task","null","null","null","","swim","arctic","698.2999999523163","","D","null","77","77","1","swim-dual-task","","D","uppercase","786000","0","6","4ba927e140bf012b1ef94da77df200063b7cece47978022b466cd6082736d184","786006.9000000954","698.2999999523163","77","1","swim","","","","",""
"dual-task","null","null","null","","swim","arctic","934.2999999523163","","t","null","88","88","1","swim-dual-task","","t","lowercase","800000","0","6","4ba927e140bf012b1ef94da77df200063b7cece47978022b466cd6082736d184","800011.7999999523","934.2999999523163","88","1","swim","","","","",""
"audio-keyboard-response","29","876237","0.0-7.0-0.0-1.0","4ba927e140bf012b1ef94da77df200063b7cece47978022b466cd6082736d184","swim","arctic","null","","audio/story_swim.mp3","","null","","","","","","","","","","","","","","","","","","","",""
"html-button-response","30","884337","0.0-7.0-0.0-2.0","4ba927e140bf012b1ef94da77df200063b7cece47978022b466cd6082736d184","swim","arctic","8098","","<p>This concludes the story. Thank you for listening.</p><p>You will now answer some questions about the content of the story.</p>","0","","","","","","","","","","","","","","","","","","","","",""
"survey-multi-choice","31","892950","0.0-7.0-0.0-3.0-0.0","4ba927e140bf012b1ef94da77df200063b7cece47978022b466cd6082736d184","swim","arctic","8611","","<b>How often does the narrator swim, now that he is a good swimmer?</b>","","","","1","swim-comprehension","","","","","","","","","","","","","{""Q0"":""Never swam again in his life""}","","","",""
"survey-multi-choice","32","908112","0.0-7.0-0.0-3.0-0.1","4ba927e140bf012b1ef94da77df200063b7cece47978022b466cd6082736d184","swim","arctic","14907","","<b>How many times did the astronaut candidates have to complete the final exercise to pass?</b>","","","","1","swim-comprehension","","","","","","","","","","","","","{""Q0"":""Two""}","","","",""
"survey-multi-choice","33","918825","0.0-7.0-0.0-3.0-0.2","4ba927e140bf012b1ef94da77df200063b7cece47978022b466cd6082736d184","swim","arctic","10460","","<b>What gave the narrator his greatest feeling of accomplishment?</b>","","","","1","swim-comprehension","","","","","","","","","","","","","{""Q0"":""Passing the water survival course""}","","","",""
"survey-multi-choice","34","928026","0.0-7.0-0.0-3.0-0.3","4ba927e140bf012b1ef94da77df200063b7cece47978022b466cd6082736d184","swim","arctic","8948","","<b>How did the narrator train for his swim test?</b>","","","","0","swim-comprehension","","","","","","","","","","","","","{""Q0"":""Swam at the lake every day""}","","","",""
"survey-multi-choice","35","930962","0.0-7.0-0.0-3.0-0.4","4ba927e140bf012b1ef94da77df200063b7cece47978022b466cd6082736d184","swim","arctic","2683","","<b>Where is the home of naval aviation?</b>","","","","1","swim-comprehension","","","","","","","","","","","","","{""Q0"":""Pensacola""}","","","",""
"survey-multi-choice","36","935107","0.0-7.0-0.0-3.0-0.5","4ba927e140bf012b1ef94da77df200063b7cece47978022b466cd6082736d184","swim","arctic","3890","","<b>How many astronaut candidates reported for duty at the Johnson Space Center?</b>","","","","1","swim-comprehension","","","","","","","","","","","","","{""Q0"":""Forty-four""}","","","",""
"survey-multi-choice","37","938803","0.0-7.0-0.0-3.0-0.6","4ba927e140bf012b1ef94da77df200063b7cece47978022b466cd6082736d184","swim","arctic","3444","","<b>What is the narrator afraid of, aside from the water?</b>","","","","1","swim-comprehension","","","","","","","","","","","","","{""Q0"":""Heights""}","","","",""
"survey-multi-choice","38","947932","0.0-7.0-0.0-3.0-0.7","4ba927e140bf012b1ef94da77df200063b7cece47978022b466cd6082736d184","swim","arctic","8877","","<b>What was the final step of the first swim test in the pool?</b>","","","","1","swim-comprehension","","","","","","","","","","","","","{""Q0"":""Tread water with hands above the water""}","","","",""
"survey-multi-choice","39","959765","0.0-7.0-0.0-3.0-0.8","4ba927e140bf012b1ef94da77df200063b7cece47978022b466cd6082736d184","swim","arctic","11579","","<b>What were the astronaut candidates trained to do at the naval air station?</b>","","","","1","swim-comprehension","","","","","","","","","","","","","{""Q0"":""Eject out of aircraft and survive in water long enough to be rescued""}","","","",""
"survey-multi-choice","40","962958","0.0-7.0-0.0-3.0-0.9","4ba927e140bf012b1ef94da77df200063b7cece47978022b466cd6082736d184","swim","arctic","2939","","<b>How many astronaut candidates passed the first swim test?</b>","","","","1","swim-comprehension","","","","","","","","","","","","","{""Q0"":""All of them""}","","","",""
"html-button-response","41","970286","0.0-7.0-0.0-4.0","4ba927e140bf012b1ef94da77df200063b7cece47978022b466cd6082736d184","swim","arctic","7077","","<p>Thank you for your responses.</p><p>You will now answer some questions about your impressions of the story.</p>","0","","","","","","","","","","","","","","","","","","","","",""
"html-button-response","42","976706","0.0-7.0-0.0-5.0-0.0","4ba927e140bf012b1ef94da77df200063b7cece47978022b466cd6082736d184","swim","arctic","6418","","EE3","6","","","","swim-engagement","","","","","","","","","","","","","","7","emo-engage","",""
"html-button-response","43","978771","0.0-7.0-0.0-5.0-0.1","4ba927e140bf012b1ef94da77df200063b7cece47978022b466cd6082736d184","swim","arctic","1814","","E6","6","","","","swim-engagement","","","","","","","","","","","","","","7","enjoyment","",""
"html-button-response","44","980142","0.0-7.0-0.0-5.0-0.2","4ba927e140bf012b1ef94da77df200063b7cece47978022b466cd6082736d184","swim","arctic","1118","","E10","6","","","","swim-engagement","","","","","","","","","","","","","","7","enjoyment","",""
"html-button-response","45","981429","0.0-7.0-0.0-5.0-0.3","4ba927e140bf012b1ef94da77df200063b7cece47978022b466cd6082736d184","swim","arctic","1037","","E7","6","","","","swim-engagement","","","","","","","","","","","","","","7","enjoyment","",""
"html-button-response","46","982584","0.0-7.0-0.0-5.0-0.4","4ba927e140bf012b1ef94da77df200063b7cece47978022b466cd6082736d184","swim","arctic","903","","E8","6","","","","swim-engagement","","","","","","","","","","","","","","7","enjoyment","",""
"html-button-response","47","985037","0.0-7.0-0.0-5.0-0.5","4ba927e140bf012b1ef94da77df200063b7cece47978022b466cd6082736d184","swim","arctic","2201","","A5","4","","","","swim-engagement","","","","","","","","","","","","","","5","absorption","",""
"html-button-response","48","987606","0.0-7.0-0.0-5.0-0.6","4ba927e140bf012b1ef94da77df200063b7cece47978022b466cd6082736d184","swim","arctic","2319","","EE1","6","","","","swim-engagement","","","","","","","","","","","","","","7","emo-engage","",""
"html-button-response","49","989618","0.0-7.0-0.0-5.0-0.7","4ba927e140bf012b1ef94da77df200063b7cece47978022b466cd6082736d184","swim","arctic","1761","","EE4","6","","","","swim-engagement","","","","","","","","","","","","","","7","emo-engage","",""
"html-button-response","50","992687","0.0-7.0-0.0-5.0-0.8","4ba927e140bf012b1ef94da77df200063b7cece47978022b466cd6082736d184","swim","arctic","2816","","A4","5","","","","swim-engagement","","","","","","","","","","","","","","6","absorption","",""
"html-button-response","51","995395","0.0-7.0-0.0-5.0-0.9","4ba927e140bf012b1ef94da77df200063b7cece47978022b466cd6082736d184","swim","arctic","2456","","EE2","5","","","","swim-engagement","","","","","","","","","","","","","","6","emo-engage","",""
"html-button-response","52","998104","0.0-7.0-0.0-5.0-0.10","4ba927e140bf012b1ef94da77df200063b7cece47978022b466cd6082736d184","swim","arctic","2457","","A2","6","","","","swim-engagement","","","","","","","","","","","","","","7","absorption","",""
"html-button-response","53","999225","0.0-7.0-0.0-5.0-0.11","4ba927e140bf012b1ef94da77df200063b7cece47978022b466cd6082736d184","swim","arctic","870","","E1","6","","","","swim-engagement","","","","","","","","","","","","","","7","enjoyment","",""
"html-button-response","54","1000507","0.0-7.0-0.0-5.0-0.12","4ba927e140bf012b1ef94da77df200063b7cece47978022b466cd6082736d184","swim","arctic","1030","","EE5","6","","","","swim-engagement","","","","","","","","","","","","","","7","emo-engage","",""
"html-button-response","55","1004194","0.0-7.0-0.0-5.0-0.13","4ba927e140bf012b1ef94da77df200063b7cece47978022b466cd6082736d184","swim","arctic","3435","","A1","4","","","","swim-engagement","","","","","","","","","","","","","","5","absorption","",""
"html-button-response","56","1006076","0.0-7.0-0.0-5.0-0.14","4ba927e140bf012b1ef94da77df200063b7cece47978022b466cd6082736d184","swim","arctic","1631","","A3","6","","","","swim-engagement","","","","","","","","","","","","","","7","absorption","",""
"html-button-response","57","1007960","0.0-7.0-0.0-5.0-0.15","4ba927e140bf012b1ef94da77df200063b7cece47978022b466cd6082736d184","swim","arctic","1633","","MS1","6","","","","swim-engagement","","","","","","","","","","","","","","7","mental-sim","",""
"html-button-response","58","1010595","0.0-7.0-0.0-5.0-0.16","4ba927e140bf012b1ef94da77df200063b7cece47978022b466cd6082736d184","swim","arctic","2382","","MS3","6","","","","swim-engagement","","","","","","","","","","","","","","7","mental-sim","",""
"html-button-response","59","1013281","0.0-7.0-0.0-5.0-0.17","4ba927e140bf012b1ef94da77df200063b7cece47978022b466cd6082736d184","swim","arctic","2434","","MS2","6","","","","swim-engagement","","","","","","","","","","","","","","7","mental-sim","",""
"html-keyboard-response","60","1029989","0.0-7.0-1.0","4ba927e140bf012b1ef94da77df200063b7cece47978022b466cd6082736d184","swim","arctic","16456","","<p>Thank you for your responses. You will now listen to the second story.</p><p>Remember, as you listen to the story you will see letters appear on the screen.</br>As quickly as possible, press <b>&lt;x&gt;</b> if the letter is lowercase and <b>&lt;m&gt;</b> if the letter is uppercase.</p><p>Press <b>&lt;x&gt;</b> or <b>&lt;m&gt;</b> to begin listening!</p>","","88","","","","","","","","","","","","","","","","","","","",""
"html-keyboard-response","61","1030490","0.0-7.0-2.0-0.0","4ba927e140bf012b1ef94da77df200063b7cece47978022b466cd6082736d184","swim","arctic","null","","<div style=""font-size:60px;"" tabindex=""0"">+</div>","","null","","","","","","","","","","","","","","","","","","","",""
"dual-task","null","null","null","","swim","arctic","505.7999999523163","","N","null","77","77","1","arctic-dual-task","","N","uppercase","12000","0","6","4ba927e140bf012b1ef94da77df200063b7cece47978022b466cd6082736d184","12009.600000143051","505.7999999523163","77","1","arctic","","","","",""
"dual-task","null","null","null","","swim","arctic","643.4000000953674","","b","null","88","88","1","arctic-dual-task","","b","lowercase","24000","0","6","4ba927e140bf012b1ef94da77df200063b7cece47978022b466cd6082736d184","24009.299999952316","643.4000000953674","88","1","arctic","","","","",""
"dual-task","null","null","null","","swim","arctic","563.2000000476837","","T","null","77","77","1","arctic-dual-task","","T","uppercase","36000","0","6","4ba927e140bf012b1ef94da77df200063b7cece47978022b466cd6082736d184","36010.5","563.2000000476837","77","1","arctic","","","","",""
"dual-task","null","null","null","","swim","arctic","609.2000000476837","","e","null","88","88","1","arctic-dual-task","","e","lowercase","46000","0","6","4ba927e140bf012b1ef94da77df200063b7cece47978022b466cd6082736d184","46005.200000047684","609.2000000476837","88","1","arctic","","","","",""
"dual-task","null","null","null","","swim","arctic","556.8999998569489","","e","null","88","88","1","arctic-dual-task","","e","lowercase","60000","0","6","4ba927e140bf012b1ef94da77df200063b7cece47978022b466cd6082736d184","60003.10000014305","556.8999998569489","88","1","arctic","","","","",""
"dual-task","null","null","null","","swim","arctic","564.7000000476837","","g","null","88","88","1","arctic-dual-task","","g","lowercase","70000","0","6","4ba927e140bf012b1ef94da77df200063b7cece47978022b466cd6082736d184","70004.40000009537","564.7000000476837","88","1","arctic","","","","",""
"dual-task","null","null","null","","swim","arctic","556.7999999523163","","d","null","88","88","1","arctic-dual-task","","d","lowercase","82000","0","6","4ba927e140bf012b1ef94da77df200063b7cece47978022b466cd6082736d184","82006.10000014305","556.7999999523163","88","1","arctic","","","","",""
"dual-task","null","null","null","","swim","arctic","577.2999999523163","","N","null","77","77","1","arctic-dual-task","","N","uppercase","92000","0","6","4ba927e140bf012b1ef94da77df200063b7cece47978022b466cd6082736d184","92010.29999995232","577.2999999523163","77","1","arctic","","","","",""
"dual-task","null","null","null","","swim","arctic","782.7999999523163","","q","null","88","88","1","arctic-dual-task","","q","lowercase","104000","0","6","4ba927e140bf012b1ef94da77df200063b7cece47978022b466cd6082736d184","104014.10000014305","782.7999999523163","88","1","arctic","","","","",""
"dual-task","null","null","null","","swim","arctic","537.4000000953674","","H","null","77","77","1","arctic-dual-task","","H","uppercase","112000","0","6","4ba927e140bf012b1ef94da77df200063b7cece47978022b466cd6082736d184","112011.40000009537","537.4000000953674","77","1","arctic","","","","",""
"dual-task","null","null","null","","swim","arctic","569","","G","null","77","77","1","arctic-dual-task","","G","uppercase","120000","0","6","4ba927e140bf012b1ef94da77df200063b7cece47978022b466cd6082736d184","120006.10000014305","569","77","1","arctic","","","","",""
"dual-task","null","null","null","","swim","arctic","580.4000000953674","","T","null","77","77","1","arctic-dual-task","","T","uppercase","130000","0","6","4ba927e140bf012b1ef94da77df200063b7cece47978022b466cd6082736d184","130003.29999995232","580.4000000953674","77","1","arctic","","","","",""
"dual-task","null","null","null","","swim","arctic","560.5","","a","null","88","88","1","arctic-dual-task","","a","lowercase","136000","0","6","4ba927e140bf012b1ef94da77df200063b7cece47978022b466cd6082736d184","136007.10000014305","560.5","88","1","arctic","","","","",""
"dual-task","null","null","null","","swim","arctic","573","","d","null","88","88","1","arctic-dual-task","","d","lowercase","144000","0","6","4ba927e140bf012b1ef94da77df200063b7cece47978022b466cd6082736d184","144011.90000009537","573","88","1","arctic","","","","",""
"dual-task","null","null","null","","swim","arctic","757","","B","null","77","77","1","arctic-dual-task","","B","uppercase","158000","0","6","4ba927e140bf012b1ef94da77df200063b7cece47978022b466cd6082736d184","158005.29999995232","757","77","1","arctic","","","","",""
"dual-task","null","null","null","","swim","arctic","734.7000000476837","","g","null","88","88","1","arctic-dual-task","","g","lowercase","168000","0","6","4ba927e140bf012b1ef94da77df200063b7cece47978022b466cd6082736d184","168004.29999995232","734.7000000476837","88","1","arctic","","","","",""
"dual-task","null","null","null","","swim","arctic","601.1999998092651","","b","null","88","88","1","arctic-dual-task","","b","lowercase","178000","0","6","4ba927e140bf012b1ef94da77df200063b7cece47978022b466cd6082736d184","178003.10000014305","601.1999998092651","88","1","arctic","","","","",""
"dual-task","null","null","null","","swim","arctic","594.7000000476837","","B","null","77","77","1","arctic-dual-task","","B","uppercase","188000","0","6","4ba927e140bf012b1ef94da77df200063b7cece47978022b466cd6082736d184","188010.29999995232","594.7000000476837","77","1","arctic","","","","",""
"dual-task","null","null","null","","swim","arctic","606","","a","null","88","88","1","arctic-dual-task","","a","lowercase","202000","0","6","4ba927e140bf012b1ef94da77df200063b7cece47978022b466cd6082736d184","202001.29999995232","606","88","1","arctic","","","","",""
"dual-task","null","null","null","","swim","arctic","987.7999999523163","","d","null","88","88","1","arctic-dual-task","","d","lowercase","214000","0","6","4ba927e140bf012b1ef94da77df200063b7cece47978022b466cd6082736d184","214012.90000009537","987.7999999523163","88","1","arctic","","","","",""
"dual-task","null","null","null","","swim","arctic","666.3999998569489","","E","null","77","77","1","arctic-dual-task","","E","uppercase","220000","0","6","4ba927e140bf012b1ef94da77df200063b7cece47978022b466cd6082736d184","220006.10000014305","666.3999998569489","77","1","arctic","","","","",""
"dual-task","null","null","null","","swim","arctic","646.1000001430511","","H","null","77","77","1","arctic-dual-task","","H","uppercase","232000","0","6","4ba927e140bf012b1ef94da77df200063b7cece47978022b466cd6082736d184","232004.29999995232","646.1000001430511","77","1","arctic","","","","",""
"dual-task","null","null","null","","swim","arctic","613.8000001907349","","N","null","77","77","1","arctic-dual-task","","N","uppercase","240000","0","6","4ba927e140bf012b1ef94da77df200063b7cece47978022b466cd6082736d184","240013.29999995232","613.8000001907349","77","1","arctic","","","","",""
"dual-task","null","null","null","","swim","arctic","521.2999999523163","","n","null","88","88","1","arctic-dual-task","","n","lowercase","248000","0","6","4ba927e140bf012b1ef94da77df200063b7cece47978022b466cd6082736d184","248002.5","521.2999999523163","88","1","arctic","","","","",""
"dual-task","null","null","null","","swim","arctic","564.5","","n","null","88","88","1","arctic-dual-task","","n","lowercase","258000","0","6","4ba927e140bf012b1ef94da77df200063b7cece47978022b466cd6082736d184","258008.10000014305","564.5","88","1","arctic","","","","",""
"dual-task","null","null","null","","swim","arctic","579","","r","null","88","88","1","arctic-dual-task","","r","lowercase","270000","0","6","4ba927e140bf012b1ef94da77df200063b7cece47978022b466cd6082736d184","270003.40000009537","579","88","1","arctic","","","","",""
"dual-task","null","null","null","","swim","arctic","595.7000000476837","","A","null","77","77","1","arctic-dual-task","","A","uppercase","282000","0","6","4ba927e140bf012b1ef94da77df200063b7cece47978022b466cd6082736d184","282012.10000014305","595.7000000476837","77","1","arctic","","","","",""
"dual-task","null","null","null","","swim","arctic","560.9000000953674","","e","null","88","88","1","arctic-dual-task","","e","lowercase","292000","0","6","4ba927e140bf012b1ef94da77df200063b7cece47978022b466cd6082736d184","292015.2000000477","560.9000000953674","88","1","arctic","","","","",""
"dual-task","null","null","null","","swim","arctic","618.1000001430511","","r","null","88","88","1","arctic-dual-task","","r","lowercase","300000","0","6","4ba927e140bf012b1ef94da77df200063b7cece47978022b466cd6082736d184","300007.2000000477","618.1000001430511","88","1","arctic","","","","",""
"dual-task","null","null","null","","swim","arctic","579.3000001907349","","F","null","77","77","1","arctic-dual-task","","F","uppercase","306000","0","6","4ba927e140bf012b1ef94da77df200063b7cece47978022b466cd6082736d184","306014.2999999523","579.3000001907349","77","1","arctic","","","","",""
"dual-task","null","null","null","","swim","arctic","563","","N","null","77","77","1","arctic-dual-task","","N","uppercase","312000","0","6","4ba927e140bf012b1ef94da77df200063b7cece47978022b466cd6082736d184","312008.10000014305","563","77","1","arctic","","","","",""
"dual-task","null","null","null","","swim","arctic","549.2999999523163","","f","null","88","88","1","arctic-dual-task","","f","lowercase","318000","0","6","4ba927e140bf012b1ef94da77df200063b7cece47978022b466cd6082736d184","318005.2000000477","549.2999999523163","88","1","arctic","","","","",""
"dual-task","null","null","null","","swim","arctic","559","","a","null","88","88","1","arctic-dual-task","","a","lowercase","332000","0","6","4ba927e140bf012b1ef94da77df200063b7cece47978022b466cd6082736d184","332006.2000000477","559","88","1","arctic","","","","",""
"dual-task","null","null","null","","swim","arctic","584.1999998092651","","A","null","77","77","1","arctic-dual-task","","A","uppercase","344000","0","6","4ba927e140bf012b1ef94da77df200063b7cece47978022b466cd6082736d184","344014.10000014305","584.1999998092651","77","1","arctic","","","","",""
"dual-task","null","null","null","","swim","arctic","559.4000000953674","","f","null","88","88","1","arctic-dual-task","","f","lowercase","350000","0","6","4ba927e140bf012b1ef94da77df200063b7cece47978022b466cd6082736d184","350007.2000000477","559.4000000953674","88","1","arctic","","","","",""
"dual-task","null","null","null","","swim","arctic","552.5","","E","null","77","77","1","arctic-dual-task","","E","uppercase","356000","0","6","4ba927e140bf012b1ef94da77df200063b7cece47978022b466cd6082736d184","356007.10000014305","552.5","77","1","arctic","","","","",""
"dual-task","null","null","null","","swim","arctic","606.3999998569489","","g","null","88","88","1","arctic-dual-task","","g","lowercase","368000","0","6","4ba927e140bf012b1ef94da77df200063b7cece47978022b466cd6082736d184","368002.40000009537","606.3999998569489","88","1","arctic","","","","",""
"dual-task","null","null","null","","swim","arctic","710.7999999523163","","f","null","88","88","1","arctic-dual-task","","f","lowercase","378000","0","6","4ba927e140bf012b1ef94da77df200063b7cece47978022b466cd6082736d184","378010.5","710.7999999523163","88","1","arctic","","","","",""
"dual-task","null","null","null","","swim","arctic","693.9000000953674","","r","null","88","88","1","arctic-dual-task","","r","lowercase","390000","0","6","4ba927e140bf012b1ef94da77df200063b7cece47978022b466cd6082736d184","390005.2000000477","693.9000000953674","88","1","arctic","","","","",""
"dual-task","null","null","null","","swim","arctic","560.7000000476837","","R","null","77","77","1","arctic-dual-task","","R","uppercase","402000","0","6","4ba927e140bf012b1ef94da77df200063b7cece47978022b466cd6082736d184","402011.5","560.7000000476837","77","1","arctic","","","","",""
"dual-task","null","null","null","","swim","arctic","992.7000000476837","","Q","null","77","77","1","arctic-dual-task","","Q","uppercase","408000","0","6","4ba927e140bf012b1ef94da77df200063b7cece47978022b466cd6082736d184","408003.2999999523","992.7000000476837","77","1","arctic","","","","",""
"dual-task","null","null","null","","swim","arctic","639","","q","null","88","88","1","arctic-dual-task","","q","lowercase","414000","0","6","4ba927e140bf012b1ef94da77df200063b7cece47978022b466cd6082736d184","414014.40000009537","639","88","1","arctic","","","","",""
"dual-task","null","null","null","","swim","arctic","890.0999999046326","","F","null","77","77","1","arctic-dual-task","","F","uppercase","428000","0","6","4ba927e140bf012b1ef94da77df200063b7cece47978022b466cd6082736d184","428004.7000000477","890.0999999046326","77","1","arctic","","","","",""
"dual-task","null","null","null","","swim","arctic","751.3999998569489","","n","null","88","88","1","arctic-dual-task","","n","lowercase","442000","0","6","4ba927e140bf012b1ef94da77df200063b7cece47978022b466cd6082736d184","442009.40000009537","751.3999998569489","88","1","arctic","","","","",""
"dual-task","null","null","null","","swim","arctic","566.7999999523163","","B","null","77","77","1","arctic-dual-task","","B","uppercase","448000","0","6","4ba927e140bf012b1ef94da77df200063b7cece47978022b466cd6082736d184","448009.40000009537","566.7999999523163","77","1","arctic","","","","",""
"dual-task","null","null","null","","swim","arctic","602.5","","t","null","88","88","1","arctic-dual-task","","t","lowercase","458000","0","6","4ba927e140bf012b1ef94da77df200063b7cece47978022b466cd6082736d184","458015.2999999523","602.5","88","1","arctic","","","","",""
"dual-task","null","null","null","","swim","arctic","756.4000000953674","","t","null","88","88","1","arctic-dual-task","","t","lowercase","468000","0","6","4ba927e140bf012b1ef94da77df200063b7cece47978022b466cd6082736d184","468014.5","756.4000000953674","88","1","arctic","","","","",""
"dual-task","null","null","null","","swim","arctic","611.2999999523163","","b","null","88","88","1","arctic-dual-task","","b","lowercase","476000","0","6","4ba927e140bf012b1ef94da77df200063b7cece47978022b466cd6082736d184","476008.2000000477","611.2999999523163","88","1","arctic","","","","",""
"dual-task","null","null","null","","swim","arctic","611.8999998569489","","F","null","77","77","1","arctic-dual-task","","F","uppercase","486000","0","6","4ba927e140bf012b1ef94da77df200063b7cece47978022b466cd6082736d184","486001.40000009537","611.8999998569489","77","1","arctic","","","","",""
"dual-task","null","null","null","","swim","arctic","499.09999990463257","","d","null","88","88","1","arctic-dual-task","","d","lowercase","496000","0","6","4ba927e140bf012b1ef94da77df200063b7cece47978022b466cd6082736d184","496010.40000009537","499.09999990463257","88","1","arctic","","","","",""
"dual-task","null","null","null","","swim","arctic","883","","F","null","77","77","1","arctic-dual-task","","F","uppercase","506000","0","6","4ba927e140bf012b1ef94da77df200063b7cece47978022b466cd6082736d184","506012.5","883","77","1","arctic","","","","",""
"dual-task","null","null","null","","swim","arctic","490.40000009536743","","n","null","88","88","1","arctic-dual-task","","n","lowercase","516000","0","6","4ba927e140bf012b1ef94da77df200063b7cece47978022b466cd6082736d184","516013.2999999523","490.40000009536743","88","1","arctic","","","","",""
"dual-task","null","null","null","","swim","arctic","538.6999998092651","","R","null","77","77","1","arctic-dual-task","","R","uppercase","524000","0","6","4ba927e140bf012b1ef94da77df200063b7cece47978022b466cd6082736d184","524014.60000014305","538.6999998092651","77","1","arctic","","","","",""
"dual-task","null","null","null","","swim","arctic","592","","T","null","77","77","1","arctic-dual-task","","T","uppercase","532000","0","6","4ba927e140bf012b1ef94da77df200063b7cece47978022b466cd6082736d184","532001.4000000954","592","77","1","arctic","","","","",""
"dual-task","null","null","null","","swim","arctic","840","","f","null","88","88","1","arctic-dual-task","","f","lowercase","540000","0","6","4ba927e140bf012b1ef94da77df200063b7cece47978022b466cd6082736d184","540010.9000000954","840","88","1","arctic","","","","",""
"dual-task","null","null","null","","swim","arctic","635.8000001907349","","g","null","88","88","1","arctic-dual-task","","g","lowercase","548000","0","6","4ba927e140bf012b1ef94da77df200063b7cece47978022b466cd6082736d184","548007.2000000477","635.8000001907349","88","1","arctic","","","","",""
"dual-task","null","null","null","","swim","arctic","593.5","","t","null","88","88","1","arctic-dual-task","","t","lowercase","558000","0","6","4ba927e140bf012b1ef94da77df200063b7cece47978022b466cd6082736d184","558010.7000000477","593.5","88","1","arctic","","","","",""
"dual-task","null","null","null","","swim","arctic","537.2999999523163","","Q","null","77","77","1","arctic-dual-task","","Q","uppercase","566000","0","6","4ba927e140bf012b1ef94da77df200063b7cece47978022b466cd6082736d184","566011.5","537.2999999523163","77","1","arctic","","","","",""
"dual-task","null","null","null","","swim","arctic","569.4000000953674","","D","null","77","77","1","arctic-dual-task","","D","uppercase","574000","0","6","4ba927e140bf012b1ef94da77df200063b7cece47978022b466cd6082736d184","574012.9000000954","569.4000000953674","77","1","arctic","","","","",""
"dual-task","null","null","null","","swim","arctic","603.4000000953674","","r","null","88","88","1","arctic-dual-task","","r","lowercase","582000","0","6","4ba927e140bf012b1ef94da77df200063b7cece47978022b466cd6082736d184","582002.7999999523","603.4000000953674","88","1","arctic","","","","",""
"dual-task","null","null","null","","swim","arctic","522.3000001907349","","D","null","77","77","1","arctic-dual-task","","D","uppercase","588000","0","6","4ba927e140bf012b1ef94da77df200063b7cece47978022b466cd6082736d184","588013.2999999523","522.3000001907349","77","1","arctic","","","","",""
"dual-task","null","null","null","","swim","arctic","554.8000001907349","","h","null","88","88","1","arctic-dual-task","","h","lowercase","596000","0","6","4ba927e140bf012b1ef94da77df200063b7cece47978022b466cd6082736d184","596013.2000000477","554.8000001907349","88","1","arctic","","","","",""
"dual-task","null","null","null","","swim","arctic","596.3000001907349","","T","null","77","77","1","arctic-dual-task","","T","uppercase","606000","0","6","4ba927e140bf012b1ef94da77df200063b7cece47978022b466cd6082736d184","606013.2999999523","596.3000001907349","77","1","arctic","","","","",""
"dual-task","null","null","null","","swim","arctic","494.59999990463257","","B","null","77","77","1","arctic-dual-task","","B","uppercase","616000","0","6","4ba927e140bf012b1ef94da77df200063b7cece47978022b466cd6082736d184","616011.4000000954","494.59999990463257","77","1","arctic","","","","",""
"dual-task","null","null","null","","swim","arctic","605.4000000953674","","Q","null","77","77","1","arctic-dual-task","","Q","uppercase","626000","0","6","4ba927e140bf012b1ef94da77df200063b7cece47978022b466cd6082736d184","626006.2999999523","605.4000000953674","77","1","arctic","","","","",""
"dual-task","null","null","null","","swim","arctic","812.6000001430511","","R","null","77","77","1","arctic-dual-task","","R","uppercase","634000","0","6","4ba927e140bf012b1ef94da77df200063b7cece47978022b466cd6082736d184","634015.2999999523","812.6000001430511","77","1","arctic","","","","",""
"dual-task","null","null","null","","swim","arctic","531.7999999523163","","E","null","77","77","1","arctic-dual-task","","E","uppercase","640000","0","6","4ba927e140bf012b1ef94da77df200063b7cece47978022b466cd6082736d184","640001.5","531.7999999523163","77","1","arctic","","","","",""
"dual-task","null","null","null","","swim","arctic","593.0999999046326","","h","null","88","88","1","arctic-dual-task","","h","lowercase","648000","0","6","4ba927e140bf012b1ef94da77df200063b7cece47978022b466cd6082736d184","648012.2000000477","593.0999999046326","88","1","arctic","","","","",""
"dual-task","null","null","null","","swim","arctic","427.59999990463257","","Q","null","77","77","1","arctic-dual-task","","Q","uppercase","660000","0","6","4ba927e140bf012b1ef94da77df200063b7cece47978022b466cd6082736d184","660011.600000143","427.59999990463257","77","1","arctic","","","","",""
"dual-task","null","null","null","","swim","arctic","499","","A","null","77","77","1","arctic-dual-task","","A","uppercase","668000","0","6","4ba927e140bf012b1ef94da77df200063b7cece47978022b466cd6082736d184","668004.4000000954","499","77","1","arctic","","","","",""
"dual-task","null","null","null","","swim","arctic","662.2999999523163","","h","null","88","88","1","arctic-dual-task","","h","lowercase","676000","0","6","4ba927e140bf012b1ef94da77df200063b7cece47978022b466cd6082736d184","676011","662.2999999523163","88","1","arctic","","","","",""
"dual-task","null","null","null","","swim","arctic","487","","R","null","77","77","1","arctic-dual-task","","R","uppercase","686000","0","6","4ba927e140bf012b1ef94da77df200063b7cece47978022b466cd6082736d184","686010.2999999523","487","77","1","arctic","","","","",""
"dual-task","null","null","null","","swim","arctic","519.5999999046326","","G","null","77","77","1","arctic-dual-task","","G","uppercase","692000","0","6","4ba927e140bf012b1ef94da77df200063b7cece47978022b466cd6082736d184","692011.2000000477","519.5999999046326","77","1","arctic","","","","",""
"dual-task","null","null","null","","swim","arctic","459.7000000476837","","A","null","77","77","1","arctic-dual-task","","A","uppercase","702000","0","6","4ba927e140bf012b1ef94da77df200063b7cece47978022b466cd6082736d184","702007.2000000477","459.7000000476837","77","1","arctic","","","","",""
"dual-task","null","null","null","","swim","arctic","398.5","","D","null","77","77","1","arctic-dual-task","","D","uppercase","710000","0","6","4ba927e140bf012b1ef94da77df200063b7cece47978022b466cd6082736d184","710006","398.5","77","1","arctic","","","","",""
"dual-task","null","null","null","","swim","arctic","521.5","","E","null","77","77","1","arctic-dual-task","","E","uppercase","716000","0","6","4ba927e140bf012b1ef94da77df200063b7cece47978022b466cd6082736d184","716003","521.5","77","1","arctic","","","","",""
"dual-task","null","null","null","","swim","arctic","1147","","G","null","77","77","1","arctic-dual-task","","G","uppercase","724000","0","6","4ba927e140bf012b1ef94da77df200063b7cece47978022b466cd6082736d184","724011.2999999523","1147","77","1","arctic","","","","",""
"dual-task","null","null","null","","swim","arctic","432.09999990463257","","e","null","88","88","1","arctic-dual-task","","e","lowercase","732000","0","6","4ba927e140bf012b1ef94da77df200063b7cece47978022b466cd6082736d184","732014.2000000477","432.09999990463257","88","1","arctic","","","","",""
"dual-task","null","null","null","","swim","arctic","620.2999999523163","","t","null","88","88","1","arctic-dual-task","","t","lowercase","740000","0","6","4ba927e140bf012b1ef94da77df200063b7cece47978022b466cd6082736d184","740004","620.2999999523163","88","1","arctic","","","","",""
"dual-task","null","null","null","","swim","arctic","593.6999998092651","","q","null","88","88","1","arctic-dual-task","","q","lowercase","748000","0","6","4ba927e140bf012b1ef94da77df200063b7cece47978022b466cd6082736d184","748006.100000143","593.6999998092651","88","1","arctic","","","","",""
"dual-task","null","null","null","","swim","arctic","1147.6999998092651","","H","null","77","77","1","arctic-dual-task","","H","uppercase","760000","0","6","4ba927e140bf012b1ef94da77df200063b7cece47978022b466cd6082736d184","760014.100000143","1147.6999998092651","77","1","arctic","","","","",""
"dual-task","null","null","null","","swim","arctic","424","","a","null","88","88","1","arctic-dual-task","","a","lowercase","770000","0","6","4ba927e140bf012b1ef94da77df200063b7cece47978022b466cd6082736d184","770002.2000000477","424","88","1","arctic","","","","",""
"dual-task","null","null","null","","swim","arctic","484.19999980926514","","b","null","88","88","1","arctic-dual-task","","b","lowercase","776000","0","6","4ba927e140bf012b1ef94da77df200063b7cece47978022b466cd6082736d184","776015.100000143","484.19999980926514","88","1","arctic","","","","",""
"dual-task","null","null","null","","swim","arctic","518.8999998569489","","D","null","77","77","1","arctic-dual-task","","D","uppercase","790000","0","6","4ba927e140bf012b1ef94da77df200063b7cece47978022b466cd6082736d184","790014.4000000954","518.8999998569489","77","1","arctic","","","","",""
"audio-keyboard-response","62","1828598","0.0-7.0-2.0-1.0","4ba927e140bf012b1ef94da77df200063b7cece47978022b466cd6082736d184","swim","arctic","null","","audio/story_arctic_scrambled.mp3","","null","","","","","","","","","","","","","","","","","","","",""
"html-button-response","63","1841355","0.0-7.0-2.0-2.0","4ba927e140bf012b1ef94da77df200063b7cece47978022b466cd6082736d184","swim","arctic","12757","","<p>This concludes the story. Thank you for listening.</p><p>You will now answer some questions about the content of the story.</p>","0","","","","","","","","","","","","","","","","","","","","",""
"survey-multi-choice","64","1846754","0.0-7.0-2.0-3.0-0.0","4ba927e140bf012b1ef94da77df200063b7cece47978022b466cd6082736d184","swim","arctic","5398","","<b>How did the dogs respond when they saw the bears?</b>","","","","1","arctic-comprehension","","","","","","","","","","","","","{""Q0"":""Approached them""}","","","",""
"survey-multi-choice","65","1854923","0.0-7.0-2.0-3.0-0.1","4ba927e140bf012b1ef94da77df200063b7cece47978022b466cd6082736d184","swim","arctic","7916","","<b>How did the narrator prepare for her expedition?</b>","","","","1","arctic-comprehension","","","","","","","","","","","","","{""Q0"":""Trained in Alaska learning how to dogsled""}","","","",""
"survey-multi-choice","66","1858884","0.0-7.0-2.0-3.0-0.2","4ba927e140bf012b1ef94da77df200063b7cece47978022b466cd6082736d184","swim","arctic","3699","","<b>Which dog on the narrator&#39;s dog team never followed instructions?</b>","","","","1","arctic-comprehension","","","","","","","","","","","","","{""Q0"":""Robert""}","","","",""
"survey-multi-choice","67","1863933","0.0-7.0-2.0-3.0-0.3","4ba927e140bf012b1ef94da77df200063b7cece47978022b466cd6082736d184","swim","arctic","4797","","<b>How many sponsorships did the narrator receive to support her expedition?</b>","","","","0","arctic-comprehension","","","","","","","","","","","","","{""Q0"":""Ten""}","","","",""
"survey-multi-choice","68","1876789","0.0-7.0-2.0-3.0-0.4","4ba927e140bf012b1ef94da77df200063b7cece47978022b466cd6082736d184","swim","arctic","12604","","<b>What were the weather conditions in the Arctic like the winter of the narrator&#39;s expedition?</b>","","","","0","arctic-comprehension","","","","","","","","","","","","","{""Q0"":""It was the coldest winter in recorded history.""}","","","",""
"survey-multi-choice","69","1886654","0.0-7.0-2.0-3.0-0.5","4ba927e140bf012b1ef94da77df200063b7cece47978022b466cd6082736d184","swim","arctic","9613","","<b>How did the narrator&#39;s neighbour respond when she told him about her expedition?</b>","","","","0","arctic-comprehension","","","","","","","","","","","","","{""Q0"":""He said he was worried about her.""}","","","",""
"survey-multi-choice","70","1896288","0.0-7.0-2.0-3.0-0.6","4ba927e140bf012b1ef94da77df200063b7cece47978022b466cd6082736d184","swim","arctic","9381","","<b>How did the narrator&#39;s encounter with the polar bears end?</b>","","","","1","arctic-comprehension","","","","","","","","","","","","","{""Q0"":""The bears walked back to their den.""}","","","",""
"survey-multi-choice","71","1906481","0.0-7.0-2.0-3.0-0.7","4ba927e140bf012b1ef94da77df200063b7cece47978022b466cd6082736d184","swim","arctic","9941","","<b>What did the narrator do for leisure while in her tent?</b>","","","","1","arctic-comprehension","","","","","","","","","","","","","{""Q0"":""Read""}","","","",""
"survey-multi-choice","72","1912321","0.0-7.0-2.0-3.0-0.8","4ba927e140bf012b1ef94da77df200063b7cece47978022b466cd6082736d184","swim","arctic","5587","","<b>What is the name of the narrator&#39;s neighbour?</b>","","","","1","arctic-comprehension","","","","","","","","","","","","","{""Q0"":""Dave""}","","","",""
"survey-multi-choice","73","1918642","0.0-7.0-2.0-3.0-0.9","4ba927e140bf012b1ef94da77df200063b7cece47978022b466cd6082736d184","swim","arctic","6069","","<b>What was the objective of the narrator&#39;s expedition?</b>","","","","1","arctic-comprehension","","","","","","","","","","","","","{""Q0"":""Dogsled across Arctic America""}","","","",""
"html-button-response","74","1920338","0.0-7.0-2.0-4.0","4ba927e140bf012b1ef94da77df200063b7cece47978022b466cd6082736d184","swim","arctic","1445","","<p>Thank you for your responses.</p><p>You will now answer some questions about your impressions of the story.</p>","0","","","","","","","","","","","","","","","","","","","","",""
"html-button-response","75","1928156","0.0-7.0-2.0-5.0-0.0","4ba927e140bf012b1ef94da77df200063b7cece47978022b466cd6082736d184","swim","arctic","7816","","EE1","5","","","","arctic-engagement","","","","","","","","","","","","","","6","emo-engage","",""
"html-button-response","76","1932930","0.0-7.0-2.0-5.0-0.1","4ba927e140bf012b1ef94da77df200063b7cece47978022b466cd6082736d184","swim","arctic","4522","","EE5","4","","","","arctic-engagement","","","","","","","","","","","","","","5","emo-engage","",""
"html-button-response","77","1934780","0.0-7.0-2.0-5.0-0.2","4ba927e140bf012b1ef94da77df200063b7cece47978022b466cd6082736d184","swim","arctic","1598","","EE2","5","","","","arctic-engagement","","","","","","","","","","","","","","6","emo-engage","",""
"html-button-response","78","1937192","0.0-7.0-2.0-5.0-0.3","4ba927e140bf012b1ef94da77df200063b7cece47978022b466cd6082736d184","swim","arctic","2160","","A5","4","","","","arctic-engagement","","","","","","","","","","","","","","5","absorption","",""
"html-button-response","79","1940862","0.0-7.0-2.0-5.0-0.4","4ba927e140bf012b1ef94da77df200063b7cece47978022b466cd6082736d184","swim","arctic","3419","","E10","2","","","","arctic-engagement","","","","","","","","","","","","","","3","enjoyment","",""
"html-button-response","80","1943841","0.0-7.0-2.0-5.0-0.5","4ba927e140bf012b1ef94da77df200063b7cece47978022b466cd6082736d184","swim","arctic","2718","","E8","3","","","","arctic-engagement","","","","","","","","","","","","","","4","enjoyment","",""
"html-button-response","81","1945725","0.0-7.0-2.0-5.0-0.6","4ba927e140bf012b1ef94da77df200063b7cece47978022b466cd6082736d184","swim","arctic","1634","","E6","4","","","","arctic-engagement","","","","","","","","","","","","","","5","enjoyment","",""
"html-button-response","82","1949217","0.0-7.0-2.0-5.0-0.7","4ba927e140bf012b1ef94da77df200063b7cece47978022b466cd6082736d184","swim","arctic","3241","","A2","4","","","","arctic-engagement","","","","","","","","","","","","","","5","absorption","",""
"html-button-response","83","1952342","0.0-7.0-2.0-5.0-0.8","4ba927e140bf012b1ef94da77df200063b7cece47978022b466cd6082736d184","swim","arctic","2872","","E7","4","","","","arctic-engagement","","","","","","","","","","","","","","5","enjoyment","",""
"html-button-response","84","1954328","0.0-7.0-2.0-5.0-0.9","4ba927e140bf012b1ef94da77df200063b7cece47978022b466cd6082736d184","swim","arctic","1735","","EE3","4","","","","arctic-engagement","","","","","","","","","","","","","","5","emo-engage","",""
"html-button-response","85","1956628","0.0-7.0-2.0-5.0-0.10","4ba927e140bf012b1ef94da77df200063b7cece47978022b466cd6082736d184","swim","arctic","2050","","A4","3","","","","arctic-engagement","","","","","","","","","","","","","","4","absorption","",""
"html-button-response","86","1959662","0.0-7.0-2.0-5.0-0.11","4ba927e140bf012b1ef94da77df200063b7cece47978022b466cd6082736d184","swim","arctic","2783","","A3","4","","","","arctic-engagement","","","","","","","","","","","","","","5","absorption","",""
"html-button-response","87","1962003","0.0-7.0-2.0-5.0-0.12","4ba927e140bf012b1ef94da77df200063b7cece47978022b466cd6082736d184","swim","arctic","2088","","EE4","3","","","","arctic-engagement","","","","","","","","","","","","","","4","emo-engage","",""
"html-button-response","88","1965999","0.0-7.0-2.0-5.0-0.13","4ba927e140bf012b1ef94da77df200063b7cece47978022b466cd6082736d184","swim","arctic","3746","","MS2","3","","","","arctic-engagement","","","","","","","","","","","","","","4","mental-sim","",""
"html-button-response","89","1968851","0.0-7.0-2.0-5.0-0.14","4ba927e140bf012b1ef94da77df200063b7cece47978022b466cd6082736d184","swim","arctic","2601","","E1","3","","","","arctic-engagement","","","","","","","","","","","","","","4","enjoyment","",""
"html-button-response","90","1971992","0.0-7.0-2.0-5.0-0.15","4ba927e140bf012b1ef94da77df200063b7cece47978022b466cd6082736d184","swim","arctic","2889","","A1","4","","","","arctic-engagement","","","","","","","","","","","","","","5","absorption","",""
"html-button-response","91","1975500","0.0-7.0-2.0-5.0-0.16","4ba927e140bf012b1ef94da77df200063b7cece47978022b466cd6082736d184","swim","arctic","3257","","MS1","5","","","","arctic-engagement","","","","","","","","","","","","","","6","mental-sim","",""
"html-button-response","92","1977976","0.0-7.0-2.0-5.0-0.17","4ba927e140bf012b1ef94da77df200063b7cece47978022b466cd6082736d184","swim","arctic","2225","","MS3","6","","","","arctic-engagement","","","","","","","","","","","","","","7","mental-sim","",""
"html-button-response","93","1980099","0.0-8.0","4ba927e140bf012b1ef94da77df200063b7cece47978022b466cd6082736d184","swim","arctic","1871","","<p>Thank you for your responses.</p><p>You will now answer some demographic, hearing, and general health questions.</p>","0","","","","","","","","","","","","","","","","","","","","",""
"survey-multi-choice","94","1984625","0.0-9.0-0.0","4ba927e140bf012b1ef94da77df200063b7cece47978022b466cd6082736d184","swim","arctic","4525","","","","","","","survey","","","","","","","","","","","","","{""Q0"":""Chrome""}","","","browser",""
"survey-text","95","1986986","0.0-9.0-1.0","4ba927e140bf012b1ef94da77df200063b7cece47978022b466cd6082736d184","swim","arctic","2106.4000000953674","","","","","","","survey","","","","","","","","","","","","","{""AGE"":""30""}","","","age","30"
"survey-multi-choice","96","1988890","0.0-9.0-2.0","4ba927e140bf012b1ef94da77df200063b7cece47978022b466cd6082736d184","swim","arctic","1650","","","","","","","survey","","","","","","","","","","","","","{""Q0"":""Male""}","","","gender","Male"
"survey-multi-choice","97","1991058","0.0-9.0-4.0","4ba927e140bf012b1ef94da77df200063b7cece47978022b466cd6082736d184","swim","arctic","1914","","","","","","","survey","","","","","","","","","","","","","{""Q0"":""Right""}","","","handedness","Right"
"survey-multi-choice","98","1994402","0.0-9.0-5.0","4ba927e140bf012b1ef94da77df200063b7cece47978022b466cd6082736d184","swim","arctic","3075","","","","","","","survey","","","","","","","","","","","","","{""Q0"":""Bachelor's Degree""}","","","education","Bachelor's Degree"
"survey-text","99","1998011","0.0-10.0-0.0","4ba927e140bf012b1ef94da77df200063b7cece47978022b466cd6082736d184","swim","arctic","3354.800000190735","","","","","","","survey","","","","","","","","","","","","","{""L1"":""English""}","","","first-language","English"
"survey-text","100","2028085","0.0-10.0-1.0","4ba927e140bf012b1ef94da77df200063b7cece47978022b466cd6082736d184","swim","arctic","29817.400000095367","","","","","","","survey","","","","","","","","","","","","","{""L2name"":""French"",""L2fluency"":""2"",""L3name"":""Spanish"",""L3fluency"":""2"",""L4name"":""Japanese"",""L4fluency"":""3""}","","","additional-languages","{""L2name"":""French"",""L2fluency"":""2"",""L3name"":""Spanish"",""L3fluency"":""2"",""L4name"":""Japanese"",""L4fluency"":""3""}"
"survey-multi-choice","101","2030510","0.0-10.0-2.0","4ba927e140bf012b1ef94da77df200063b7cece47978022b466cd6082736d184","swim","arctic","2171","","","","","","","survey","","","","","","","","","","","","","{""Q0"":""No""}","","","hearing-aid","No"
"survey-multi-choice","102","2034526","0.0-10.0-3.0","4ba927e140bf012b1ef94da77df200063b7cece47978022b466cd6082736d184","swim","arctic","3762","","","","","","","survey","","","","","","","","","","","","","{""Q0"":""Never""}","","","ringing-ears","Never"
"survey-multi-choice","103","2037623","0.0-10.0-5.0","4ba927e140bf012b1ef94da77df200063b7cece47978022b466cd6082736d184","swim","arctic","2838","","","","","","","survey","","","","","","","","","","","","","{""Q0"":""No""}","","","neuro-disease","No"
"survey-multi-choice","104","2040622","0.0-10.0-7.0","4ba927e140bf012b1ef94da77df200063b7cece47978022b466cd6082736d184","swim","arctic","2748","","","","","","","survey","","","","","","","","","","","","","{""Q0"":""No""}","","","take-meds","No"
"survey-text","105","2045040","0.0-10.0-9.0","4ba927e140bf012b1ef94da77df200063b7cece47978022b466cd6082736d184","swim","arctic","4117.100000143051","","","","","","","survey","","","","","","","","","","","","","{""HC"":""""}","","","health-concerns",""
"html-button-response","106","2049271","0.0-11.0-0.0","4ba927e140bf012b1ef94da77df200063b7cece47978022b466cd6082736d184","swim","arctic","3980","","<p>How would you describe your musical skills/experiences?</p>","4","","","","survey","","","","","","","","","","","","","","","","music-skill","5"
"survey-multi-choice","107","2052203","0.0-11.0-1.0","4ba927e140bf012b1ef94da77df200063b7cece47978022b466cd6082736d184","swim","arctic","2680","","","","","","","survey","","","","","","","","","","","","","{""Q0"":""Yes""}","","","music-instrument","Yes"
"survey-text","108","2056482","0.0-11.0-2.0-0.0","4ba927e140bf012b1ef94da77df200063b7cece47978022b466cd6082736d184","swim","arctic","4025.7000000476837","","","","","","","survey","","","","","","","","","","","","","{""MEXP"":""20""}","","","music-training-yrs","20"
"html-button-response","109","2059046","0.0-12.0-0.0","4ba927e140bf012b1ef94da77df200063b7cece47978022b466cd6082736d184","swim","arctic","2313","","<p>How would you describe your general hearing abilities?</p>","5","","","","survey","","","","","","","","","","","","","","","","ssq-01","6"
"html-button-response","110","2062731","0.0-12.0-1.0","4ba927e140bf012b1ef94da77df200063b7cece47978022b466cd6082736d184","swim","arctic","3433","","<p>When you talk with someone at a place that strongly reverberates/echoes (e.g., in a church or train station),</br>can you understand what the person says?</p>","9","","","","survey","","","","","","","","","","","","","","","","ssq-02","9"
"html-button-response","111","2065111","0.0-12.0-2.0","4ba927e140bf012b1ef94da77df200063b7cece47978022b466cd6082736d184","swim","arctic","2127","","<p>When you are with a group (~5 people) in a lively restaurant, can you follow the group's conversation?</p>","10","","","","survey","","","","","","","","","","","","","","","","ssq-03","10"
"html-button-response","112","2068611","0.0-12.0-3.0","4ba927e140bf012b1ef94da77df200063b7cece47978022b466cd6082736d184","swim","arctic","3250","","<p>Based on the sound of a bus or truck, can you tell whether it is moving towards or away from you?</p>","10","","","","survey","","","","","","","","","","","","","","","","ssq-04","10"
"html-button-response","113","2073750","0.0-12.0-4.0","4ba927e140bf012b1ef94da77df200063b7cece47978022b466cd6082736d184","swim","arctic","4887","","<p>When you are in an unknown environment, can you tell from which direction a brief sound originates?</p>","8","","","","survey","","","","","","","","","","","","","","","","ssq-05","8"
"html-button-response","114","2075960","0.0-12.0-5.0","4ba927e140bf012b1ef94da77df200063b7cece47978022b466cd6082736d184","swim","arctic","1959","","<p>Are you able to ignore distracting sounds when you concentrate on a specific aspect of your acoustic surrounding?</p>","9","","","","survey","","","","","","","","","","","","","","","","ssq-06","9"
"fullscreen","115","2077212","0.0-13.0","4ba927e140bf012b1ef94da77df200063b7cece47978022b466cd6082736d184","swim","arctic","","","","","","","","","true","","","","","","","","","","","","","","","",""
