"trial_type","trial_index","time_elapsed","internal_node_id","ParticipantID","firstStory","scramStory","rt","url","stimulus","button_pressed","key_press","correctRESP","correct","designation","success","letterStim","letterType","ONSET","TIMEOUT","CONDITION","Participant","ONSET_ACTUAL","RT","RESP","ACC","STORY","responses","response","type","surveyQuestion","QRESP"
"pavlovia","0","4","0.0-0.0","62c0369574193e3d14f7b22f9f12a43bb810570eda2baf507333b77bc13d68a9","arctic","arctic","","","","","","","","","","","","","","","","","","","","","","","","",""
"external-html","1","4468","0.0-1.0","62c0369574193e3d14f7b22f9f12a43bb810570eda2baf507333b77bc13d68a9","arctic","arctic","4334","consent/consent_updated.html","","","","","","","","","","","","","","","","","","","","","","",""
"html-button-response","2","7046","0.0-2.0-0.0","62c0369574193e3d14f7b22f9f12a43bb810570eda2baf507333b77bc13d68a9","arctic","arctic","2576","","<p>Before we begin the main task, you will complete a short volume calibration and headphone check.</p><p>Please make sure you are in a quiet listening environment, that you are wearing headphones, and that your computer's volume is turned on.<p></p>","0","","","","","","","","","","","","","","","","","","","","",""
"html-button-response","3","9895","0.0-2.0-1.0","62c0369574193e3d14f7b22f9f12a43bb810570eda2baf507333b77bc13d68a9","arctic","arctic","2596","","<p>The volume calibration will be first.</p><p>You will hear a thirty-second noise. Please adjust your computer's volume so that this noise is being presented at a comfortable level.<p></p>","0","","","","","","","","","","","","","","","","","","","","",""
"audio-button-response","4","12738","0.0-2.0-2.0","62c0369574193e3d14f7b22f9f12a43bb810570eda2baf507333b77bc13d68a9","arctic","arctic","2586","","audio/volumetest.mp3","0","","","","","","","","","","","","","","","","","","","","",""
"html-keyboard-response","5","14715","0.0-3.0-0.0","62c0369574193e3d14f7b22f9f12a43bb810570eda2baf507333b77bc13d68a9","arctic","arctic","1976","","<p>You will now complete a short headphone check.</p><p>On each trial, you will hear three tones. One of these tones will be quieter than the others. Your task is to identify whether the quiet tone occurred first, second, or third.</p><p>There are six trials in total.<p></p><p></p>(Press SPACEBAR to begin)","","32","","","","","","","","","","","","","","","","","","","",""
"html-keyboard-response","6","15473","0.0-3.0-1.0-0.0","62c0369574193e3d14f7b22f9f12a43bb810570eda2baf507333b77bc13d68a9","arctic","arctic","null","","<div style=""font-size:60px;"">+</div>","","null","","","","","","","","","","","","","","","","","","","",""
"audio-button-response","7","19776","0.0-3.0-1.0-1.0","62c0369574193e3d14f7b22f9f12a43bb810570eda2baf507333b77bc13d68a9","arctic","arctic","4301","","audio/t1_1.mp3","0","","0","1","headphone-test","","","","","","","","","","","","","","","","",""
"html-keyboard-response","8","20280","0.0-3.0-1.0-2.0","62c0369574193e3d14f7b22f9f12a43bb810570eda2baf507333b77bc13d68a9","arctic","arctic","null","","<p>Correct</p>","","null","","","","","","","","","","","","","","","","","","","",""
"html-keyboard-response","9","20785","0.0-3.0-1.0-0.1","62c0369574193e3d14f7b22f9f12a43bb810570eda2baf507333b77bc13d68a9","arctic","arctic","null","","<div style=""font-size:60px;"">+</div>","","null","","","","","","","","","","","","","","","","","","","",""
"audio-button-response","10","24984","0.0-3.0-1.0-1.1","62c0369574193e3d14f7b22f9f12a43bb810570eda2baf507333b77bc13d68a9","arctic","arctic","4197","","audio/t1_2.mp3","0","","0","1","headphone-test","","","","","","","","","","","","","","","","",""
"html-keyboard-response","11","25486","0.0-3.0-1.0-2.1","62c0369574193e3d14f7b22f9f12a43bb810570eda2baf507333b77bc13d68a9","arctic","arctic","null","","<p>Correct</p>","","null","","","","","","","","","","","","","","","","","","","",""
"html-keyboard-response","12","25987","0.0-3.0-1.0-0.2","62c0369574193e3d14f7b22f9f12a43bb810570eda2baf507333b77bc13d68a9","arctic","arctic","null","","<div style=""font-size:60px;"">+</div>","","null","","","","","","","","","","","","","","","","","","","",""
"audio-button-response","13","30289","0.0-3.0-1.0-1.2","62c0369574193e3d14f7b22f9f12a43bb810570eda2baf507333b77bc13d68a9","arctic","arctic","4300","","audio/t3_2.mp3","2","","2","1","headphone-test","","","","","","","","","","","","","","","","",""
"html-keyboard-response","14","30791","0.0-3.0-1.0-2.2","62c0369574193e3d14f7b22f9f12a43bb810570eda2baf507333b77bc13d68a9","arctic","arctic","null","","<p>Correct</p>","","null","","","","","","","","","","","","","","","","","","","",""
"html-keyboard-response","15","31295","0.0-3.0-1.0-0.3","62c0369574193e3d14f7b22f9f12a43bb810570eda2baf507333b77bc13d68a9","arctic","arctic","null","","<div style=""font-size:60px;"">+</div>","","null","","","","","","","","","","","","","","","","","","","",""
"audio-button-response","16","35754","0.0-3.0-1.0-1.3","62c0369574193e3d14f7b22f9f12a43bb810570eda2baf507333b77bc13d68a9","arctic","arctic","4456","","audio/t3_1.mp3","2","","2","1","headphone-test","","","","","","","","","","","","","","","","",""
"html-keyboard-response","17","36259","0.0-3.0-1.0-2.3","62c0369574193e3d14f7b22f9f12a43bb810570eda2baf507333b77bc13d68a9","arctic","arctic","null","","<p>Correct</p>","","null","","","","","","","","","","","","","","","","","","","",""
"html-keyboard-response","18","36765","0.0-3.0-1.0-0.4","62c0369574193e3d14f7b22f9f12a43bb810570eda2baf507333b77bc13d68a9","arctic","arctic","null","","<div style=""font-size:60px;"">+</div>","","null","","","","","","","","","","","","","","","","","","","",""
"audio-button-response","19","40779","0.0-3.0-1.0-1.4","62c0369574193e3d14f7b22f9f12a43bb810570eda2baf507333b77bc13d68a9","arctic","arctic","4012","","audio/t2_2.mp3","1","","1","1","headphone-test","","","","","","","","","","","","","","","","",""
"html-keyboard-response","20","41280","0.0-3.0-1.0-2.4","62c0369574193e3d14f7b22f9f12a43bb810570eda2baf507333b77bc13d68a9","arctic","arctic","null","","<p>Correct</p>","","null","","","","","","","","","","","","","","","","","","","",""
"html-keyboard-response","21","41783","0.0-3.0-1.0-0.5","62c0369574193e3d14f7b22f9f12a43bb810570eda2baf507333b77bc13d68a9","arctic","arctic","null","","<div style=""font-size:60px;"">+</div>","","null","","","","","","","","","","","","","","","","","","","",""
"audio-button-response","22","45790","0.0-3.0-1.0-1.5","62c0369574193e3d14f7b22f9f12a43bb810570eda2baf507333b77bc13d68a9","arctic","arctic","4006","","audio/t2_1.mp3","1","","1","1","headphone-test","","","","","","","","","","","","","","","","",""
"html-keyboard-response","23","46297","0.0-3.0-1.0-2.5","62c0369574193e3d14f7b22f9f12a43bb810570eda2baf507333b77bc13d68a9","arctic","arctic","null","","<p>Correct</p>","","null","","","","","","","","","","","","","","","","","","","",""
"fullscreen","24","48611","0.0-4.0","62c0369574193e3d14f7b22f9f12a43bb810570eda2baf507333b77bc13d68a9","arctic","arctic","","","","","","","","","true","","","","","","","","","","","","","","","",""
"html-button-response","25","51797","0.0-5.0-0.0","62c0369574193e3d14f7b22f9f12a43bb810570eda2baf507333b77bc13d68a9","arctic","arctic","3185","","<p>There are two blocks to this experiment.</p><p>In each block, you will hear a ~13.5 minute story. One of the stories will be scrambled. Please listen carefully to both stories and understand them as best you can.</p><p>After each story, you will be asked some questions to assess your comprehension.</p>","0","","","","","","","","","","","","","","","","","","","","",""
"html-button-response","26","63351","0.0-5.0-1.0","62c0369574193e3d14f7b22f9f12a43bb810570eda2baf507333b77bc13d68a9","arctic","arctic","11552","","<p>During each story, there will be an additional task.</p><p>A letter will occasionally appear on the screen.</br>Your job is to - as quickly as you can - decide whether the letter is lowercase or uppercase and press one of two keys on the keyboard:</p><p>If the letter is <b>lowercase</b>, press key &lt;<b>x</b>&gt;.</p><p>If the letter is <b>uppercase</b>, press key &lt;<b>m</b>&gt;.</p>","0","","","","","","","","","","","","","","","","","","","","",""
"html-keyboard-response","27","69573","0.0-5.0-2.0","62c0369574193e3d14f7b22f9f12a43bb810570eda2baf507333b77bc13d68a9","arctic","arctic","6221","","<p>Because we want your responses to be as quick as possible, please keep your index fingers over the keys while listening.</p><p>Each block lasts about 20 minutes.</p><p><b>Press &lt;x&gt; or &lt;m&gt; to start the first block!</b></p>","","88","","","","","","","","","","","","","","","","","","","",""
"html-keyboard-response","28","70074","0.0-6.0-0.0-0.0","62c0369574193e3d14f7b22f9f12a43bb810570eda2baf507333b77bc13d68a9","arctic","arctic","null","","<div style=""font-size:60px;"" tabindex=""0"">+</div>","","null","","","","","","","","","","","","","","","","","","","",""
"dual-task","null","null","null","","arctic","arctic","674.0999999940395","","G","null","77","77","1","arctic-dual-task","","G","uppercase","14000","0","3","62c0369574193e3d14f7b22f9f12a43bb810570eda2baf507333b77bc13d68a9","14001.5","674.0999999940395","77","1","arctic","","","","",""
"dual-task","null","null","null","","arctic","arctic","538.2999999970198","","D","null","77","77","1","arctic-dual-task","","D","uppercase","28000","0","3","62c0369574193e3d14f7b22f9f12a43bb810570eda2baf507333b77bc13d68a9","28001.10000000894","538.2999999970198","77","1","arctic","","","","",""
"dual-task","null","null","null","","arctic","arctic","503.09999999403954","","A","null","77","77","1","arctic-dual-task","","A","uppercase","38000","0","3","62c0369574193e3d14f7b22f9f12a43bb810570eda2baf507333b77bc13d68a9","37999.60000000894","503.09999999403954","77","1","arctic","","","","",""
"dual-task","null","null","null","","arctic","arctic","375.59999999403954","","a","null","77","88","0","arctic-dual-task","","a","lowercase","50000","0","3","62c0369574193e3d14f7b22f9f12a43bb810570eda2baf507333b77bc13d68a9","50001.10000000894","375.59999999403954","77","0","arctic","","","","",""
"dual-task","null","null","null","","arctic","arctic","510.79999999701977","","t","null","88","88","1","arctic-dual-task","","t","lowercase","58000","0","3","62c0369574193e3d14f7b22f9f12a43bb810570eda2baf507333b77bc13d68a9","58001.40000000596","510.79999999701977","88","1","arctic","","","","",""
"dual-task","null","null","null","","arctic","arctic","612.5","","B","null","77","77","1","arctic-dual-task","","B","uppercase","70000","0","3","62c0369574193e3d14f7b22f9f12a43bb810570eda2baf507333b77bc13d68a9","70001.10000000894","612.5","77","1","arctic","","","","",""
"dual-task","null","null","null","","arctic","arctic","573.4000000059605","","N","null","77","77","1","arctic-dual-task","","N","uppercase","84000","0","3","62c0369574193e3d14f7b22f9f12a43bb810570eda2baf507333b77bc13d68a9","84001.10000000894","573.4000000059605","77","1","arctic","","","","",""
"dual-task","null","null","null","","arctic","arctic","647.4000000059605","","H","null","77","77","1","arctic-dual-task","","H","uppercase","98000","0","3","62c0369574193e3d14f7b22f9f12a43bb810570eda2baf507333b77bc13d68a9","98001.29999999702","647.4000000059605","77","1","arctic","","","","",""
"dual-task","null","null","null","","arctic","arctic","893.3000000119209","","g","null","88","88","1","arctic-dual-task","","g","lowercase","112000","0","3","62c0369574193e3d14f7b22f9f12a43bb810570eda2baf507333b77bc13d68a9","112001.10000000894","893.3000000119209","88","1","arctic","","","","",""
"dual-task","null","null","null","","arctic","arctic","641.0999999940395","","Q","null","77","77","1","arctic-dual-task","","Q","uppercase","120000","0","3","62c0369574193e3d14f7b22f9f12a43bb810570eda2baf507333b77bc13d68a9","120001.29999999702","641.0999999940395","77","1","arctic","","","","",""
"dual-task","null","null","null","","arctic","arctic","729.5","","e","null","88","88","1","arctic-dual-task","","e","lowercase","132000","0","3","62c0369574193e3d14f7b22f9f12a43bb810570eda2baf507333b77bc13d68a9","132003.5","729.5","88","1","arctic","","","","",""
"dual-task","null","null","null","","arctic","arctic","685.4000000059605","","R","null","77","77","1","arctic-dual-task","","R","uppercase","146000","0","3","62c0369574193e3d14f7b22f9f12a43bb810570eda2baf507333b77bc13d68a9","146001.10000000894","685.4000000059605","77","1","arctic","","","","",""
"dual-task","null","null","null","","arctic","arctic","530","","e","null","88","88","1","arctic-dual-task","","e","lowercase","154000","0","3","62c0369574193e3d14f7b22f9f12a43bb810570eda2baf507333b77bc13d68a9","154001.10000000894","530","88","1","arctic","","","","",""
"dual-task","null","null","null","","arctic","arctic","642.1999999880791","","H","null","77","77","1","arctic-dual-task","","H","uppercase","164000","0","3","62c0369574193e3d14f7b22f9f12a43bb810570eda2baf507333b77bc13d68a9","164000.10000000894","642.1999999880791","77","1","arctic","","","","",""
"dual-task","null","null","null","","arctic","arctic","582.0999999940395","","G","null","77","77","1","arctic-dual-task","","G","uppercase","178000","0","3","62c0369574193e3d14f7b22f9f12a43bb810570eda2baf507333b77bc13d68a9","178002.60000000894","582.0999999940395","77","1","arctic","","","","",""
"dual-task","null","null","null","","arctic","arctic","1863.7000000029802","","h","null","88","88","1","arctic-dual-task","","h","lowercase","186000","0","3","62c0369574193e3d14f7b22f9f12a43bb810570eda2baf507333b77bc13d68a9","186001","1863.7000000029802","88","1","arctic","","","","",""
"dual-task","null","null","null","","arctic","arctic","634.7000000029802","","q","null","88","88","1","arctic-dual-task","","q","lowercase","200000","0","3","62c0369574193e3d14f7b22f9f12a43bb810570eda2baf507333b77bc13d68a9","200001.10000000894","634.7000000029802","88","1","arctic","","","","",""
"dual-task","null","null","null","","arctic","arctic","558.1000000089407","","g","null","88","88","1","arctic-dual-task","","g","lowercase","212000","0","3","62c0369574193e3d14f7b22f9f12a43bb810570eda2baf507333b77bc13d68a9","212003.79999999702","558.1000000089407","88","1","arctic","","","","",""
"dual-task","null","null","null","","arctic","arctic","599.2999999970198","","d","null","88","88","1","arctic-dual-task","","d","lowercase","220000","0","3","62c0369574193e3d14f7b22f9f12a43bb810570eda2baf507333b77bc13d68a9","220001","599.2999999970198","88","1","arctic","","","","",""
"dual-task","null","null","null","","arctic","arctic","595.3999999910593","","q","null","88","88","1","arctic-dual-task","","q","lowercase","234000","0","3","62c0369574193e3d14f7b22f9f12a43bb810570eda2baf507333b77bc13d68a9","233999.5","595.3999999910593","88","1","arctic","","","","",""
"dual-task","null","null","null","","arctic","arctic","526.4000000059605","","D","null","77","77","1","arctic-dual-task","","D","uppercase","246000","0","3","62c0369574193e3d14f7b22f9f12a43bb810570eda2baf507333b77bc13d68a9","246001.20000000298","526.4000000059605","77","1","arctic","","","","",""
"dual-task","null","null","null","","arctic","arctic","1128.5999999940395","","t","null","88","88","1","arctic-dual-task","","t","lowercase","256000","0","3","62c0369574193e3d14f7b22f9f12a43bb810570eda2baf507333b77bc13d68a9","255999.79999999702","1128.5999999940395","88","1","arctic","","","","",""
"dual-task","null","null","null","","arctic","arctic","842.7000000029802","","N","null","77","77","1","arctic-dual-task","","N","uppercase","264000","0","3","62c0369574193e3d14f7b22f9f12a43bb810570eda2baf507333b77bc13d68a9","264001","842.7000000029802","77","1","arctic","","","","",""
"dual-task","null","null","null","","arctic","arctic","1003.3000000119209","","g","null","88","88","1","arctic-dual-task","","g","lowercase","274000","0","3","62c0369574193e3d14f7b22f9f12a43bb810570eda2baf507333b77bc13d68a9","274001.10000000894","1003.3000000119209","88","1","arctic","","","","",""
"dual-task","null","null","null","","arctic","arctic","923.5","","n","null","88","88","1","arctic-dual-task","","n","lowercase","286000","0","3","62c0369574193e3d14f7b22f9f12a43bb810570eda2baf507333b77bc13d68a9","286001.10000000894","923.5","88","1","arctic","","","","",""
"dual-task","null","null","null","","arctic","arctic","1771.5","","D","null","77","77","1","arctic-dual-task","","D","uppercase","296000","0","3","62c0369574193e3d14f7b22f9f12a43bb810570eda2baf507333b77bc13d68a9","296001.200000003","1771.5","77","1","arctic","","","","",""
"dual-task","null","null","null","","arctic","arctic","848.3999999910593","","T","null","77","77","1","arctic-dual-task","","T","uppercase","306000","0","3","62c0369574193e3d14f7b22f9f12a43bb810570eda2baf507333b77bc13d68a9","306001","848.3999999910593","77","1","arctic","","","","",""
"dual-task","null","null","null","","arctic","arctic","503.79999999701977","","h","null","88","88","1","arctic-dual-task","","h","lowercase","314000","0","3","62c0369574193e3d14f7b22f9f12a43bb810570eda2baf507333b77bc13d68a9","314001.299999997","503.79999999701977","88","1","arctic","","","","",""
"dual-task","null","null","null","","arctic","arctic","870.6999999880791","","B","null","77","77","1","arctic-dual-task","","B","uppercase","326000","0","3","62c0369574193e3d14f7b22f9f12a43bb810570eda2baf507333b77bc13d68a9","326001.10000000894","870.6999999880791","77","1","arctic","","","","",""
"dual-task","null","null","null","","arctic","arctic","737.1000000089407","","d","null","88","88","1","arctic-dual-task","","d","lowercase","334000","0","3","62c0369574193e3d14f7b22f9f12a43bb810570eda2baf507333b77bc13d68a9","334001.10000000894","737.1000000089407","88","1","arctic","","","","",""
"dual-task","null","null","null","","arctic","arctic","863.5999999940395","","A","null","77","77","1","arctic-dual-task","","A","uppercase","346000","0","3","62c0369574193e3d14f7b22f9f12a43bb810570eda2baf507333b77bc13d68a9","346001.10000000894","863.5999999940395","77","1","arctic","","","","",""
"dual-task","null","null","null","","arctic","arctic","1006.4000000059605","","f","null","88","88","1","arctic-dual-task","","f","lowercase","356000","0","3","62c0369574193e3d14f7b22f9f12a43bb810570eda2baf507333b77bc13d68a9","356001.10000000894","1006.4000000059605","88","1","arctic","","","","",""
"dual-task","null","null","null","","arctic","arctic","1138.1000000089407","","f","null","88","88","1","arctic-dual-task","","f","lowercase","366000","0","3","62c0369574193e3d14f7b22f9f12a43bb810570eda2baf507333b77bc13d68a9","366001.200000003","1138.1000000089407","88","1","arctic","","","","",""
"dual-task","null","null","null","","arctic","arctic","844.2000000029802","","H","null","77","77","1","arctic-dual-task","","H","uppercase","376000","0","3","62c0369574193e3d14f7b22f9f12a43bb810570eda2baf507333b77bc13d68a9","376001.10000000894","844.2000000029802","77","1","arctic","","","","",""
"dual-task","null","null","null","","arctic","arctic","894.5999999940395","","N","null","77","77","1","arctic-dual-task","","N","uppercase","386000","0","3","62c0369574193e3d14f7b22f9f12a43bb810570eda2baf507333b77bc13d68a9","386001.10000000894","894.5999999940395","77","1","arctic","","","","",""
"dual-task","null","null","null","","arctic","arctic","874","","b","null","88","88","1","arctic-dual-task","","b","lowercase","398000","0","3","62c0369574193e3d14f7b22f9f12a43bb810570eda2baf507333b77bc13d68a9","398001.10000000894","874","88","1","arctic","","","","",""
"dual-task","null","null","null","","arctic","arctic","815.7999999970198","","T","null","77","77","1","arctic-dual-task","","T","uppercase","404000","0","3","62c0369574193e3d14f7b22f9f12a43bb810570eda2baf507333b77bc13d68a9","404000.10000000894","815.7999999970198","77","1","arctic","","","","",""
"dual-task","null","null","null","","arctic","arctic","850.6999999880791","","R","null","77","77","1","arctic-dual-task","","R","uppercase","418000","0","3","62c0369574193e3d14f7b22f9f12a43bb810570eda2baf507333b77bc13d68a9","418003.10000000894","850.6999999880791","77","1","arctic","","","","",""
"dual-task","null","null","null","","arctic","arctic","1315.0999999940395","","r","null","88","88","1","arctic-dual-task","","r","lowercase","424000","0","3","62c0369574193e3d14f7b22f9f12a43bb810570eda2baf507333b77bc13d68a9","424001.10000000894","1315.0999999940395","88","1","arctic","","","","",""
"dual-task","null","null","null","","arctic","arctic","889.1000000089407","","H","null","77","77","1","arctic-dual-task","","H","uppercase","436000","0","3","62c0369574193e3d14f7b22f9f12a43bb810570eda2baf507333b77bc13d68a9","435999.90000000596","889.1000000089407","77","1","arctic","","","","",""
"dual-task","null","null","null","","arctic","arctic","892.8000000119209","","F","null","77","77","1","arctic-dual-task","","F","uppercase","446000","0","3","62c0369574193e3d14f7b22f9f12a43bb810570eda2baf507333b77bc13d68a9","446001.200000003","892.8000000119209","77","1","arctic","","","","",""
"dual-task","null","null","null","","arctic","arctic","1070.2999999970198","","t","null","88","88","1","arctic-dual-task","","t","lowercase","452000","0","3","62c0369574193e3d14f7b22f9f12a43bb810570eda2baf507333b77bc13d68a9","452001.10000000894","1070.2999999970198","88","1","arctic","","","","",""
"dual-task","null","null","null","","arctic","arctic","1277.300000011921","","q","null","88","88","1","arctic-dual-task","","q","lowercase","460000","0","3","62c0369574193e3d14f7b22f9f12a43bb810570eda2baf507333b77bc13d68a9","459999.5","1277.300000011921","88","1","arctic","","","","",""
"dual-task","null","null","null","","arctic","arctic","1226.2000000029802","","A","null","77","77","1","arctic-dual-task","","A","uppercase","468000","0","3","62c0369574193e3d14f7b22f9f12a43bb810570eda2baf507333b77bc13d68a9","468000.10000000894","1226.2000000029802","77","1","arctic","","","","",""
"dual-task","null","null","null","","arctic","arctic","941.3999999910593","","f","null","88","88","1","arctic-dual-task","","f","lowercase","474000","0","3","62c0369574193e3d14f7b22f9f12a43bb810570eda2baf507333b77bc13d68a9","474004","941.3999999910593","88","1","arctic","","","","",""
"dual-task","null","null","null","","arctic","arctic","937.2000000029802","","d","null","88","88","1","arctic-dual-task","","d","lowercase","484000","0","3","62c0369574193e3d14f7b22f9f12a43bb810570eda2baf507333b77bc13d68a9","484000.200000003","937.2000000029802","88","1","arctic","","","","",""
"dual-task","null","null","null","","arctic","arctic","1271.699999988079","","R","null","77","77","1","arctic-dual-task","","R","uppercase","498000","0","3","62c0369574193e3d14f7b22f9f12a43bb810570eda2baf507333b77bc13d68a9","498003","1271.699999988079","77","1","arctic","","","","",""
"dual-task","null","null","null","","arctic","arctic","NA","","a","null","NA","88","0","arctic-dual-task","","a","lowercase","504000","1","3","62c0369574193e3d14f7b22f9f12a43bb810570eda2baf507333b77bc13d68a9","504003.799999997","NA","NA","0","arctic","","","","",""
"dual-task","null","null","null","","arctic","arctic","919","","T","null","77","77","1","arctic-dual-task","","T","uppercase","512000","0","3","62c0369574193e3d14f7b22f9f12a43bb810570eda2baf507333b77bc13d68a9","512004.200000003","919","77","1","arctic","","","","",""
"dual-task","null","null","null","","arctic","arctic","1507.2999999970198","","E","null","77","77","1","arctic-dual-task","","E","uppercase","518000","0","3","62c0369574193e3d14f7b22f9f12a43bb810570eda2baf507333b77bc13d68a9","518003.799999997","1507.2999999970198","77","1","arctic","","","","",""
"dual-task","null","null","null","","arctic","arctic","891","","a","null","88","88","1","arctic-dual-task","","a","lowercase","528000","0","3","62c0369574193e3d14f7b22f9f12a43bb810570eda2baf507333b77bc13d68a9","528003.799999997","891","88","1","arctic","","","","",""
"dual-task","null","null","null","","arctic","arctic","1029.2000000029802","","f","null","88","88","1","arctic-dual-task","","f","lowercase","536000","0","3","62c0369574193e3d14f7b22f9f12a43bb810570eda2baf507333b77bc13d68a9","536003.799999997","1029.2000000029802","88","1","arctic","","","","",""
"dual-task","null","null","null","","arctic","arctic","1032.7000000029802","","q","null","88","88","1","arctic-dual-task","","q","lowercase","548000","0","3","62c0369574193e3d14f7b22f9f12a43bb810570eda2baf507333b77bc13d68a9","548003.799999997","1032.7000000029802","88","1","arctic","","","","",""
"dual-task","null","null","null","","arctic","arctic","980.2000000029802","","b","null","88","88","1","arctic-dual-task","","b","lowercase","556000","0","3","62c0369574193e3d14f7b22f9f12a43bb810570eda2baf507333b77bc13d68a9","556003.799999997","980.2000000029802","88","1","arctic","","","","",""
"dual-task","null","null","null","","arctic","arctic","1086.0999999940395","","Q","null","77","77","1","arctic-dual-task","","Q","uppercase","568000","0","3","62c0369574193e3d14f7b22f9f12a43bb810570eda2baf507333b77bc13d68a9","568003.900000006","1086.0999999940395","77","1","arctic","","","","",""
"dual-task","null","null","null","","arctic","arctic","1324.2000000029802","","h","null","88","88","1","arctic-dual-task","","h","lowercase","576000","0","3","62c0369574193e3d14f7b22f9f12a43bb810570eda2baf507333b77bc13d68a9","575999.700000003","1324.2000000029802","88","1","arctic","","","","",""
"dual-task","null","null","null","","arctic","arctic","1158.3999999910593","","b","null","88","88","1","arctic-dual-task","","b","lowercase","584000","0","3","62c0369574193e3d14f7b22f9f12a43bb810570eda2baf507333b77bc13d68a9","584003.799999997","1158.3999999910593","88","1","arctic","","","","",""
"dual-task","null","null","null","","arctic","arctic","1160","","R","null","77","77","1","arctic-dual-task","","R","uppercase","592000","0","3","62c0369574193e3d14f7b22f9f12a43bb810570eda2baf507333b77bc13d68a9","592004","1160","77","1","arctic","","","","",""
"dual-task","null","null","null","","arctic","arctic","1518.5999999940395","","G","null","77","77","1","arctic-dual-task","","G","uppercase","600000","0","3","62c0369574193e3d14f7b22f9f12a43bb810570eda2baf507333b77bc13d68a9","600003.900000006","1518.5999999940395","77","1","arctic","","","","",""
"dual-task","null","null","null","","arctic","arctic","974.2000000029802","","F","null","77","77","1","arctic-dual-task","","F","uppercase","614000","0","3","62c0369574193e3d14f7b22f9f12a43bb810570eda2baf507333b77bc13d68a9","614003.799999997","974.2000000029802","77","1","arctic","","","","",""
"dual-task","null","null","null","","arctic","arctic","1501.5","","Q","null","77","77","1","arctic-dual-task","","Q","uppercase","622000","0","3","62c0369574193e3d14f7b22f9f12a43bb810570eda2baf507333b77bc13d68a9","622003.900000006","1501.5","77","1","arctic","","","","",""
"dual-task","null","null","null","","arctic","arctic","1044.7999999970198","","E","null","77","77","1","arctic-dual-task","","E","uppercase","628000","0","3","62c0369574193e3d14f7b22f9f12a43bb810570eda2baf507333b77bc13d68a9","628003.799999997","1044.7999999970198","77","1","arctic","","","","",""
"dual-task","null","null","null","","arctic","arctic","1056","","g","null","88","88","1","arctic-dual-task","","g","lowercase","636000","0","3","62c0369574193e3d14f7b22f9f12a43bb810570eda2baf507333b77bc13d68a9","636003.799999997","1056","88","1","arctic","","","","",""
"dual-task","null","null","null","","arctic","arctic","1023.0999999940395","","T","null","77","77","1","arctic-dual-task","","T","uppercase","642000","0","3","62c0369574193e3d14f7b22f9f12a43bb810570eda2baf507333b77bc13d68a9","642002.6000000089","1023.0999999940395","77","1","arctic","","","","",""
"dual-task","null","null","null","","arctic","arctic","894.2999999970198","","F","null","77","77","1","arctic-dual-task","","F","uppercase","650000","0","3","62c0369574193e3d14f7b22f9f12a43bb810570eda2baf507333b77bc13d68a9","650004.6000000089","894.2999999970198","77","1","arctic","","","","",""
"dual-task","null","null","null","","arctic","arctic","1054.5999999940395","","B","null","77","77","1","arctic-dual-task","","B","uppercase","662000","0","3","62c0369574193e3d14f7b22f9f12a43bb810570eda2baf507333b77bc13d68a9","662003.900000006","1054.5999999940395","77","1","arctic","","","","",""
"dual-task","null","null","null","","arctic","arctic","968","","r","null","88","88","1","arctic-dual-task","","r","lowercase","668000","0","3","62c0369574193e3d14f7b22f9f12a43bb810570eda2baf507333b77bc13d68a9","668000","968","88","1","arctic","","","","",""
"dual-task","null","null","null","","arctic","arctic","901.7999999970198","","d","null","88","88","1","arctic-dual-task","","d","lowercase","674000","0","3","62c0369574193e3d14f7b22f9f12a43bb810570eda2baf507333b77bc13d68a9","674003.799999997","901.7999999970198","88","1","arctic","","","","",""
"dual-task","null","null","null","","arctic","arctic","955","","n","null","88","88","1","arctic-dual-task","","n","lowercase","682000","0","3","62c0369574193e3d14f7b22f9f12a43bb810570eda2baf507333b77bc13d68a9","682003.900000006","955","88","1","arctic","","","","",""
"dual-task","null","null","null","","arctic","arctic","1000.6000000089407","","E","null","77","77","1","arctic-dual-task","","E","uppercase","696000","0","3","62c0369574193e3d14f7b22f9f12a43bb810570eda2baf507333b77bc13d68a9","696003.799999997","1000.6000000089407","77","1","arctic","","","","",""
"dual-task","null","null","null","","arctic","arctic","821.6000000089407","","B","null","77","77","1","arctic-dual-task","","B","uppercase","704000","0","3","62c0369574193e3d14f7b22f9f12a43bb810570eda2baf507333b77bc13d68a9","704005","821.6000000089407","77","1","arctic","","","","",""
"dual-task","null","null","null","","arctic","arctic","907.5999999940395","","A","null","77","77","1","arctic-dual-task","","A","uppercase","710000","0","3","62c0369574193e3d14f7b22f9f12a43bb810570eda2baf507333b77bc13d68a9","710001","907.5999999940395","77","1","arctic","","","","",""
"dual-task","null","null","null","","arctic","arctic","1017.5999999940395","","n","null","88","88","1","arctic-dual-task","","n","lowercase","722000","0","3","62c0369574193e3d14f7b22f9f12a43bb810570eda2baf507333b77bc13d68a9","722001.1000000089","1017.5999999940395","88","1","arctic","","","","",""
"dual-task","null","null","null","","arctic","arctic","895.5","","D","null","77","77","1","arctic-dual-task","","D","uppercase","730000","0","3","62c0369574193e3d14f7b22f9f12a43bb810570eda2baf507333b77bc13d68a9","730001.400000006","895.5","77","1","arctic","","","","",""
"dual-task","null","null","null","","arctic","arctic","950.9000000059605","","G","null","77","77","1","arctic-dual-task","","G","uppercase","740000","0","3","62c0369574193e3d14f7b22f9f12a43bb810570eda2baf507333b77bc13d68a9","740003.900000006","950.9000000059605","77","1","arctic","","","","",""
"dual-task","null","null","null","","arctic","arctic","943.8999999910593","","e","null","88","88","1","arctic-dual-task","","e","lowercase","750000","0","3","62c0369574193e3d14f7b22f9f12a43bb810570eda2baf507333b77bc13d68a9","750003.799999997","943.8999999910593","88","1","arctic","","","","",""
"dual-task","null","null","null","","arctic","arctic","944.7000000029802","","e","null","88","88","1","arctic-dual-task","","e","lowercase","758000","0","3","62c0369574193e3d14f7b22f9f12a43bb810570eda2baf507333b77bc13d68a9","758003.799999997","944.7000000029802","88","1","arctic","","","","",""
"dual-task","null","null","null","","arctic","arctic","915.5999999940395","","F","null","77","77","1","arctic-dual-task","","F","uppercase","772000","0","3","62c0369574193e3d14f7b22f9f12a43bb810570eda2baf507333b77bc13d68a9","772004.299999997","915.5999999940395","77","1","arctic","","","","",""
"dual-task","null","null","null","","arctic","arctic","1166.6000000089407","","b","null","88","88","1","arctic-dual-task","","b","lowercase","782000","0","3","62c0369574193e3d14f7b22f9f12a43bb810570eda2baf507333b77bc13d68a9","782003.900000006","1166.6000000089407","88","1","arctic","","","","",""
"audio-keyboard-response","29","868038","0.0-6.0-0.0-1.0","62c0369574193e3d14f7b22f9f12a43bb810570eda2baf507333b77bc13d68a9","arctic","arctic","null","","audio/story_arctic_scrambled.mp3","","null","","","","","","","","","","","","","","","","","","","",""
"html-button-response","30","870921","0.0-6.0-0.0-2.0","62c0369574193e3d14f7b22f9f12a43bb810570eda2baf507333b77bc13d68a9","arctic","arctic","2881","","<p>This concludes the story. Thank you for listening.</p><p>You will now answer some questions about the content of the story.</p>","0","","","","","","","","","","","","","","","","","","","","",""
"survey-multi-choice","31","878610","0.0-6.0-0.0-3.0-0.0","62c0369574193e3d14f7b22f9f12a43bb810570eda2baf507333b77bc13d68a9","arctic","arctic","7684","","<b>How did the narrator&#39;s neighbour respond when she told him about her expedition?</b>","","","","1","arctic-comprehension","","","","","","","","","","","","","{""Q0"":""He said she was going to fail.""}","","","",""
"survey-multi-choice","32","890407","0.0-6.0-0.0-3.0-0.1","62c0369574193e3d14f7b22f9f12a43bb810570eda2baf507333b77bc13d68a9","arctic","arctic","11540","","<b>What were the weather conditions in the Arctic like the winter of the narrator&#39;s expedition?</b>","","","","1","arctic-comprehension","","","","","","","","","","","","","{""Q0"":""There were more storms than any other winter in recorded history.""}","","","",""
"survey-multi-choice","33","898327","0.0-6.0-0.0-3.0-0.2","62c0369574193e3d14f7b22f9f12a43bb810570eda2baf507333b77bc13d68a9","arctic","arctic","7663","","<b>What did the narrator do for leisure while in her tent?</b>","","","","0","arctic-comprehension","","","","","","","","","","","","","{""Q0"":""Take photos""}","","","",""
"survey-multi-choice","34","904270","0.0-6.0-0.0-3.0-0.3","62c0369574193e3d14f7b22f9f12a43bb810570eda2baf507333b77bc13d68a9","arctic","arctic","5687","","<b>How did the narrator prepare for her expedition?</b>","","","","1","arctic-comprehension","","","","","","","","","","","","","{""Q0"":""Trained in Alaska learning how to dogsled""}","","","",""
"survey-multi-choice","35","913112","0.0-6.0-0.0-3.0-0.4","62c0369574193e3d14f7b22f9f12a43bb810570eda2baf507333b77bc13d68a9","arctic","arctic","8581","","<b>Which dog on the narrator&#39;s dog team never followed instructions?</b>","","","","1","arctic-comprehension","","","","","","","","","","","","","{""Q0"":""Robert""}","","","",""
"survey-multi-choice","36","921152","0.0-6.0-0.0-3.0-0.5","62c0369574193e3d14f7b22f9f12a43bb810570eda2baf507333b77bc13d68a9","arctic","arctic","7784","","<b>How did the narrator&#39;s encounter with the polar bears end?</b>","","","","0","arctic-comprehension","","","","","","","","","","","","","{""Q0"":""She shot the bear with her shotgun.""}","","","",""
"survey-multi-choice","37","927204","0.0-6.0-0.0-3.0-0.6","62c0369574193e3d14f7b22f9f12a43bb810570eda2baf507333b77bc13d68a9","arctic","arctic","5793","","<b>How many sponsorships did the narrator receive to support her expedition?</b>","","","","1","arctic-comprehension","","","","","","","","","","","","","{""Q0"":""None""}","","","",""
"survey-multi-choice","38","932008","0.0-6.0-0.0-3.0-0.7","62c0369574193e3d14f7b22f9f12a43bb810570eda2baf507333b77bc13d68a9","arctic","arctic","4543","","<b>What is the name of the narrator&#39;s neighbour?</b>","","","","1","arctic-comprehension","","","","","","","","","","","","","{""Q0"":""Dave""}","","","",""
"survey-multi-choice","39","940220","0.0-6.0-0.0-3.0-0.8","62c0369574193e3d14f7b22f9f12a43bb810570eda2baf507333b77bc13d68a9","arctic","arctic","7948","","<b>What was the objective of the narrator&#39;s expedition?</b>","","","","1","arctic-comprehension","","","","","","","","","","","","","{""Q0"":""Dogsled across Arctic America""}","","","",""
"survey-multi-choice","40","947581","0.0-6.0-0.0-3.0-0.9","62c0369574193e3d14f7b22f9f12a43bb810570eda2baf507333b77bc13d68a9","arctic","arctic","7106","","<b>How did the dogs respond when they saw the bears?</b>","","","","1","arctic-comprehension","","","","","","","","","","","","","{""Q0"":""Approached them""}","","","",""
"html-button-response","41","951414","0.0-6.0-0.0-4.0","62c0369574193e3d14f7b22f9f12a43bb810570eda2baf507333b77bc13d68a9","arctic","arctic","3580","","<p>Thank you for your responses.</p><p>You will now answer some questions about your impressions of the story.</p>","0","","","","","","","","","","","","","","","","","","","","",""
"html-button-response","42","952879","0.0-6.0-0.0-5.0-0.0","62c0369574193e3d14f7b22f9f12a43bb810570eda2baf507333b77bc13d68a9","arctic","arctic","1463","","A5","4","","","","arctic-engagement","","","","","","","","","","","","","","5","absorption","",""
"html-button-response","43","954372","0.0-6.0-0.0-5.0-0.1","62c0369574193e3d14f7b22f9f12a43bb810570eda2baf507333b77bc13d68a9","arctic","arctic","1236","","MS1","3","","","","arctic-engagement","","","","","","","","","","","","","","4","mental-sim","",""
"html-button-response","44","956729","0.0-6.0-0.0-5.0-0.2","62c0369574193e3d14f7b22f9f12a43bb810570eda2baf507333b77bc13d68a9","arctic","arctic","2103","","E6","1","","","","arctic-engagement","","","","","","","","","","","","","","2","enjoyment","",""
"html-button-response","45","957400","0.0-6.0-0.0-5.0-0.3","62c0369574193e3d14f7b22f9f12a43bb810570eda2baf507333b77bc13d68a9","arctic","arctic","413","","MS2","2","","","","arctic-engagement","","","","","","","","","","","","","","3","mental-sim","",""
"html-button-response","46","959400","0.0-6.0-0.0-5.0-0.4","62c0369574193e3d14f7b22f9f12a43bb810570eda2baf507333b77bc13d68a9","arctic","arctic","1745","","E8","1","","","","arctic-engagement","","","","","","","","","","","","","","2","enjoyment","",""
"html-button-response","47","959943","0.0-6.0-0.0-5.0-0.5","62c0369574193e3d14f7b22f9f12a43bb810570eda2baf507333b77bc13d68a9","arctic","arctic","291","","EE5","2","","","","arctic-engagement","","","","","","","","","","","","","","3","emo-engage","",""
"html-button-response","48","962115","0.0-6.0-0.0-5.0-0.6","62c0369574193e3d14f7b22f9f12a43bb810570eda2baf507333b77bc13d68a9","arctic","arctic","1919","","A4","3","","","","arctic-engagement","","","","","","","","","","","","","","4","absorption","",""
"html-button-response","49","964255","0.0-6.0-0.0-5.0-0.7","62c0369574193e3d14f7b22f9f12a43bb810570eda2baf507333b77bc13d68a9","arctic","arctic","1883","","MS3","4","","","","arctic-engagement","","","","","","","","","","","","","","5","mental-sim","",""
"html-button-response","50","968873","0.0-6.0-0.0-5.0-0.8","62c0369574193e3d14f7b22f9f12a43bb810570eda2baf507333b77bc13d68a9","arctic","arctic","4361","","A2","5","","","","arctic-engagement","","","","","","","","","","","","","","6","absorption","",""
"html-button-response","51","971788","0.0-6.0-0.0-5.0-0.9","62c0369574193e3d14f7b22f9f12a43bb810570eda2baf507333b77bc13d68a9","arctic","arctic","2657","","EE1","3","","","","arctic-engagement","","","","","","","","","","","","","","4","emo-engage","",""
"html-button-response","52","974203","0.0-6.0-0.0-5.0-0.10","62c0369574193e3d14f7b22f9f12a43bb810570eda2baf507333b77bc13d68a9","arctic","arctic","2160","","E7","6","","","","arctic-engagement","","","","","","","","","","","","","","7","enjoyment","",""
"html-button-response","53","975696","0.0-6.0-0.0-5.0-0.11","62c0369574193e3d14f7b22f9f12a43bb810570eda2baf507333b77bc13d68a9","arctic","arctic","1237","","EE4","5","","","","arctic-engagement","","","","","","","","","","","","","","6","emo-engage","",""
"html-button-response","54","976544","0.0-6.0-0.0-5.0-0.12","62c0369574193e3d14f7b22f9f12a43bb810570eda2baf507333b77bc13d68a9","arctic","arctic","592","","A3","3","","","","arctic-engagement","","","","","","","","","","","","","","4","absorption","",""
"html-button-response","55","978191","0.0-6.0-0.0-5.0-0.13","62c0369574193e3d14f7b22f9f12a43bb810570eda2baf507333b77bc13d68a9","arctic","arctic","1391","","A1","4","","","","arctic-engagement","","","","","","","","","","","","","","5","absorption","",""
"html-button-response","56","979354","0.0-6.0-0.0-5.0-0.14","62c0369574193e3d14f7b22f9f12a43bb810570eda2baf507333b77bc13d68a9","arctic","arctic","906","","EE3","3","","","","arctic-engagement","","","","","","","","","","","","","","4","emo-engage","",""
"html-button-response","57","980146","0.0-6.0-0.0-5.0-0.15","62c0369574193e3d14f7b22f9f12a43bb810570eda2baf507333b77bc13d68a9","arctic","arctic","535","","E1","2","","","","arctic-engagement","","","","","","","","","","","","","","3","enjoyment","",""
"html-button-response","58","980880","0.0-6.0-0.0-5.0-0.16","62c0369574193e3d14f7b22f9f12a43bb810570eda2baf507333b77bc13d68a9","arctic","arctic","482","","EE2","4","","","","arctic-engagement","","","","","","","","","","","","","","5","emo-engage","",""
"html-button-response","59","982140","0.0-6.0-0.0-5.0-0.17","62c0369574193e3d14f7b22f9f12a43bb810570eda2baf507333b77bc13d68a9","arctic","arctic","1007","","E10","3","","","","arctic-engagement","","","","","","","","","","","","","","4","enjoyment","",""
"html-keyboard-response","60","986635","0.0-6.0-1.0","62c0369574193e3d14f7b22f9f12a43bb810570eda2baf507333b77bc13d68a9","arctic","arctic","4242","","<p>Thank you for your responses. You will now listen to the second story.</p><p>Remember, as you listen to the story you will see letters appear on the screen.</br>As quickly as possible, press <b>&lt;x&gt;</b> if the letter is lowercase and <b>&lt;m&gt;</b> if the letter is uppercase.</p><p>Press <b>&lt;x&gt;</b> or <b>&lt;m&gt;</b> to begin listening!</p>","","88","","","","","","","","","","","","","","","","","","","",""
"html-keyboard-response","61","987140","0.0-6.0-2.0-0.0","62c0369574193e3d14f7b22f9f12a43bb810570eda2baf507333b77bc13d68a9","arctic","arctic","null","","<div style=""font-size:60px;"" tabindex=""0"">+</div>","","null","","","","","","","","","","","","","","","","","","","",""
"dual-task","null","null","null","","arctic","arctic","985.2000000029802","","r","null","88","88","1","swim-dual-task","","r","lowercase","14000","0","3","62c0369574193e3d14f7b22f9f12a43bb810570eda2baf507333b77bc13d68a9","14004.40000000596","985.2000000029802","88","1","swim","","","","",""
"dual-task","null","null","null","","arctic","arctic","896.6999999880791","","f","null","88","88","1","swim-dual-task","","f","lowercase","20000","0","3","62c0369574193e3d14f7b22f9f12a43bb810570eda2baf507333b77bc13d68a9","20003.20000000298","896.6999999880791","88","1","swim","","","","",""
"dual-task","null","null","null","","arctic","arctic","719.2000000029802","","Q","null","88","77","0","swim-dual-task","","Q","uppercase","32000","0","3","62c0369574193e3d14f7b22f9f12a43bb810570eda2baf507333b77bc13d68a9","31999.09999999404","719.2000000029802","88","0","swim","","","","",""
"dual-task","null","null","null","","arctic","arctic","602.6000000089407","","D","null","77","77","1","swim-dual-task","","D","uppercase","44000","0","3","62c0369574193e3d14f7b22f9f12a43bb810570eda2baf507333b77bc13d68a9","44003.40000000596","602.6000000089407","77","1","swim","","","","",""
"dual-task","null","null","null","","arctic","arctic","1030.7999999970198","","d","null","88","88","1","swim-dual-task","","d","lowercase","56000","0","3","62c0369574193e3d14f7b22f9f12a43bb810570eda2baf507333b77bc13d68a9","56003.09999999404","1030.7999999970198","88","1","swim","","","","",""
"dual-task","null","null","null","","arctic","arctic","956.3999999910593","","b","null","88","88","1","swim-dual-task","","b","lowercase","66000","0","3","62c0369574193e3d14f7b22f9f12a43bb810570eda2baf507333b77bc13d68a9","66003.29999999702","956.3999999910593","88","1","swim","","","","",""
"dual-task","null","null","null","","arctic","arctic","872.2000000029802","","g","null","88","88","1","swim-dual-task","","g","lowercase","80000","0","3","62c0369574193e3d14f7b22f9f12a43bb810570eda2baf507333b77bc13d68a9","80001.20000000298","872.2000000029802","88","1","swim","","","","",""
"dual-task","null","null","null","","arctic","arctic","971.1000000089407","","N","null","77","77","1","swim-dual-task","","N","uppercase","88000","0","3","62c0369574193e3d14f7b22f9f12a43bb810570eda2baf507333b77bc13d68a9","87999.29999999702","971.1000000089407","77","1","swim","","","","",""
"dual-task","null","null","null","","arctic","arctic","879.6000000089407","","e","null","88","88","1","swim-dual-task","","e","lowercase","96000","0","3","62c0369574193e3d14f7b22f9f12a43bb810570eda2baf507333b77bc13d68a9","96003.40000000596","879.6000000089407","88","1","swim","","","","",""
"dual-task","null","null","null","","arctic","arctic","895.9000000059605","","r","null","88","88","1","swim-dual-task","","r","lowercase","106000","0","3","62c0369574193e3d14f7b22f9f12a43bb810570eda2baf507333b77bc13d68a9","106003.40000000596","895.9000000059605","88","1","swim","","","","",""
"dual-task","null","null","null","","arctic","arctic","923.5999999940395","","a","null","88","88","1","swim-dual-task","","a","lowercase","112000","0","3","62c0369574193e3d14f7b22f9f12a43bb810570eda2baf507333b77bc13d68a9","112000.90000000596","923.5999999940395","88","1","swim","","","","",""
"dual-task","null","null","null","","arctic","arctic","1027.3999999910593","","A","null","77","77","1","swim-dual-task","","A","uppercase","120000","0","3","62c0369574193e3d14f7b22f9f12a43bb810570eda2baf507333b77bc13d68a9","120003.09999999404","1027.3999999910593","77","1","swim","","","","",""
"dual-task","null","null","null","","arctic","arctic","1016.7999999970198","","R","null","77","77","1","swim-dual-task","","R","uppercase","134000","0","3","62c0369574193e3d14f7b22f9f12a43bb810570eda2baf507333b77bc13d68a9","134003.40000000596","1016.7999999970198","77","1","swim","","","","",""
"dual-task","null","null","null","","arctic","arctic","831.0999999940395","","E","null","77","77","1","swim-dual-task","","E","uppercase","144000","0","3","62c0369574193e3d14f7b22f9f12a43bb810570eda2baf507333b77bc13d68a9","144003.40000000596","831.0999999940395","77","1","swim","","","","",""
"dual-task","null","null","null","","arctic","arctic","822.0999999940395","","H","null","77","77","1","swim-dual-task","","H","uppercase","152000","0","3","62c0369574193e3d14f7b22f9f12a43bb810570eda2baf507333b77bc13d68a9","151999.79999999702","822.0999999940395","77","1","swim","","","","",""
"dual-task","null","null","null","","arctic","arctic","917.7999999970198","","b","null","88","88","1","swim-dual-task","","b","lowercase","164000","0","3","62c0369574193e3d14f7b22f9f12a43bb810570eda2baf507333b77bc13d68a9","164003.20000000298","917.7999999970198","88","1","swim","","","","",""
"dual-task","null","null","null","","arctic","arctic","1158.800000011921","","D","null","77","77","1","swim-dual-task","","D","uppercase","176000","0","3","62c0369574193e3d14f7b22f9f12a43bb810570eda2baf507333b77bc13d68a9","176003","1158.800000011921","77","1","swim","","","","",""
"dual-task","null","null","null","","arctic","arctic","894.4000000059605","","F","null","77","77","1","swim-dual-task","","F","uppercase","188000","0","3","62c0369574193e3d14f7b22f9f12a43bb810570eda2baf507333b77bc13d68a9","188001.29999999702","894.4000000059605","77","1","swim","","","","",""
"dual-task","null","null","null","","arctic","arctic","1014.5","","d","null","88","88","1","swim-dual-task","","d","lowercase","198000","0","3","62c0369574193e3d14f7b22f9f12a43bb810570eda2baf507333b77bc13d68a9","198003.40000000596","1014.5","88","1","swim","","","","",""
"dual-task","null","null","null","","arctic","arctic","1037.9000000059605","","q","null","88","88","1","swim-dual-task","","q","lowercase","208000","0","3","62c0369574193e3d14f7b22f9f12a43bb810570eda2baf507333b77bc13d68a9","208000.90000000596","1037.9000000059605","88","1","swim","","","","",""
"dual-task","null","null","null","","arctic","arctic","933.0999999940395","","h","null","88","88","1","swim-dual-task","","h","lowercase","218000","0","3","62c0369574193e3d14f7b22f9f12a43bb810570eda2baf507333b77bc13d68a9","218003.59999999404","933.0999999940395","88","1","swim","","","","",""
"dual-task","null","null","null","","arctic","arctic","966.6000000089407","","t","null","88","88","1","swim-dual-task","","t","lowercase","228000","0","3","62c0369574193e3d14f7b22f9f12a43bb810570eda2baf507333b77bc13d68a9","228003.5","966.6000000089407","88","1","swim","","","","",""
"dual-task","null","null","null","","arctic","arctic","896.5999999940395","","F","null","77","77","1","swim-dual-task","","F","uppercase","240000","0","3","62c0369574193e3d14f7b22f9f12a43bb810570eda2baf507333b77bc13d68a9","239999.79999999702","896.5999999940395","77","1","swim","","","","",""
"dual-task","null","null","null","","arctic","arctic","913.0999999940395","","h","null","88","88","1","swim-dual-task","","h","lowercase","252000","0","3","62c0369574193e3d14f7b22f9f12a43bb810570eda2baf507333b77bc13d68a9","252003.20000000298","913.0999999940395","88","1","swim","","","","",""
"dual-task","null","null","null","","arctic","arctic","979.2000000029802","","T","null","77","77","1","swim-dual-task","","T","uppercase","260000","0","3","62c0369574193e3d14f7b22f9f12a43bb810570eda2baf507333b77bc13d68a9","260002.70000000298","979.2000000029802","77","1","swim","","","","",""
"dual-task","null","null","null","","arctic","arctic","1156.2999999970198","","G","null","77","77","1","swim-dual-task","","G","uppercase","274000","0","3","62c0369574193e3d14f7b22f9f12a43bb810570eda2baf507333b77bc13d68a9","274002.90000000596","1156.2999999970198","77","1","swim","","","","",""
"dual-task","null","null","null","","arctic","arctic","1115.7000000029802","","t","null","88","88","1","swim-dual-task","","t","lowercase","284000","0","3","62c0369574193e3d14f7b22f9f12a43bb810570eda2baf507333b77bc13d68a9","284002.700000003","1115.7000000029802","88","1","swim","","","","",""
"dual-task","null","null","null","","arctic","arctic","1115","","d","null","88","88","1","swim-dual-task","","d","lowercase","296000","0","3","62c0369574193e3d14f7b22f9f12a43bb810570eda2baf507333b77bc13d68a9","295999.299999997","1115","88","1","swim","","","","",""
"dual-task","null","null","null","","arctic","arctic","1158.3999999910593","","D","null","77","77","1","swim-dual-task","","D","uppercase","310000","0","3","62c0369574193e3d14f7b22f9f12a43bb810570eda2baf507333b77bc13d68a9","310002.799999997","1158.3999999910593","77","1","swim","","","","",""
"dual-task","null","null","null","","arctic","arctic","945.1000000089407","","Q","null","77","77","1","swim-dual-task","","Q","uppercase","318000","0","3","62c0369574193e3d14f7b22f9f12a43bb810570eda2baf507333b77bc13d68a9","318002.700000003","945.1000000089407","77","1","swim","","","","",""
"dual-task","null","null","null","","arctic","arctic","968.5999999940395","","b","null","88","88","1","swim-dual-task","","b","lowercase","328000","0","3","62c0369574193e3d14f7b22f9f12a43bb810570eda2baf507333b77bc13d68a9","327999.5","968.5999999940395","88","1","swim","","","","",""
"dual-task","null","null","null","","arctic","arctic","1229.2999999970198","","B","null","77","77","1","swim-dual-task","","B","uppercase","334000","0","3","62c0369574193e3d14f7b22f9f12a43bb810570eda2baf507333b77bc13d68a9","334002.700000003","1229.2999999970198","77","1","swim","","","","",""
"dual-task","null","null","null","","arctic","arctic","1003.3999999910593","","f","null","88","88","1","swim-dual-task","","f","lowercase","344000","0","3","62c0369574193e3d14f7b22f9f12a43bb810570eda2baf507333b77bc13d68a9","344002.799999997","1003.3999999910593","88","1","swim","","","","",""
"dual-task","null","null","null","","arctic","arctic","1115.7999999970198","","h","null","88","88","1","swim-dual-task","","h","lowercase","352000","0","3","62c0369574193e3d14f7b22f9f12a43bb810570eda2baf507333b77bc13d68a9","352003.40000000596","1115.7999999970198","88","1","swim","","","","",""
"dual-task","null","null","null","","arctic","arctic","1044.5999999940395","","B","null","77","77","1","swim-dual-task","","B","uppercase","366000","0","3","62c0369574193e3d14f7b22f9f12a43bb810570eda2baf507333b77bc13d68a9","366003.40000000596","1044.5999999940395","77","1","swim","","","","",""
"dual-task","null","null","null","","arctic","arctic","968.7999999970198","","H","null","77","77","1","swim-dual-task","","H","uppercase","374000","0","3","62c0369574193e3d14f7b22f9f12a43bb810570eda2baf507333b77bc13d68a9","374003.40000000596","968.7999999970198","77","1","swim","","","","",""
"dual-task","null","null","null","","arctic","arctic","990.0999999940395","","n","null","88","88","1","swim-dual-task","","n","lowercase","382000","0","3","62c0369574193e3d14f7b22f9f12a43bb810570eda2baf507333b77bc13d68a9","382003.40000000596","990.0999999940395","88","1","swim","","","","",""
"dual-task","null","null","null","","arctic","arctic","1207.2000000029802","","g","null","88","88","1","swim-dual-task","","g","lowercase","392000","0","3","62c0369574193e3d14f7b22f9f12a43bb810570eda2baf507333b77bc13d68a9","392003.40000000596","1207.2000000029802","88","1","swim","","","","",""
"dual-task","null","null","null","","arctic","arctic","1151.4000000059605","","r","null","88","88","1","swim-dual-task","","r","lowercase","400000","0","3","62c0369574193e3d14f7b22f9f12a43bb810570eda2baf507333b77bc13d68a9","400003.299999997","1151.4000000059605","88","1","swim","","","","",""
"dual-task","null","null","null","","arctic","arctic","1003.4000000059605","","T","null","77","77","1","swim-dual-task","","T","uppercase","414000","0","3","62c0369574193e3d14f7b22f9f12a43bb810570eda2baf507333b77bc13d68a9","414002.700000003","1003.4000000059605","77","1","swim","","","","",""
"dual-task","null","null","null","","arctic","arctic","951.2999999970198","","E","null","77","77","1","swim-dual-task","","E","uppercase","424000","0","3","62c0369574193e3d14f7b22f9f12a43bb810570eda2baf507333b77bc13d68a9","424003.40000000596","951.2999999970198","77","1","swim","","","","",""
"dual-task","null","null","null","","arctic","arctic","1157.1000000089407","","t","null","88","88","1","swim-dual-task","","t","lowercase","434000","0","3","62c0369574193e3d14f7b22f9f12a43bb810570eda2baf507333b77bc13d68a9","434003.5","1157.1000000089407","88","1","swim","","","","",""
"dual-task","null","null","null","","arctic","arctic","1014.7000000029802","","T","null","77","77","1","swim-dual-task","","T","uppercase","446000","0","3","62c0369574193e3d14f7b22f9f12a43bb810570eda2baf507333b77bc13d68a9","446000","1014.7000000029802","77","1","swim","","","","",""
"dual-task","null","null","null","","arctic","arctic","1264.800000011921","","G","null","77","77","1","swim-dual-task","","G","uppercase","456000","0","3","62c0369574193e3d14f7b22f9f12a43bb810570eda2baf507333b77bc13d68a9","456001","1264.800000011921","77","1","swim","","","","",""
"dual-task","null","null","null","","arctic","arctic","1240.2000000029802","","t","null","88","88","1","swim-dual-task","","t","lowercase","466000","0","3","62c0369574193e3d14f7b22f9f12a43bb810570eda2baf507333b77bc13d68a9","466002.09999999404","1240.2000000029802","88","1","swim","","","","",""
"dual-task","null","null","null","","arctic","arctic","1125.5999999940395","","B","null","77","77","1","swim-dual-task","","B","uppercase","478000","0","3","62c0369574193e3d14f7b22f9f12a43bb810570eda2baf507333b77bc13d68a9","478003.40000000596","1125.5999999940395","77","1","swim","","","","",""
"dual-task","null","null","null","","arctic","arctic","1242","","R","null","77","77","1","swim-dual-task","","R","uppercase","488000","0","3","62c0369574193e3d14f7b22f9f12a43bb810570eda2baf507333b77bc13d68a9","488003.5","1242","77","1","swim","","","","",""
"dual-task","null","null","null","","arctic","arctic","1416.9000000059605","","T","null","77","77","1","swim-dual-task","","T","uppercase","498000","0","3","62c0369574193e3d14f7b22f9f12a43bb810570eda2baf507333b77bc13d68a9","498003.700000003","1416.9000000059605","77","1","swim","","","","",""
"dual-task","null","null","null","","arctic","arctic","854.0999999940395","","a","null","88","88","1","swim-dual-task","","a","lowercase","512000","0","3","62c0369574193e3d14f7b22f9f12a43bb810570eda2baf507333b77bc13d68a9","512003.40000000596","854.0999999940395","88","1","swim","","","","",""
"dual-task","null","null","null","","arctic","arctic","1002.4000000059605","","G","null","77","77","1","swim-dual-task","","G","uppercase","518000","0","3","62c0369574193e3d14f7b22f9f12a43bb810570eda2baf507333b77bc13d68a9","518002.90000000596","1002.4000000059605","77","1","swim","","","","",""
"dual-task","null","null","null","","arctic","arctic","1040.5","","n","null","88","88","1","swim-dual-task","","n","lowercase","524000","0","3","62c0369574193e3d14f7b22f9f12a43bb810570eda2baf507333b77bc13d68a9","524004.59999999404","1040.5","88","1","swim","","","","",""
"dual-task","null","null","null","","arctic","arctic","891.2000000029802","","a","null","88","88","1","swim-dual-task","","a","lowercase","536000","0","3","62c0369574193e3d14f7b22f9f12a43bb810570eda2baf507333b77bc13d68a9","536003.5","891.2000000029802","88","1","swim","","","","",""
"dual-task","null","null","null","","arctic","arctic","960.0999999940395","","f","null","88","88","1","swim-dual-task","","f","lowercase","550000","0","3","62c0369574193e3d14f7b22f9f12a43bb810570eda2baf507333b77bc13d68a9","550003.400000006","960.0999999940395","88","1","swim","","","","",""
"dual-task","null","null","null","","arctic","arctic","1750.4000000059605","","g","null","88","88","1","swim-dual-task","","g","lowercase","556000","0","3","62c0369574193e3d14f7b22f9f12a43bb810570eda2baf507333b77bc13d68a9","556000.099999994","1750.4000000059605","88","1","swim","","","","",""
"dual-task","null","null","null","","arctic","arctic","1064.2999999970198","","H","null","77","77","1","swim-dual-task","","H","uppercase","562000","0","3","62c0369574193e3d14f7b22f9f12a43bb810570eda2baf507333b77bc13d68a9","562003.400000006","1064.2999999970198","77","1","swim","","","","",""
"dual-task","null","null","null","","arctic","arctic","1008.8999999910593","","a","null","88","88","1","swim-dual-task","","a","lowercase","568000","0","3","62c0369574193e3d14f7b22f9f12a43bb810570eda2baf507333b77bc13d68a9","568003.400000006","1008.8999999910593","88","1","swim","","","","",""
"dual-task","null","null","null","","arctic","arctic","891.9000000059605","","q","null","88","88","1","swim-dual-task","","q","lowercase","580000","0","3","62c0369574193e3d14f7b22f9f12a43bb810570eda2baf507333b77bc13d68a9","580003.400000006","891.9000000059605","88","1","swim","","","","",""
"dual-task","null","null","null","","arctic","arctic","1142.2000000029802","","H","null","77","77","1","swim-dual-task","","H","uppercase","590000","0","3","62c0369574193e3d14f7b22f9f12a43bb810570eda2baf507333b77bc13d68a9","590003.400000006","1142.2000000029802","77","1","swim","","","","",""
"dual-task","null","null","null","","arctic","arctic","924.9000000059605","","f","null","88","88","1","swim-dual-task","","f","lowercase","604000","0","3","62c0369574193e3d14f7b22f9f12a43bb810570eda2baf507333b77bc13d68a9","604003.400000006","924.9000000059605","88","1","swim","","","","",""
"dual-task","null","null","null","","arctic","arctic","890.8999999910593","","r","null","88","88","1","swim-dual-task","","r","lowercase","614000","0","3","62c0369574193e3d14f7b22f9f12a43bb810570eda2baf507333b77bc13d68a9","614003.700000003","890.8999999910593","88","1","swim","","","","",""
"dual-task","null","null","null","","arctic","arctic","1086.2999999970198","","e","null","88","88","1","swim-dual-task","","e","lowercase","624000","0","3","62c0369574193e3d14f7b22f9f12a43bb810570eda2baf507333b77bc13d68a9","624002.799999997","1086.2999999970198","88","1","swim","","","","",""
"dual-task","null","null","null","","arctic","arctic","1203.5999999940395","","h","null","88","88","1","swim-dual-task","","h","lowercase","632000","0","3","62c0369574193e3d14f7b22f9f12a43bb810570eda2baf507333b77bc13d68a9","632001.900000006","1203.5999999940395","88","1","swim","","","","",""
"dual-task","null","null","null","","arctic","arctic","1273.7000000029802","","E","null","77","77","1","swim-dual-task","","E","uppercase","642000","0","3","62c0369574193e3d14f7b22f9f12a43bb810570eda2baf507333b77bc13d68a9","642001.5","1273.7000000029802","77","1","swim","","","","",""
"dual-task","null","null","null","","arctic","arctic","1803.0999999940395","","F","null","77","77","1","swim-dual-task","","F","uppercase","648000","0","3","62c0369574193e3d14f7b22f9f12a43bb810570eda2baf507333b77bc13d68a9","648003.400000006","1803.0999999940395","77","1","swim","","","","",""
"dual-task","null","null","null","","arctic","arctic","1239.7999999970198","","N","null","77","77","1","swim-dual-task","","N","uppercase","660000","0","3","62c0369574193e3d14f7b22f9f12a43bb810570eda2baf507333b77bc13d68a9","660003.5","1239.7999999970198","77","1","swim","","","","",""
"dual-task","null","null","null","","arctic","arctic","879.5","","D","null","77","77","1","swim-dual-task","","D","uppercase","670000","0","3","62c0369574193e3d14f7b22f9f12a43bb810570eda2baf507333b77bc13d68a9","670003.5","879.5","77","1","swim","","","","",""
"dual-task","null","null","null","","arctic","arctic","944.5999999940395","","d","null","88","88","1","swim-dual-task","","d","lowercase","680000","0","3","62c0369574193e3d14f7b22f9f12a43bb810570eda2baf507333b77bc13d68a9","680002.900000006","944.5999999940395","88","1","swim","","","","",""
"dual-task","null","null","null","","arctic","arctic","1146.5999999940395","","A","null","77","77","1","swim-dual-task","","A","uppercase","692000","0","3","62c0369574193e3d14f7b22f9f12a43bb810570eda2baf507333b77bc13d68a9","692003.400000006","1146.5999999940395","77","1","swim","","","","",""
"dual-task","null","null","null","","arctic","arctic","933.4000000059605","","R","null","77","77","1","swim-dual-task","","R","uppercase","702000","0","3","62c0369574193e3d14f7b22f9f12a43bb810570eda2baf507333b77bc13d68a9","702003.5","933.4000000059605","77","1","swim","","","","",""
"dual-task","null","null","null","","arctic","arctic","1157.3999999910593","","q","null","88","88","1","swim-dual-task","","q","lowercase","710000","0","3","62c0369574193e3d14f7b22f9f12a43bb810570eda2baf507333b77bc13d68a9","710002.799999997","1157.3999999910593","88","1","swim","","","","",""
"dual-task","null","null","null","","arctic","arctic","1142.3999999910593","","q","null","88","88","1","swim-dual-task","","q","lowercase","718000","0","3","62c0369574193e3d14f7b22f9f12a43bb810570eda2baf507333b77bc13d68a9","718002.900000006","1142.3999999910593","88","1","swim","","","","",""
"dual-task","null","null","null","","arctic","arctic","907.5999999940395","","A","null","77","77","1","swim-dual-task","","A","uppercase","730000","0","3","62c0369574193e3d14f7b22f9f12a43bb810570eda2baf507333b77bc13d68a9","730004.099999994","907.5999999940395","77","1","swim","","","","",""
"dual-task","null","null","null","","arctic","arctic","961.4000000059605","","N","null","77","77","1","swim-dual-task","","N","uppercase","742000","0","3","62c0369574193e3d14f7b22f9f12a43bb810570eda2baf507333b77bc13d68a9","742002.099999994","961.4000000059605","77","1","swim","","","","",""
"dual-task","null","null","null","","arctic","arctic","1057.0999999940395","","R","null","77","77","1","swim-dual-task","","R","uppercase","748000","0","3","62c0369574193e3d14f7b22f9f12a43bb810570eda2baf507333b77bc13d68a9","748002.700000003","1057.0999999940395","77","1","swim","","","","",""
"dual-task","null","null","null","","arctic","arctic","1063","","g","null","88","88","1","swim-dual-task","","g","lowercase","762000","0","3","62c0369574193e3d14f7b22f9f12a43bb810570eda2baf507333b77bc13d68a9","762003.099999994","1063","88","1","swim","","","","",""
"dual-task","null","null","null","","arctic","arctic","1212.0999999940395","","n","null","88","88","1","swim-dual-task","","n","lowercase","772000","0","3","62c0369574193e3d14f7b22f9f12a43bb810570eda2baf507333b77bc13d68a9","772002.799999997","1212.0999999940395","88","1","swim","","","","",""
"dual-task","null","null","null","","arctic","arctic","994.0999999940395","","G","null","77","77","1","swim-dual-task","","G","uppercase","784000","0","3","62c0369574193e3d14f7b22f9f12a43bb810570eda2baf507333b77bc13d68a9","784000.400000006","994.0999999940395","77","1","swim","","","","",""
"dual-task","null","null","null","","arctic","arctic","1020.0999999940395","","E","null","77","77","1","swim-dual-task","","E","uppercase","792000","0","3","62c0369574193e3d14f7b22f9f12a43bb810570eda2baf507333b77bc13d68a9","792002.799999997","1020.0999999940395","77","1","swim","","","","",""
"audio-keyboard-response","62","1797575","0.0-6.0-2.0-1.0","62c0369574193e3d14f7b22f9f12a43bb810570eda2baf507333b77bc13d68a9","arctic","arctic","null","","audio/story_swim.mp3","","null","","","","","","","","","","","","","","","","","","","",""
"html-button-response","63","1798333","0.0-6.0-2.0-2.0","62c0369574193e3d14f7b22f9f12a43bb810570eda2baf507333b77bc13d68a9","arctic","arctic","757","","<p>This concludes the story. Thank you for listening.</p><p>You will now answer some questions about the content of the story.</p>","0","","","","","","","","","","","","","","","","","","","","",""
"survey-multi-choice","64","1804438","0.0-6.0-2.0-3.0-0.0","62c0369574193e3d14f7b22f9f12a43bb810570eda2baf507333b77bc13d68a9","arctic","arctic","6101","","<b>How many times did the astronaut candidates have to complete the final exercise to pass?</b>","","","","1","swim-comprehension","","","","","","","","","","","","","{""Q0"":""Two""}","","","",""
"survey-multi-choice","65","1808161","0.0-6.0-2.0-3.0-0.1","62c0369574193e3d14f7b22f9f12a43bb810570eda2baf507333b77bc13d68a9","arctic","arctic","3460","","<b>How did the narrator train for his swim test?</b>","","","","1","swim-comprehension","","","","","","","","","","","","","{""Q0"":""Took his kids to the pool every day""}","","","",""
"survey-multi-choice","66","1812061","0.0-6.0-2.0-3.0-0.2","62c0369574193e3d14f7b22f9f12a43bb810570eda2baf507333b77bc13d68a9","arctic","arctic","3644","","<b>How often does the narrator swim, now that he is a good swimmer?</b>","","","","1","swim-comprehension","","","","","","","","","","","","","{""Q0"":""Never swam again in his life""}","","","",""
"survey-multi-choice","67","1815210","0.0-6.0-2.0-3.0-0.3","62c0369574193e3d14f7b22f9f12a43bb810570eda2baf507333b77bc13d68a9","arctic","arctic","2887","","<b>What is the narrator afraid of, aside from the water?</b>","","","","1","swim-comprehension","","","","","","","","","","","","","{""Q0"":""Heights""}","","","",""
"survey-multi-choice","68","1819771","0.0-6.0-2.0-3.0-0.4","62c0369574193e3d14f7b22f9f12a43bb810570eda2baf507333b77bc13d68a9","arctic","arctic","4303","","<b>How many astronaut candidates passed the first swim test?</b>","","","","1","swim-comprehension","","","","","","","","","","","","","{""Q0"":""All of them""}","","","",""
"survey-multi-choice","69","1823461","0.0-6.0-2.0-3.0-0.5","62c0369574193e3d14f7b22f9f12a43bb810570eda2baf507333b77bc13d68a9","arctic","arctic","3433","","<b>How many astronaut candidates reported for duty at the Johnson Space Center?</b>","","","","1","swim-comprehension","","","","","","","","","","","","","{""Q0"":""Forty-four""}","","","",""
"survey-multi-choice","70","1829058","0.0-6.0-2.0-3.0-0.6","62c0369574193e3d14f7b22f9f12a43bb810570eda2baf507333b77bc13d68a9","arctic","arctic","5338","","<b>What was the final step of the first swim test in the pool?</b>","","","","1","swim-comprehension","","","","","","","","","","","","","{""Q0"":""Tread water with hands above the water""}","","","",""
"survey-multi-choice","71","1837334","0.0-6.0-2.0-3.0-0.7","62c0369574193e3d14f7b22f9f12a43bb810570eda2baf507333b77bc13d68a9","arctic","arctic","8012","","<b>Where is the home of naval aviation?</b>","","","","1","swim-comprehension","","","","","","","","","","","","","{""Q0"":""Pensacola""}","","","",""
"survey-multi-choice","72","1842688","0.0-6.0-2.0-3.0-0.8","62c0369574193e3d14f7b22f9f12a43bb810570eda2baf507333b77bc13d68a9","arctic","arctic","5095","","<b>What gave the narrator his greatest feeling of accomplishment?</b>","","","","1","swim-comprehension","","","","","","","","","","","","","{""Q0"":""Passing the water survival course""}","","","",""
"survey-multi-choice","73","1848008","0.0-6.0-2.0-3.0-0.9","62c0369574193e3d14f7b22f9f12a43bb810570eda2baf507333b77bc13d68a9","arctic","arctic","5064","","<b>What were the astronaut candidates trained to do at the naval air station?</b>","","","","1","swim-comprehension","","","","","","","","","","","","","{""Q0"":""Eject out of aircraft and survive in water long enough to be rescued""}","","","",""
"html-button-response","74","1849608","0.0-6.0-2.0-4.0","62c0369574193e3d14f7b22f9f12a43bb810570eda2baf507333b77bc13d68a9","arctic","arctic","1343","","<p>Thank you for your responses.</p><p>You will now answer some questions about your impressions of the story.</p>","0","","","","","","","","","","","","","","","","","","","","",""
"html-button-response","75","1850271","0.0-6.0-2.0-5.0-0.0","62c0369574193e3d14f7b22f9f12a43bb810570eda2baf507333b77bc13d68a9","arctic","arctic","661","","MS3","3","","","","swim-engagement","","","","","","","","","","","","","","4","mental-sim","",""
"html-button-response","76","1851271","0.0-6.0-2.0-5.0-0.1","62c0369574193e3d14f7b22f9f12a43bb810570eda2baf507333b77bc13d68a9","arctic","arctic","745","","E1","4","","","","swim-engagement","","","","","","","","","","","","","","5","enjoyment","",""
"html-button-response","77","1852450","0.0-6.0-2.0-5.0-0.2","62c0369574193e3d14f7b22f9f12a43bb810570eda2baf507333b77bc13d68a9","arctic","arctic","926","","A2","5","","","","swim-engagement","","","","","","","","","","","","","","6","absorption","",""
"html-button-response","78","1852999","0.0-6.0-2.0-5.0-0.3","62c0369574193e3d14f7b22f9f12a43bb810570eda2baf507333b77bc13d68a9","arctic","arctic","295","","EE3","4","","","","swim-engagement","","","","","","","","","","","","","","5","emo-engage","",""
"html-button-response","79","1853838","0.0-6.0-2.0-5.0-0.4","62c0369574193e3d14f7b22f9f12a43bb810570eda2baf507333b77bc13d68a9","arctic","arctic","587","","A1","5","","","","swim-engagement","","","","","","","","","","","","","","6","absorption","",""
"html-button-response","80","1854501","0.0-6.0-2.0-5.0-0.5","62c0369574193e3d14f7b22f9f12a43bb810570eda2baf507333b77bc13d68a9","arctic","arctic","407","","E10","5","","","","swim-engagement","","","","","","","","","","","","","","6","enjoyment","",""
"html-button-response","81","1855494","0.0-6.0-2.0-5.0-0.6","62c0369574193e3d14f7b22f9f12a43bb810570eda2baf507333b77bc13d68a9","arctic","arctic","739","","EE4","3","","","","swim-engagement","","","","","","","","","","","","","","4","emo-engage","",""
"html-button-response","82","1856842","0.0-6.0-2.0-5.0-0.7","62c0369574193e3d14f7b22f9f12a43bb810570eda2baf507333b77bc13d68a9","arctic","arctic","1095","","A3","6","","","","swim-engagement","","","","","","","","","","","","","","7","absorption","",""
"html-button-response","83","1858021","0.0-6.0-2.0-5.0-0.8","62c0369574193e3d14f7b22f9f12a43bb810570eda2baf507333b77bc13d68a9","arctic","arctic","924","","MS2","6","","","","swim-engagement","","","","","","","","","","","","","","7","mental-sim","",""
"html-button-response","84","1859144","0.0-6.0-2.0-5.0-0.9","62c0369574193e3d14f7b22f9f12a43bb810570eda2baf507333b77bc13d68a9","arctic","arctic","868","","EE5","5","","","","swim-engagement","","","","","","","","","","","","","","6","emo-engage","",""
"html-button-response","85","1859956","0.0-6.0-2.0-5.0-0.10","62c0369574193e3d14f7b22f9f12a43bb810570eda2baf507333b77bc13d68a9","arctic","arctic","559","","EE1","6","","","","swim-engagement","","","","","","","","","","","","","","7","emo-engage","",""
"html-button-response","86","1861009","0.0-6.0-2.0-5.0-0.11","62c0369574193e3d14f7b22f9f12a43bb810570eda2baf507333b77bc13d68a9","arctic","arctic","796","","A5","6","","","","swim-engagement","","","","","","","","","","","","","","7","absorption","",""
"html-button-response","87","1861825","0.0-6.0-2.0-5.0-0.12","62c0369574193e3d14f7b22f9f12a43bb810570eda2baf507333b77bc13d68a9","arctic","arctic","563","","E7","6","","","","swim-engagement","","","","","","","","","","","","","","7","enjoyment","",""
"html-button-response","88","1862979","0.0-6.0-2.0-5.0-0.13","62c0369574193e3d14f7b22f9f12a43bb810570eda2baf507333b77bc13d68a9","arctic","arctic","901","","E6","6","","","","swim-engagement","","","","","","","","","","","","","","7","enjoyment","",""
"html-button-response","89","1866063","0.0-6.0-2.0-5.0-0.14","62c0369574193e3d14f7b22f9f12a43bb810570eda2baf507333b77bc13d68a9","arctic","arctic","2828","","A4","5","","","","swim-engagement","","","","","","","","","","","","","","6","absorption","",""
"html-button-response","90","1867315","0.0-6.0-2.0-5.0-0.15","62c0369574193e3d14f7b22f9f12a43bb810570eda2baf507333b77bc13d68a9","arctic","arctic","996","","EE2","6","","","","swim-engagement","","","","","","","","","","","","","","7","emo-engage","",""
"html-button-response","91","1868050","0.0-6.0-2.0-5.0-0.16","62c0369574193e3d14f7b22f9f12a43bb810570eda2baf507333b77bc13d68a9","arctic","arctic","482","","MS1","5","","","","swim-engagement","","","","","","","","","","","","","","6","mental-sim","",""
"html-button-response","92","1869325","0.0-6.0-2.0-5.0-0.17","62c0369574193e3d14f7b22f9f12a43bb810570eda2baf507333b77bc13d68a9","arctic","arctic","1023","","E8","6","","","","swim-engagement","","","","","","","","","","","","","","7","enjoyment","",""
"html-button-response","93","1871134","0.0-8.0","62c0369574193e3d14f7b22f9f12a43bb810570eda2baf507333b77bc13d68a9","arctic","arctic","1552","","<p>Thank you for your responses.</p><p>You will now answer some demographic, hearing, and general health questions.</p>","0","","","","","","","","","","","","","","","","","","","","",""
"survey-multi-choice","94","1873999","0.0-9.0-0.0","62c0369574193e3d14f7b22f9f12a43bb810570eda2baf507333b77bc13d68a9","arctic","arctic","2857","","","","","","","survey","","","","","","","","","","","","","{""Q0"":""Chrome""}","","","browser",""
"survey-text","95","1876649","0.0-9.0-1.0","62c0369574193e3d14f7b22f9f12a43bb810570eda2baf507333b77bc13d68a9","arctic","arctic","2389.0999999940395","","","","","","","survey","","","","","","","","","","","","","{""AGE"":""26""}","","","age","26"
"survey-multi-choice","96","1878312","0.0-9.0-2.0","62c0369574193e3d14f7b22f9f12a43bb810570eda2baf507333b77bc13d68a9","arctic","arctic","1402","","","","","","","survey","","","","","","","","","","","","","{""Q0"":""Male""}","","","gender","Male"
"survey-multi-choice","97","1880266","0.0-9.0-4.0","62c0369574193e3d14f7b22f9f12a43bb810570eda2baf507333b77bc13d68a9","arctic","arctic","1694","","","","","","","survey","","","","","","","","","","","","","{""Q0"":""Left""}","","","handedness","Left"
"survey-multi-choice","98","1882655","0.0-9.0-5.0","62c0369574193e3d14f7b22f9f12a43bb810570eda2baf507333b77bc13d68a9","arctic","arctic","2123","","","","","","","survey","","","","","","","","","","","","","{""Q0"":""Some university undergraduate schooling""}","","","education","Some university undergraduate schooling"
"survey-text","99","1886731","0.0-10.0-0.0","62c0369574193e3d14f7b22f9f12a43bb810570eda2baf507333b77bc13d68a9","arctic","arctic","3820","","","","","","","survey","","","","","","","","","","","","","{""L1"":""English""}","","","first-language","English"
"survey-text","100","1893983","0.0-10.0-1.0","62c0369574193e3d14f7b22f9f12a43bb810570eda2baf507333b77bc13d68a9","arctic","arctic","6993.600000008941","","","","","","","survey","","","","","","","","","","","","","{""L2name"":"""",""L2fluency"":"""",""L3name"":"""",""L3fluency"":"""",""L4name"":"""",""L4fluency"":""""}","","","additional-languages","{""L2name"":"""",""L2fluency"":"""",""L3name"":"""",""L3fluency"":"""",""L4name"":"""",""L4fluency"":""""}"
"survey-multi-choice","101","1896372","0.0-10.0-2.0","62c0369574193e3d14f7b22f9f12a43bb810570eda2baf507333b77bc13d68a9","arctic","arctic","2129","","","","","","","survey","","","","","","","","","","","","","{""Q0"":""No""}","","","hearing-aid","No"
"survey-multi-choice","102","1899504","0.0-10.0-3.0","62c0369574193e3d14f7b22f9f12a43bb810570eda2baf507333b77bc13d68a9","arctic","arctic","2873","","","","","","","survey","","","","","","","","","","","","","{""Q0"":""Never""}","","","ringing-ears","Never"
"survey-multi-choice","103","1901570","0.0-10.0-5.0","62c0369574193e3d14f7b22f9f12a43bb810570eda2baf507333b77bc13d68a9","arctic","arctic","1811","","","","","","","survey","","","","","","","","","","","","","{""Q0"":""No""}","","","neuro-disease","No"
"survey-multi-choice","104","1903960","0.0-10.0-7.0","62c0369574193e3d14f7b22f9f12a43bb810570eda2baf507333b77bc13d68a9","arctic","arctic","2132","","","","","","","survey","","","","","","","","","","","","","{""Q0"":""No""}","","","take-meds","No"
"survey-text","105","1906834","0.0-10.0-9.0","62c0369574193e3d14f7b22f9f12a43bb810570eda2baf507333b77bc13d68a9","arctic","arctic","2585","","","","","","","survey","","","","","","","","","","","","","{""HC"":""none""}","","","health-concerns","none"
"html-button-response","106","1909127","0.0-11.0-0.0","62c0369574193e3d14f7b22f9f12a43bb810570eda2baf507333b77bc13d68a9","arctic","arctic","2037","","<p>How would you describe your musical skills/experiences?</p>","3","","","","survey","","","","","","","","","","","","","","","","music-skill","4"
"survey-multi-choice","107","1911283","0.0-11.0-1.0","62c0369574193e3d14f7b22f9f12a43bb810570eda2baf507333b77bc13d68a9","arctic","arctic","1901","","","","","","","survey","","","","","","","","","","","","","{""Q0"":""Yes""}","","","music-instrument","Yes"
"survey-text","108","1914949","0.0-11.0-2.0-0.0","62c0369574193e3d14f7b22f9f12a43bb810570eda2baf507333b77bc13d68a9","arctic","arctic","3407.2999999970198","","","","","","","survey","","","","","","","","","","","","","{""MEXP"":""20""}","","","music-training-yrs","20"
"html-button-response","109","1916782","0.0-12.0-0.0","62c0369574193e3d14f7b22f9f12a43bb810570eda2baf507333b77bc13d68a9","arctic","arctic","1577","","<p>How would you describe your general hearing abilities?</p>","5","","","","survey","","","","","","","","","","","","","","","","ssq-01","6"
"html-button-response","110","1919996","0.0-12.0-1.0","62c0369574193e3d14f7b22f9f12a43bb810570eda2baf507333b77bc13d68a9","arctic","arctic","2957","","<p>When you talk with someone at a place that strongly reverberates/echoes (e.g., in a church or train station),</br>can you understand what the person says?</p>","8","","","","survey","","","","","","","","","","","","","","","","ssq-02","8"
"html-button-response","111","1922562","0.0-12.0-2.0","62c0369574193e3d14f7b22f9f12a43bb810570eda2baf507333b77bc13d68a9","arctic","arctic","2313","","<p>When you are with a group (~5 people) in a lively restaurant, can you follow the group's conversation?</p>","7","","","","survey","","","","","","","","","","","","","","","","ssq-03","7"
"html-button-response","112","1923822","0.0-12.0-3.0","62c0369574193e3d14f7b22f9f12a43bb810570eda2baf507333b77bc13d68a9","arctic","arctic","1006","","<p>Based on the sound of a bus or truck, can you tell whether it is moving towards or away from you?</p>","8","","","","survey","","","","","","","","","","","","","","","","ssq-04","8"
"html-button-response","113","1924798","0.0-12.0-4.0","62c0369574193e3d14f7b22f9f12a43bb810570eda2baf507333b77bc13d68a9","arctic","arctic","720","","<p>When you are in an unknown environment, can you tell from which direction a brief sound originates?</p>","4","","","","survey","","","","","","","","","","","","","","","","ssq-05","4"
"html-button-response","114","1926219","0.0-12.0-5.0","62c0369574193e3d14f7b22f9f12a43bb810570eda2baf507333b77bc13d68a9","arctic","arctic","1165","","<p>Are you able to ignore distracting sounds when you concentrate on a specific aspect of your acoustic surrounding?</p>","8","","","","survey","","","","","","","","","","","","","","","","ssq-06","8"
"fullscreen","115","1927474","0.0-13.0","62c0369574193e3d14f7b22f9f12a43bb810570eda2baf507333b77bc13d68a9","arctic","arctic","","","","","","","","","true","","","","","","","","","","","","","","","",""
