"trial_type","trial_index","time_elapsed","internal_node_id","ParticipantID","firstStory","scramStory","rt","url","stimulus","button_pressed","key_press","correctRESP","correct","designation","success","letterStim","letterType","ONSET","TIMEOUT","CONDITION","Participant","ONSET_ACTUAL","RT","RESP","ACC","STORY","responses","response","type","surveyQuestion","QRESP"
"pavlovia","0","3","0.0-0.0","f2bb444f8ffd5a1198f4d53ea1331eaa8630cd6d527c963e2e614ff914dab8c4","arctic","arctic","","","","","","","","","","","","","","","","","","","","","","","","",""
"external-html","1","4100","0.0-1.0","f2bb444f8ffd5a1198f4d53ea1331eaa8630cd6d527c963e2e614ff914dab8c4","arctic","arctic","3924","consent/consent_updated.html","","","","","","","","","","","","","","","","","","","","","","",""
"html-button-response","2","10747","0.0-2.0-0.0","f2bb444f8ffd5a1198f4d53ea1331eaa8630cd6d527c963e2e614ff914dab8c4","arctic","arctic","6646","","<p>Before we begin the main task, you will complete a short volume calibration and headphone check.</p><p>Please make sure you are in a quiet listening environment, that you are wearing headphones, and that your computer's volume is turned on.<p></p>","0","","","","","","","","","","","","","","","","","","","","",""
"html-button-response","3","24751","0.0-2.0-1.0","f2bb444f8ffd5a1198f4d53ea1331eaa8630cd6d527c963e2e614ff914dab8c4","arctic","arctic","13753","","<p>The volume calibration will be first.</p><p>You will hear a thirty-second noise. Please adjust your computer's volume so that this noise is being presented at a comfortable level.<p></p>","0","","","","","","","","","","","","","","","","","","","","",""
"audio-button-response","4","30000","0.0-2.0-2.0","f2bb444f8ffd5a1198f4d53ea1331eaa8630cd6d527c963e2e614ff914dab8c4","arctic","arctic","4996","","audio/volumetest.mp3","0","","","","","","","","","","","","","","","","","","","","",""
"html-keyboard-response","5","35997","0.0-3.0-0.0","f2bb444f8ffd5a1198f4d53ea1331eaa8630cd6d527c963e2e614ff914dab8c4","arctic","arctic","5995","","<p>You will now complete a short headphone check.</p><p>On each trial, you will hear three tones. One of these tones will be quieter than the others. Your task is to identify whether the quiet tone occurred first, second, or third.</p><p>There are six trials in total.<p></p><p></p>(Press SPACEBAR to begin)","","32","","","","","","","","","","","","","","","","","","","",""
"html-keyboard-response","6","36770","0.0-3.0-1.0-0.0","f2bb444f8ffd5a1198f4d53ea1331eaa8630cd6d527c963e2e614ff914dab8c4","arctic","arctic","null","","<div style=""font-size:60px;"">+</div>","","null","","","","","","","","","","","","","","","","","","","",""
"audio-button-response","7","43628","0.0-3.0-1.0-1.0","f2bb444f8ffd5a1198f4d53ea1331eaa8630cd6d527c963e2e614ff914dab8c4","arctic","arctic","6857","","audio/t1_1.mp3","0","","0","1","headphone-test","","","","","","","","","","","","","","","","",""
"html-keyboard-response","8","44140","0.0-3.0-1.0-2.0","f2bb444f8ffd5a1198f4d53ea1331eaa8630cd6d527c963e2e614ff914dab8c4","arctic","arctic","null","","<p>Correct</p>","","null","","","","","","","","","","","","","","","","","","","",""
"html-keyboard-response","9","44643","0.0-3.0-1.0-0.1","f2bb444f8ffd5a1198f4d53ea1331eaa8630cd6d527c963e2e614ff914dab8c4","arctic","arctic","null","","<div style=""font-size:60px;"">+</div>","","null","","","","","","","","","","","","","","","","","","","",""
"audio-button-response","10","49909","0.0-3.0-1.0-1.1","f2bb444f8ffd5a1198f4d53ea1331eaa8630cd6d527c963e2e614ff914dab8c4","arctic","arctic","5266","","audio/t1_2.mp3","0","","0","1","headphone-test","","","","","","","","","","","","","","","","",""
"html-keyboard-response","11","50410","0.0-3.0-1.0-2.1","f2bb444f8ffd5a1198f4d53ea1331eaa8630cd6d527c963e2e614ff914dab8c4","arctic","arctic","null","","<p>Correct</p>","","null","","","","","","","","","","","","","","","","","","","",""
"html-keyboard-response","12","50920","0.0-3.0-1.0-0.2","f2bb444f8ffd5a1198f4d53ea1331eaa8630cd6d527c963e2e614ff914dab8c4","arctic","arctic","null","","<div style=""font-size:60px;"">+</div>","","null","","","","","","","","","","","","","","","","","","","",""
"audio-button-response","13","55747","0.0-3.0-1.0-1.2","f2bb444f8ffd5a1198f4d53ea1331eaa8630cd6d527c963e2e614ff914dab8c4","arctic","arctic","4825","","audio/t2_2.mp3","1","","1","1","headphone-test","","","","","","","","","","","","","","","","",""
"html-keyboard-response","14","56248","0.0-3.0-1.0-2.2","f2bb444f8ffd5a1198f4d53ea1331eaa8630cd6d527c963e2e614ff914dab8c4","arctic","arctic","null","","<p>Correct</p>","","null","","","","","","","","","","","","","","","","","","","",""
"html-keyboard-response","15","56751","0.0-3.0-1.0-0.3","f2bb444f8ffd5a1198f4d53ea1331eaa8630cd6d527c963e2e614ff914dab8c4","arctic","arctic","null","","<div style=""font-size:60px;"">+</div>","","null","","","","","","","","","","","","","","","","","","","",""
"audio-button-response","16","61626","0.0-3.0-1.0-1.3","f2bb444f8ffd5a1198f4d53ea1331eaa8630cd6d527c963e2e614ff914dab8c4","arctic","arctic","4875","","audio/t3_1.mp3","2","","2","1","headphone-test","","","","","","","","","","","","","","","","",""
"html-keyboard-response","17","62129","0.0-3.0-1.0-2.3","f2bb444f8ffd5a1198f4d53ea1331eaa8630cd6d527c963e2e614ff914dab8c4","arctic","arctic","null","","<p>Correct</p>","","null","","","","","","","","","","","","","","","","","","","",""
"html-keyboard-response","18","62637","0.0-3.0-1.0-0.4","f2bb444f8ffd5a1198f4d53ea1331eaa8630cd6d527c963e2e614ff914dab8c4","arctic","arctic","null","","<div style=""font-size:60px;"">+</div>","","null","","","","","","","","","","","","","","","","","","","",""
"audio-button-response","19","67608","0.0-3.0-1.0-1.4","f2bb444f8ffd5a1198f4d53ea1331eaa8630cd6d527c963e2e614ff914dab8c4","arctic","arctic","4970","","audio/t2_1.mp3","1","","1","1","headphone-test","","","","","","","","","","","","","","","","",""
"html-keyboard-response","20","68111","0.0-3.0-1.0-2.4","f2bb444f8ffd5a1198f4d53ea1331eaa8630cd6d527c963e2e614ff914dab8c4","arctic","arctic","null","","<p>Correct</p>","","null","","","","","","","","","","","","","","","","","","","",""
"html-keyboard-response","21","68619","0.0-3.0-1.0-0.5","f2bb444f8ffd5a1198f4d53ea1331eaa8630cd6d527c963e2e614ff914dab8c4","arctic","arctic","null","","<div style=""font-size:60px;"">+</div>","","null","","","","","","","","","","","","","","","","","","","",""
"audio-button-response","22","73427","0.0-3.0-1.0-1.5","f2bb444f8ffd5a1198f4d53ea1331eaa8630cd6d527c963e2e614ff914dab8c4","arctic","arctic","4806","","audio/t3_2.mp3","2","","2","1","headphone-test","","","","","","","","","","","","","","","","",""
"html-keyboard-response","23","73928","0.0-3.0-1.0-2.5","f2bb444f8ffd5a1198f4d53ea1331eaa8630cd6d527c963e2e614ff914dab8c4","arctic","arctic","null","","<p>Correct</p>","","null","","","","","","","","","","","","","","","","","","","",""
"fullscreen","24","77486","0.0-4.0","f2bb444f8ffd5a1198f4d53ea1331eaa8630cd6d527c963e2e614ff914dab8c4","arctic","arctic","","","","","","","","","true","","","","","","","","","","","","","","","",""
"html-button-response","25","86691","0.0-5.0-0.0","f2bb444f8ffd5a1198f4d53ea1331eaa8630cd6d527c963e2e614ff914dab8c4","arctic","arctic","9203","","<p>There are two blocks to this experiment.</p><p>In each block, you will hear a ~13.5 minute story. One of the stories will be scrambled. Please listen carefully to both stories and understand them as best you can.</p><p>After each story, you will be asked some questions to assess your comprehension.</p>","0","","","","","","","","","","","","","","","","","","","","",""
"html-button-response","26","112687","0.0-5.0-1.0","f2bb444f8ffd5a1198f4d53ea1331eaa8630cd6d527c963e2e614ff914dab8c4","arctic","arctic","25996","","<p>During each story, there will be an additional task.</p><p>A letter will occasionally appear on the screen.</br>Your job is to - as quickly as you can - decide whether the letter is lowercase or uppercase and press one of two keys on the keyboard:</p><p>If the letter is <b>lowercase</b>, press key &lt;<b>x</b>&gt;.</p><p>If the letter is <b>uppercase</b>, press key &lt;<b>m</b>&gt;.</p>","0","","","","","","","","","","","","","","","","","","","","",""
"html-keyboard-response","27","119839","0.0-5.0-2.0","f2bb444f8ffd5a1198f4d53ea1331eaa8630cd6d527c963e2e614ff914dab8c4","arctic","arctic","7151","","<p>Because we want your responses to be as quick as possible, please keep your index fingers over the keys while listening.</p><p>Each block lasts about 20 minutes.</p><p><b>Press &lt;x&gt; or &lt;m&gt; to start the first block!</b></p>","","77","","","","","","","","","","","","","","","","","","","",""
"html-keyboard-response","28","120340","0.0-6.0-0.0-0.0","f2bb444f8ffd5a1198f4d53ea1331eaa8630cd6d527c963e2e614ff914dab8c4","arctic","arctic","null","","<div style=""font-size:60px;"" tabindex=""0"">+</div>","","null","","","","","","","","","","","","","","","","","","","",""
"dual-task","null","null","null","","arctic","arctic","NA","","E","null","NA","77","0","arctic-dual-task","","E","uppercase","10000","1","1","f2bb444f8ffd5a1198f4d53ea1331eaa8630cd6d527c963e2e614ff914dab8c4","10015.200000047684","NA","NA","0","arctic","","","","",""
"dual-task","null","null","null","","arctic","arctic","707","","q","null","88","88","1","arctic-dual-task","","q","lowercase","24000","0","1","f2bb444f8ffd5a1198f4d53ea1331eaa8630cd6d527c963e2e614ff914dab8c4","24001","707","88","1","arctic","","","","",""
"dual-task","null","null","null","","arctic","arctic","640.7999999523163","","R","null","77","77","1","arctic-dual-task","","R","uppercase","34000","0","1","f2bb444f8ffd5a1198f4d53ea1331eaa8630cd6d527c963e2e614ff914dab8c4","34009.59999990463","640.7999999523163","77","1","arctic","","","","",""
"dual-task","null","null","null","","arctic","arctic","673.5999999046326","","B","null","77","77","1","arctic-dual-task","","B","uppercase","44000","0","1","f2bb444f8ffd5a1198f4d53ea1331eaa8630cd6d527c963e2e614ff914dab8c4","44014.5","673.5999999046326","77","1","arctic","","","","",""
"dual-task","null","null","null","","arctic","arctic","527.2999999523163","","Q","null","77","77","1","arctic-dual-task","","Q","uppercase","56000","0","1","f2bb444f8ffd5a1198f4d53ea1331eaa8630cd6d527c963e2e614ff914dab8c4","56008.39999985695","527.2999999523163","77","1","arctic","","","","",""
"dual-task","null","null","null","","arctic","arctic","582.3000001907349","","n","null","88","88","1","arctic-dual-task","","n","lowercase","64000","0","1","f2bb444f8ffd5a1198f4d53ea1331eaa8630cd6d527c963e2e614ff914dab8c4","64009.700000047684","582.3000001907349","88","1","arctic","","","","",""
"dual-task","null","null","null","","arctic","arctic","733.3000001907349","","H","null","77","77","1","arctic-dual-task","","H","uppercase","76000","0","1","f2bb444f8ffd5a1198f4d53ea1331eaa8630cd6d527c963e2e614ff914dab8c4","76009.79999995232","733.3000001907349","77","1","arctic","","","","",""
"dual-task","null","null","null","","arctic","arctic","472.2000000476837","","F","null","77","77","1","arctic-dual-task","","F","uppercase","86000","0","1","f2bb444f8ffd5a1198f4d53ea1331eaa8630cd6d527c963e2e614ff914dab8c4","86014.79999995232","472.2000000476837","77","1","arctic","","","","",""
"dual-task","null","null","null","","arctic","arctic","550.0999999046326","","f","null","88","88","1","arctic-dual-task","","f","lowercase","100000","0","1","f2bb444f8ffd5a1198f4d53ea1331eaa8630cd6d527c963e2e614ff914dab8c4","100003.59999990463","550.0999999046326","88","1","arctic","","","","",""
"dual-task","null","null","null","","arctic","arctic","722.5999999046326","","A","null","77","77","1","arctic-dual-task","","A","uppercase","110000","0","1","f2bb444f8ffd5a1198f4d53ea1331eaa8630cd6d527c963e2e614ff914dab8c4","110009.39999985695","722.5999999046326","77","1","arctic","","","","",""
"dual-task","null","null","null","","arctic","arctic","615.5","","e","null","88","88","1","arctic-dual-task","","e","lowercase","122000","0","1","f2bb444f8ffd5a1198f4d53ea1331eaa8630cd6d527c963e2e614ff914dab8c4","122012.79999995232","615.5","88","1","arctic","","","","",""
"dual-task","null","null","null","","arctic","arctic","506.90000009536743","","A","null","77","77","1","arctic-dual-task","","A","uppercase","128000","0","1","f2bb444f8ffd5a1198f4d53ea1331eaa8630cd6d527c963e2e614ff914dab8c4","128014.59999990463","506.90000009536743","77","1","arctic","","","","",""
"dual-task","null","null","null","","arctic","arctic","644.3000001907349","","e","null","88","88","1","arctic-dual-task","","e","lowercase","140000","0","1","f2bb444f8ffd5a1198f4d53ea1331eaa8630cd6d527c963e2e614ff914dab8c4","140013.70000004768","644.3000001907349","88","1","arctic","","","","",""
"dual-task","null","null","null","","arctic","arctic","721.2000000476837","","a","null","88","88","1","arctic-dual-task","","a","lowercase","152000","0","1","f2bb444f8ffd5a1198f4d53ea1331eaa8630cd6d527c963e2e614ff914dab8c4","152001.89999985695","721.2000000476837","88","1","arctic","","","","",""
"dual-task","null","null","null","","arctic","arctic","538.6000001430511","","E","null","77","77","1","arctic-dual-task","","E","uppercase","160000","0","1","f2bb444f8ffd5a1198f4d53ea1331eaa8630cd6d527c963e2e614ff914dab8c4","160011.29999995232","538.6000001430511","77","1","arctic","","","","",""
"dual-task","null","null","null","","arctic","arctic","551.1000001430511","","g","null","88","88","1","arctic-dual-task","","g","lowercase","172000","0","1","f2bb444f8ffd5a1198f4d53ea1331eaa8630cd6d527c963e2e614ff914dab8c4","172008.5","551.1000001430511","88","1","arctic","","","","",""
"dual-task","null","null","null","","arctic","arctic","478.39999985694885","","B","null","77","77","1","arctic-dual-task","","B","uppercase","180000","0","1","f2bb444f8ffd5a1198f4d53ea1331eaa8630cd6d527c963e2e614ff914dab8c4","180004.89999985695","478.39999985694885","77","1","arctic","","","","",""
"dual-task","null","null","null","","arctic","arctic","472.2000000476837","","G","null","77","77","1","arctic-dual-task","","G","uppercase","188000","0","1","f2bb444f8ffd5a1198f4d53ea1331eaa8630cd6d527c963e2e614ff914dab8c4","188007.89999985695","472.2000000476837","77","1","arctic","","","","",""
"dual-task","null","null","null","","arctic","arctic","531.2999999523163","","e","null","88","88","1","arctic-dual-task","","e","lowercase","196000","0","1","f2bb444f8ffd5a1198f4d53ea1331eaa8630cd6d527c963e2e614ff914dab8c4","196003.79999995232","531.2999999523163","88","1","arctic","","","","",""
"dual-task","null","null","null","","arctic","arctic","461.19999980926514","","A","null","77","77","1","arctic-dual-task","","A","uppercase","208000","0","1","f2bb444f8ffd5a1198f4d53ea1331eaa8630cd6d527c963e2e614ff914dab8c4","208007.59999990463","461.19999980926514","77","1","arctic","","","","",""
"dual-task","null","null","null","","arctic","arctic","584.7000000476837","","q","null","88","88","1","arctic-dual-task","","q","lowercase","218000","0","1","f2bb444f8ffd5a1198f4d53ea1331eaa8630cd6d527c963e2e614ff914dab8c4","218008.5","584.7000000476837","88","1","arctic","","","","",""
"dual-task","null","null","null","","arctic","arctic","721.4000000953674","","T","null","77","77","1","arctic-dual-task","","T","uppercase","228000","0","1","f2bb444f8ffd5a1198f4d53ea1331eaa8630cd6d527c963e2e614ff914dab8c4","228000.89999985695","721.4000000953674","77","1","arctic","","","","",""
"dual-task","null","null","null","","arctic","arctic","554.6000001430511","","H","null","77","77","1","arctic-dual-task","","H","uppercase","242000","0","1","f2bb444f8ffd5a1198f4d53ea1331eaa8630cd6d527c963e2e614ff914dab8c4","242014.20000004768","554.6000001430511","77","1","arctic","","","","",""
"dual-task","null","null","null","","arctic","arctic","628.7000000476837","","f","null","88","88","1","arctic-dual-task","","f","lowercase","254000","0","1","f2bb444f8ffd5a1198f4d53ea1331eaa8630cd6d527c963e2e614ff914dab8c4","254013.20000004768","628.7000000476837","88","1","arctic","","","","",""
"dual-task","null","null","null","","arctic","arctic","715.5999999046326","","B","null","77","77","1","arctic-dual-task","","B","uppercase","260000","0","1","f2bb444f8ffd5a1198f4d53ea1331eaa8630cd6d527c963e2e614ff914dab8c4","260014","715.5999999046326","77","1","arctic","","","","",""
"dual-task","null","null","null","","arctic","arctic","588.5999999046326","","f","null","88","88","1","arctic-dual-task","","f","lowercase","270000","0","1","f2bb444f8ffd5a1198f4d53ea1331eaa8630cd6d527c963e2e614ff914dab8c4","270010.09999990463","588.5999999046326","88","1","arctic","","","","",""
"dual-task","null","null","null","","arctic","arctic","602.6000001430511","","g","null","88","88","1","arctic-dual-task","","g","lowercase","282000","0","1","f2bb444f8ffd5a1198f4d53ea1331eaa8630cd6d527c963e2e614ff914dab8c4","282012.39999985695","602.6000001430511","88","1","arctic","","","","",""
"dual-task","null","null","null","","arctic","arctic","487.59999990463257","","D","null","77","77","1","arctic-dual-task","","D","uppercase","290000","0","1","f2bb444f8ffd5a1198f4d53ea1331eaa8630cd6d527c963e2e614ff914dab8c4","290003.59999990463","487.59999990463257","77","1","arctic","","","","",""
"dual-task","null","null","null","","arctic","arctic","636.2999999523163","","r","null","88","88","1","arctic-dual-task","","r","lowercase","300000","0","1","f2bb444f8ffd5a1198f4d53ea1331eaa8630cd6d527c963e2e614ff914dab8c4","300003.09999990463","636.2999999523163","88","1","arctic","","","","",""
"dual-task","null","null","null","","arctic","arctic","597.7999999523163","","H","null","77","77","1","arctic-dual-task","","H","uppercase","312000","0","1","f2bb444f8ffd5a1198f4d53ea1331eaa8630cd6d527c963e2e614ff914dab8c4","312011.09999990463","597.7999999523163","77","1","arctic","","","","",""
"dual-task","null","null","null","","arctic","arctic","476","","a","null","88","88","1","arctic-dual-task","","a","lowercase","320000","0","1","f2bb444f8ffd5a1198f4d53ea1331eaa8630cd6d527c963e2e614ff914dab8c4","320013.5","476","88","1","arctic","","","","",""
"dual-task","null","null","null","","arctic","arctic","603.1999998092651","","F","null","77","77","1","arctic-dual-task","","F","uppercase","332000","0","1","f2bb444f8ffd5a1198f4d53ea1331eaa8630cd6d527c963e2e614ff914dab8c4","332000.59999990463","603.1999998092651","77","1","arctic","","","","",""
"dual-task","null","null","null","","arctic","arctic","510.5","","G","null","77","77","1","arctic-dual-task","","G","uppercase","340000","0","1","f2bb444f8ffd5a1198f4d53ea1331eaa8630cd6d527c963e2e614ff914dab8c4","340011.59999990463","510.5","77","1","arctic","","","","",""
"dual-task","null","null","null","","arctic","arctic","590","","N","null","77","77","1","arctic-dual-task","","N","uppercase","352000","0","1","f2bb444f8ffd5a1198f4d53ea1331eaa8630cd6d527c963e2e614ff914dab8c4","352004.7999999523","590","77","1","arctic","","","","",""
"dual-task","null","null","null","","arctic","arctic","571.3000001907349","","N","null","77","77","1","arctic-dual-task","","N","uppercase","360000","0","1","f2bb444f8ffd5a1198f4d53ea1331eaa8630cd6d527c963e2e614ff914dab8c4","360007.89999985695","571.3000001907349","77","1","arctic","","","","",""
"dual-task","null","null","null","","arctic","arctic","529","","D","null","77","77","1","arctic-dual-task","","D","uppercase","368000","0","1","f2bb444f8ffd5a1198f4d53ea1331eaa8630cd6d527c963e2e614ff914dab8c4","368006.7999999523","529","77","1","arctic","","","","",""
"dual-task","null","null","null","","arctic","arctic","697.7000000476837","","b","null","88","88","1","arctic-dual-task","","b","lowercase","382000","0","1","f2bb444f8ffd5a1198f4d53ea1331eaa8630cd6d527c963e2e614ff914dab8c4","382013","697.7000000476837","88","1","arctic","","","","",""
"dual-task","null","null","null","","arctic","arctic","570.9000000953674","","d","null","88","88","1","arctic-dual-task","","d","lowercase","396000","0","1","f2bb444f8ffd5a1198f4d53ea1331eaa8630cd6d527c963e2e614ff914dab8c4","396012.7000000477","570.9000000953674","88","1","arctic","","","","",""
"dual-task","null","null","null","","arctic","arctic","652.7999999523163","","Q","null","77","77","1","arctic-dual-task","","Q","uppercase","406000","0","1","f2bb444f8ffd5a1198f4d53ea1331eaa8630cd6d527c963e2e614ff914dab8c4","406002.5","652.7999999523163","77","1","arctic","","","","",""
"dual-task","null","null","null","","arctic","arctic","698.1000001430511","","g","null","88","88","1","arctic-dual-task","","g","lowercase","414000","0","1","f2bb444f8ffd5a1198f4d53ea1331eaa8630cd6d527c963e2e614ff914dab8c4","414004","698.1000001430511","88","1","arctic","","","","",""
"dual-task","null","null","null","","arctic","arctic","599.9000000953674","","T","null","77","77","1","arctic-dual-task","","T","uppercase","422000","0","1","f2bb444f8ffd5a1198f4d53ea1331eaa8630cd6d527c963e2e614ff914dab8c4","422013.7000000477","599.9000000953674","77","1","arctic","","","","",""
"dual-task","null","null","null","","arctic","arctic","617.0999999046326","","a","null","88","88","1","arctic-dual-task","","a","lowercase","432000","0","1","f2bb444f8ffd5a1198f4d53ea1331eaa8630cd6d527c963e2e614ff914dab8c4","432012.2999999523","617.0999999046326","88","1","arctic","","","","",""
"dual-task","null","null","null","","arctic","arctic","951.0999999046326","","a","null","88","88","1","arctic-dual-task","","a","lowercase","440000","0","1","f2bb444f8ffd5a1198f4d53ea1331eaa8630cd6d527c963e2e614ff914dab8c4","440004.59999990463","951.0999999046326","88","1","arctic","","","","",""
"dual-task","null","null","null","","arctic","arctic","569.5","","N","null","77","77","1","arctic-dual-task","","N","uppercase","454000","0","1","f2bb444f8ffd5a1198f4d53ea1331eaa8630cd6d527c963e2e614ff914dab8c4","454012.5","569.5","77","1","arctic","","","","",""
"dual-task","null","null","null","","arctic","arctic","531.6000001430511","","r","null","88","88","1","arctic-dual-task","","r","lowercase","462000","0","1","f2bb444f8ffd5a1198f4d53ea1331eaa8630cd6d527c963e2e614ff914dab8c4","462007.2000000477","531.6000001430511","88","1","arctic","","","","",""
"dual-task","null","null","null","","arctic","arctic","581.3000001907349","","g","null","88","88","1","arctic-dual-task","","g","lowercase","472000","0","1","f2bb444f8ffd5a1198f4d53ea1331eaa8630cd6d527c963e2e614ff914dab8c4","472004.2999999523","581.3000001907349","88","1","arctic","","","","",""
"dual-task","null","null","null","","arctic","arctic","682.5","","r","null","88","88","1","arctic-dual-task","","r","lowercase","480000","0","1","f2bb444f8ffd5a1198f4d53ea1331eaa8630cd6d527c963e2e614ff914dab8c4","480009.59999990463","682.5","88","1","arctic","","","","",""
"dual-task","null","null","null","","arctic","arctic","761.0999999046326","","Q","null","77","77","1","arctic-dual-task","","Q","uppercase","486000","0","1","f2bb444f8ffd5a1198f4d53ea1331eaa8630cd6d527c963e2e614ff914dab8c4","486015.2000000477","761.0999999046326","77","1","arctic","","","","",""
"dual-task","null","null","null","","arctic","arctic","536.7999999523163","","F","null","77","77","1","arctic-dual-task","","F","uppercase","496000","0","1","f2bb444f8ffd5a1198f4d53ea1331eaa8630cd6d527c963e2e614ff914dab8c4","496006.09999990463","536.7999999523163","77","1","arctic","","","","",""
"dual-task","null","null","null","","arctic","arctic","625.4000000953674","","A","null","77","77","1","arctic-dual-task","","A","uppercase","508000","0","1","f2bb444f8ffd5a1198f4d53ea1331eaa8630cd6d527c963e2e614ff914dab8c4","508003.7999999523","625.4000000953674","77","1","arctic","","","","",""
"dual-task","null","null","null","","arctic","arctic","522.7000000476837","","q","null","88","88","1","arctic-dual-task","","q","lowercase","514000","0","1","f2bb444f8ffd5a1198f4d53ea1331eaa8630cd6d527c963e2e614ff914dab8c4","514009.2000000477","522.7000000476837","88","1","arctic","","","","",""
"dual-task","null","null","null","","arctic","arctic","867.2000000476837","","D","null","77","77","1","arctic-dual-task","","D","uppercase","520000","0","1","f2bb444f8ffd5a1198f4d53ea1331eaa8630cd6d527c963e2e614ff914dab8c4","520008.39999985695","867.2000000476837","77","1","arctic","","","","",""
"dual-task","null","null","null","","arctic","arctic","535.7999999523163","","b","null","88","88","1","arctic-dual-task","","b","lowercase","530000","0","1","f2bb444f8ffd5a1198f4d53ea1331eaa8630cd6d527c963e2e614ff914dab8c4","530012.7999999523","535.7999999523163","88","1","arctic","","","","",""
"dual-task","null","null","null","","arctic","arctic","507.7000000476837","","h","null","88","88","1","arctic-dual-task","","h","lowercase","542000","0","1","f2bb444f8ffd5a1198f4d53ea1331eaa8630cd6d527c963e2e614ff914dab8c4","542007.5999999046","507.7000000476837","88","1","arctic","","","","",""
"dual-task","null","null","null","","arctic","arctic","716.7999999523163","","Q","null","77","77","1","arctic-dual-task","","Q","uppercase","554000","0","1","f2bb444f8ffd5a1198f4d53ea1331eaa8630cd6d527c963e2e614ff914dab8c4","554002.7000000477","716.7999999523163","77","1","arctic","","","","",""
"dual-task","null","null","null","","arctic","arctic","612.5","","h","null","88","88","1","arctic-dual-task","","h","lowercase","562000","0","1","f2bb444f8ffd5a1198f4d53ea1331eaa8630cd6d527c963e2e614ff914dab8c4","562013.899999857","612.5","88","1","arctic","","","","",""
"dual-task","null","null","null","","arctic","arctic","680.7000000476837","","n","null","88","88","1","arctic-dual-task","","n","lowercase","570000","0","1","f2bb444f8ffd5a1198f4d53ea1331eaa8630cd6d527c963e2e614ff914dab8c4","570009.2000000477","680.7000000476837","88","1","arctic","","","","",""
"dual-task","null","null","null","","arctic","arctic","897.0999999046326","","t","null","88","88","1","arctic-dual-task","","t","lowercase","578000","0","1","f2bb444f8ffd5a1198f4d53ea1331eaa8630cd6d527c963e2e614ff914dab8c4","578013.2999999523","897.0999999046326","88","1","arctic","","","","",""
"dual-task","null","null","null","","arctic","arctic","488.2999999523163","","T","null","77","77","1","arctic-dual-task","","T","uppercase","586000","0","1","f2bb444f8ffd5a1198f4d53ea1331eaa8630cd6d527c963e2e614ff914dab8c4","586009.5","488.2999999523163","77","1","arctic","","","","",""
"dual-task","null","null","null","","arctic","arctic","632.1000001430511","","h","null","88","88","1","arctic-dual-task","","h","lowercase","594000","0","1","f2bb444f8ffd5a1198f4d53ea1331eaa8630cd6d527c963e2e614ff914dab8c4","594007.2000000477","632.1000001430511","88","1","arctic","","","","",""
"dual-task","null","null","null","","arctic","arctic","582.7999999523163","","R","null","77","77","1","arctic-dual-task","","R","uppercase","608000","0","1","f2bb444f8ffd5a1198f4d53ea1331eaa8630cd6d527c963e2e614ff914dab8c4","608033.2000000477","582.7999999523163","77","1","arctic","","","","",""
"dual-task","null","null","null","","arctic","arctic","922.6000001430511","","n","null","88","88","1","arctic-dual-task","","n","lowercase","618000","0","1","f2bb444f8ffd5a1198f4d53ea1331eaa8630cd6d527c963e2e614ff914dab8c4","618003","922.6000001430511","88","1","arctic","","","","",""
"dual-task","null","null","null","","arctic","arctic","753.5","","t","null","88","88","1","arctic-dual-task","","t","lowercase","626000","0","1","f2bb444f8ffd5a1198f4d53ea1331eaa8630cd6d527c963e2e614ff914dab8c4","626006.5999999046","753.5","88","1","arctic","","","","",""
"dual-task","null","null","null","","arctic","arctic","633.7999999523163","","d","null","88","88","1","arctic-dual-task","","d","lowercase","638000","0","1","f2bb444f8ffd5a1198f4d53ea1331eaa8630cd6d527c963e2e614ff914dab8c4","638002.7000000477","633.7999999523163","88","1","arctic","","","","",""
"dual-task","null","null","null","","arctic","arctic","825.7999999523163","","T","null","77","77","1","arctic-dual-task","","T","uppercase","646000","0","1","f2bb444f8ffd5a1198f4d53ea1331eaa8630cd6d527c963e2e614ff914dab8c4","646008.5999999046","825.7999999523163","77","1","arctic","","","","",""
"dual-task","null","null","null","","arctic","arctic","546","","t","null","88","88","1","arctic-dual-task","","t","lowercase","658000","0","1","f2bb444f8ffd5a1198f4d53ea1331eaa8630cd6d527c963e2e614ff914dab8c4","658009.399999857","546","88","1","arctic","","","","",""
"dual-task","null","null","null","","arctic","arctic","728","","E","null","77","77","1","arctic-dual-task","","E","uppercase","670000","0","1","f2bb444f8ffd5a1198f4d53ea1331eaa8630cd6d527c963e2e614ff914dab8c4","670013","728","77","1","arctic","","","","",""
"dual-task","null","null","null","","arctic","arctic","567.8000001907349","","h","null","88","88","1","arctic-dual-task","","h","lowercase","680000","0","1","f2bb444f8ffd5a1198f4d53ea1331eaa8630cd6d527c963e2e614ff914dab8c4","680000.2999999523","567.8000001907349","88","1","arctic","","","","",""
"dual-task","null","null","null","","arctic","arctic","600.5","","f","null","88","88","1","arctic-dual-task","","f","lowercase","688000","0","1","f2bb444f8ffd5a1198f4d53ea1331eaa8630cd6d527c963e2e614ff914dab8c4","688009","600.5","88","1","arctic","","","","",""
"dual-task","null","null","null","","arctic","arctic","503","","n","null","88","88","1","arctic-dual-task","","n","lowercase","702000","0","1","f2bb444f8ffd5a1198f4d53ea1331eaa8630cd6d527c963e2e614ff914dab8c4","702013.0999999046","503","88","1","arctic","","","","",""
"dual-task","null","null","null","","arctic","arctic","550.7000000476837","","B","null","77","77","1","arctic-dual-task","","B","uppercase","716000","0","1","f2bb444f8ffd5a1198f4d53ea1331eaa8630cd6d527c963e2e614ff914dab8c4","716008.399999857","550.7000000476837","77","1","arctic","","","","",""
"dual-task","null","null","null","","arctic","arctic","716.9000000953674","","R","null","77","77","1","arctic-dual-task","","R","uppercase","724000","0","1","f2bb444f8ffd5a1198f4d53ea1331eaa8630cd6d527c963e2e614ff914dab8c4","724013.899999857","716.9000000953674","77","1","arctic","","","","",""
"dual-task","null","null","null","","arctic","arctic","672.6999998092651","","r","null","88","88","1","arctic-dual-task","","r","lowercase","734000","0","1","f2bb444f8ffd5a1198f4d53ea1331eaa8630cd6d527c963e2e614ff914dab8c4","734015.0999999046","672.6999998092651","88","1","arctic","","","","",""
"dual-task","null","null","null","","arctic","arctic","597.5999999046326","","G","null","77","77","1","arctic-dual-task","","G","uppercase","744000","0","1","f2bb444f8ffd5a1198f4d53ea1331eaa8630cd6d527c963e2e614ff914dab8c4","744014.5","597.5999999046326","77","1","arctic","","","","",""
"dual-task","null","null","null","","arctic","arctic","509","","F","null","77","77","1","arctic-dual-task","","F","uppercase","754000","0","1","f2bb444f8ffd5a1198f4d53ea1331eaa8630cd6d527c963e2e614ff914dab8c4","754000.899999857","509","77","1","arctic","","","","",""
"dual-task","null","null","null","","arctic","arctic","588.7999999523163","","H","null","77","77","1","arctic-dual-task","","H","uppercase","766000","0","1","f2bb444f8ffd5a1198f4d53ea1331eaa8630cd6d527c963e2e614ff914dab8c4","766004.899999857","588.7999999523163","77","1","arctic","","","","",""
"dual-task","null","null","null","","arctic","arctic","619.7000000476837","","e","null","88","88","1","arctic-dual-task","","e","lowercase","778000","0","1","f2bb444f8ffd5a1198f4d53ea1331eaa8630cd6d527c963e2e614ff914dab8c4","778007.899999857","619.7000000476837","88","1","arctic","","","","",""
"dual-task","null","null","null","","arctic","arctic","468.7999999523163","","R","null","77","77","1","arctic-dual-task","","R","uppercase","788000","0","1","f2bb444f8ffd5a1198f4d53ea1331eaa8630cd6d527c963e2e614ff914dab8c4","788009.0999999046","468.7999999523163","77","1","arctic","","","","",""
"audio-keyboard-response","29","918354","0.0-6.0-0.0-1.0","f2bb444f8ffd5a1198f4d53ea1331eaa8630cd6d527c963e2e614ff914dab8c4","arctic","arctic","null","","audio/story_arctic_scrambled.mp3","","null","","","","","","","","","","","","","","","","","","","",""
"html-button-response","30","922027","0.0-6.0-0.0-2.0","f2bb444f8ffd5a1198f4d53ea1331eaa8630cd6d527c963e2e614ff914dab8c4","arctic","arctic","3670","","<p>This concludes the story. Thank you for listening.</p><p>You will now answer some questions about the content of the story.</p>","0","","","","","","","","","","","","","","","","","","","","",""
"survey-multi-choice","31","925988","0.0-6.0-0.0-3.0-0.0","f2bb444f8ffd5a1198f4d53ea1331eaa8630cd6d527c963e2e614ff914dab8c4","arctic","arctic","3957","","<b>What is the name of the narrator&#39;s neighbour?</b>","","","","1","arctic-comprehension","","","","","","","","","","","","","{""Q0"":""Dave""}","","","",""
"survey-multi-choice","32","934421","0.0-6.0-0.0-3.0-0.1","f2bb444f8ffd5a1198f4d53ea1331eaa8630cd6d527c963e2e614ff914dab8c4","arctic","arctic","8172","","<b>What did the narrator do for leisure while in her tent?</b>","","","","1","arctic-comprehension","","","","","","","","","","","","","{""Q0"":""Read""}","","","",""
"survey-multi-choice","33","943304","0.0-6.0-0.0-3.0-0.2","f2bb444f8ffd5a1198f4d53ea1331eaa8630cd6d527c963e2e614ff914dab8c4","arctic","arctic","8625","","<b>What were the weather conditions in the Arctic like the winter of the narrator&#39;s expedition?</b>","","","","1","arctic-comprehension","","","","","","","","","","","","","{""Q0"":""There were more storms than any other winter in recorded history.""}","","","",""
"survey-multi-choice","34","949890","0.0-6.0-0.0-3.0-0.3","f2bb444f8ffd5a1198f4d53ea1331eaa8630cd6d527c963e2e614ff914dab8c4","arctic","arctic","6326","","<b>How did the dogs respond when they saw the bears?</b>","","","","1","arctic-comprehension","","","","","","","","","","","","","{""Q0"":""Approached them""}","","","",""
"survey-multi-choice","35","958657","0.0-6.0-0.0-3.0-0.4","f2bb444f8ffd5a1198f4d53ea1331eaa8630cd6d527c963e2e614ff914dab8c4","arctic","arctic","8511","","<b>How did the narrator&#39;s neighbour respond when she told him about her expedition?</b>","","","","1","arctic-comprehension","","","","","","","","","","","","","{""Q0"":""He said she was going to fail.""}","","","",""
"survey-multi-choice","36","970980","0.0-6.0-0.0-3.0-0.5","f2bb444f8ffd5a1198f4d53ea1331eaa8630cd6d527c963e2e614ff914dab8c4","arctic","arctic","12066","","<b>How did the narrator prepare for her expedition?</b>","","","","1","arctic-comprehension","","","","","","","","","","","","","{""Q0"":""Trained in Alaska learning how to dogsled""}","","","",""
"survey-multi-choice","37","977135","0.0-6.0-0.0-3.0-0.6","f2bb444f8ffd5a1198f4d53ea1331eaa8630cd6d527c963e2e614ff914dab8c4","arctic","arctic","5898","","<b>What was the objective of the narrator&#39;s expedition?</b>","","","","1","arctic-comprehension","","","","","","","","","","","","","{""Q0"":""Dogsled across Arctic America""}","","","",""
"survey-multi-choice","38","990994","0.0-6.0-0.0-3.0-0.7","f2bb444f8ffd5a1198f4d53ea1331eaa8630cd6d527c963e2e614ff914dab8c4","arctic","arctic","13605","","<b>How many sponsorships did the narrator receive to support her expedition?</b>","","","","1","arctic-comprehension","","","","","","","","","","","","","{""Q0"":""None""}","","","",""
"survey-multi-choice","39","1003581","0.0-6.0-0.0-3.0-0.8","f2bb444f8ffd5a1198f4d53ea1331eaa8630cd6d527c963e2e614ff914dab8c4","arctic","arctic","12332","","<b>Which dog on the narrator&#39;s dog team never followed instructions?</b>","","","","1","arctic-comprehension","","","","","","","","","","","","","{""Q0"":""Robert""}","","","",""
"survey-multi-choice","40","1012002","0.0-6.0-0.0-3.0-0.9","f2bb444f8ffd5a1198f4d53ea1331eaa8630cd6d527c963e2e614ff914dab8c4","arctic","arctic","8143","","<b>How did the narrator&#39;s encounter with the polar bears end?</b>","","","","0","arctic-comprehension","","","","","","","","","","","","","{""Q0"":""She shot the bear with her shotgun.""}","","","",""
"html-button-response","41","1014257","0.0-6.0-0.0-4.0","f2bb444f8ffd5a1198f4d53ea1331eaa8630cd6d527c963e2e614ff914dab8c4","arctic","arctic","2003","","<p>Thank you for your responses.</p><p>You will now answer some questions about your impressions of the story.</p>","0","","","","","","","","","","","","","","","","","","","","",""
"html-button-response","42","1020436","0.0-6.0-0.0-5.0-0.0","f2bb444f8ffd5a1198f4d53ea1331eaa8630cd6d527c963e2e614ff914dab8c4","arctic","arctic","6177","","MS1","2","","","","arctic-engagement","","","","","","","","","","","","","","3","mental-sim","",""
"html-button-response","43","1024741","0.0-6.0-0.0-5.0-0.1","f2bb444f8ffd5a1198f4d53ea1331eaa8630cd6d527c963e2e614ff914dab8c4","arctic","arctic","4052","","EE5","1","","","","arctic-engagement","","","","","","","","","","","","","","2","emo-engage","",""
"html-button-response","44","1029004","0.0-6.0-0.0-5.0-0.2","f2bb444f8ffd5a1198f4d53ea1331eaa8630cd6d527c963e2e614ff914dab8c4","arctic","arctic","3986","","E1","2","","","","arctic-engagement","","","","","","","","","","","","","","3","enjoyment","",""
"html-button-response","45","1031277","0.0-6.0-0.0-5.0-0.3","f2bb444f8ffd5a1198f4d53ea1331eaa8630cd6d527c963e2e614ff914dab8c4","arctic","arctic","2019","","A3","2","","","","arctic-engagement","","","","","","","","","","","","","","3","absorption","",""
"html-button-response","46","1034668","0.0-6.0-0.0-5.0-0.4","f2bb444f8ffd5a1198f4d53ea1331eaa8630cd6d527c963e2e614ff914dab8c4","arctic","arctic","3139","","A5","1","","","","arctic-engagement","","","","","","","","","","","","","","2","absorption","",""
"html-button-response","47","1038827","0.0-6.0-0.0-5.0-0.5","f2bb444f8ffd5a1198f4d53ea1331eaa8630cd6d527c963e2e614ff914dab8c4","arctic","arctic","3900","","EE1","3","","","","arctic-engagement","","","","","","","","","","","","","","4","emo-engage","",""
"html-button-response","48","1041849","0.0-6.0-0.0-5.0-0.6","f2bb444f8ffd5a1198f4d53ea1331eaa8630cd6d527c963e2e614ff914dab8c4","arctic","arctic","2769","","EE4","0","","","","arctic-engagement","","","","","","","","","","","","","","1","emo-engage","",""
"html-button-response","49","1046013","0.0-6.0-0.0-5.0-0.7","f2bb444f8ffd5a1198f4d53ea1331eaa8630cd6d527c963e2e614ff914dab8c4","arctic","arctic","3912","","A2","5","","","","arctic-engagement","","","","","","","","","","","","","","6","absorption","",""
"html-button-response","50","1048250","0.0-6.0-0.0-5.0-0.8","f2bb444f8ffd5a1198f4d53ea1331eaa8630cd6d527c963e2e614ff914dab8c4","arctic","arctic","1985","","E8","1","","","","arctic-engagement","","","","","","","","","","","","","","2","enjoyment","",""
"html-button-response","51","1050700","0.0-6.0-0.0-5.0-0.9","f2bb444f8ffd5a1198f4d53ea1331eaa8630cd6d527c963e2e614ff914dab8c4","arctic","arctic","2198","","MS3","4","","","","arctic-engagement","","","","","","","","","","","","","","5","mental-sim","",""
"html-button-response","52","1053984","0.0-6.0-0.0-5.0-0.10","f2bb444f8ffd5a1198f4d53ea1331eaa8630cd6d527c963e2e614ff914dab8c4","arctic","arctic","3023","","A4","1","","","","arctic-engagement","","","","","","","","","","","","","","2","absorption","",""
"html-button-response","53","1058076","0.0-6.0-0.0-5.0-0.11","f2bb444f8ffd5a1198f4d53ea1331eaa8630cd6d527c963e2e614ff914dab8c4","arctic","arctic","3841","","EE2","1","","","","arctic-engagement","","","","","","","","","","","","","","2","emo-engage","",""
"html-button-response","54","1060792","0.0-6.0-0.0-5.0-0.12","f2bb444f8ffd5a1198f4d53ea1331eaa8630cd6d527c963e2e614ff914dab8c4","arctic","arctic","2462","","E10","0","","","","arctic-engagement","","","","","","","","","","","","","","1","enjoyment","",""
"html-button-response","55","1063456","0.0-6.0-0.0-5.0-0.13","f2bb444f8ffd5a1198f4d53ea1331eaa8630cd6d527c963e2e614ff914dab8c4","arctic","arctic","2411","","E7","3","","","","arctic-engagement","","","","","","","","","","","","","","4","enjoyment","",""
"html-button-response","56","1067497","0.0-6.0-0.0-5.0-0.14","f2bb444f8ffd5a1198f4d53ea1331eaa8630cd6d527c963e2e614ff914dab8c4","arctic","arctic","3786","","MS2","4","","","","arctic-engagement","","","","","","","","","","","","","","5","mental-sim","",""
"html-button-response","57","1070444","0.0-6.0-0.0-5.0-0.15","f2bb444f8ffd5a1198f4d53ea1331eaa8630cd6d527c963e2e614ff914dab8c4","arctic","arctic","2694","","A1","0","","","","arctic-engagement","","","","","","","","","","","","","","1","absorption","",""
"html-button-response","58","1072357","0.0-6.0-0.0-5.0-0.16","f2bb444f8ffd5a1198f4d53ea1331eaa8630cd6d527c963e2e614ff914dab8c4","arctic","arctic","1660","","EE3","0","","","","arctic-engagement","","","","","","","","","","","","","","1","emo-engage","",""
"html-button-response","59","1075799","0.0-6.0-0.0-5.0-0.17","f2bb444f8ffd5a1198f4d53ea1331eaa8630cd6d527c963e2e614ff914dab8c4","arctic","arctic","3189","","E6","2","","","","arctic-engagement","","","","","","","","","","","","","","3","enjoyment","",""
"html-keyboard-response","60","1088202","0.0-6.0-1.0","f2bb444f8ffd5a1198f4d53ea1331eaa8630cd6d527c963e2e614ff914dab8c4","arctic","arctic","12150","","<p>Thank you for your responses. You will now listen to the second story.</p><p>Remember, as you listen to the story you will see letters appear on the screen.</br>As quickly as possible, press <b>&lt;x&gt;</b> if the letter is lowercase and <b>&lt;m&gt;</b> if the letter is uppercase.</p><p>Press <b>&lt;x&gt;</b> or <b>&lt;m&gt;</b> to begin listening!</p>","","77","","","","","","","","","","","","","","","","","","","",""
"html-keyboard-response","61","1088703","0.0-6.0-2.0-0.0","f2bb444f8ffd5a1198f4d53ea1331eaa8630cd6d527c963e2e614ff914dab8c4","arctic","arctic","null","","<div style=""font-size:60px;"" tabindex=""0"">+</div>","","null","","","","","","","","","","","","","","","","","","","",""
"dual-task","null","null","null","","arctic","arctic","701.9000000953674","","e","null","88","88","1","swim-dual-task","","e","lowercase","10000","0","1","f2bb444f8ffd5a1198f4d53ea1331eaa8630cd6d527c963e2e614ff914dab8c4","10009.299999952316","701.9000000953674","88","1","swim","","","","",""
"dual-task","null","null","null","","arctic","arctic","656.8999998569489","","D","null","77","77","1","swim-dual-task","","D","uppercase","18000","0","1","f2bb444f8ffd5a1198f4d53ea1331eaa8630cd6d527c963e2e614ff914dab8c4","18014.799999952316","656.8999998569489","77","1","swim","","","","",""
"dual-task","null","null","null","","arctic","arctic","691.4000000953674","","r","null","88","88","1","swim-dual-task","","r","lowercase","28000","0","1","f2bb444f8ffd5a1198f4d53ea1331eaa8630cd6d527c963e2e614ff914dab8c4","28002.400000095367","691.4000000953674","88","1","swim","","","","",""
"dual-task","null","null","null","","arctic","arctic","528.2000000476837","","n","null","88","88","1","swim-dual-task","","n","lowercase","40000","0","1","f2bb444f8ffd5a1198f4d53ea1331eaa8630cd6d527c963e2e614ff914dab8c4","40008.5","528.2000000476837","88","1","swim","","","","",""
"dual-task","null","null","null","","arctic","arctic","514.5","","R","null","77","77","1","swim-dual-task","","R","uppercase","54000","0","1","f2bb444f8ffd5a1198f4d53ea1331eaa8630cd6d527c963e2e614ff914dab8c4","54002.59999990463","514.5","77","1","swim","","","","",""
"dual-task","null","null","null","","arctic","arctic","493.39999985694885","","B","null","77","77","1","swim-dual-task","","B","uppercase","62000","0","1","f2bb444f8ffd5a1198f4d53ea1331eaa8630cd6d527c963e2e614ff914dab8c4","62006.200000047684","493.39999985694885","77","1","swim","","","","",""
"dual-task","null","null","null","","arctic","arctic","517.7999999523163","","F","null","77","77","1","swim-dual-task","","F","uppercase","72000","0","1","f2bb444f8ffd5a1198f4d53ea1331eaa8630cd6d527c963e2e614ff914dab8c4","72012.79999995232","517.7999999523163","77","1","swim","","","","",""
"dual-task","null","null","null","","arctic","arctic","465.09999990463257","","T","null","77","77","1","swim-dual-task","","T","uppercase","82000","0","1","f2bb444f8ffd5a1198f4d53ea1331eaa8630cd6d527c963e2e614ff914dab8c4","82003.90000009537","465.09999990463257","77","1","swim","","","","",""
"dual-task","null","null","null","","arctic","arctic","465.5","","E","null","77","77","1","swim-dual-task","","E","uppercase","94000","0","1","f2bb444f8ffd5a1198f4d53ea1331eaa8630cd6d527c963e2e614ff914dab8c4","94010.90000009537","465.5","77","1","swim","","","","",""
"dual-task","null","null","null","","arctic","arctic","591.5","","N","null","77","77","1","swim-dual-task","","N","uppercase","108000","0","1","f2bb444f8ffd5a1198f4d53ea1331eaa8630cd6d527c963e2e614ff914dab8c4","108007.29999995232","591.5","77","1","swim","","","","",""
"dual-task","null","null","null","","arctic","arctic","737.6999998092651","","d","null","88","88","1","swim-dual-task","","d","lowercase","116000","0","1","f2bb444f8ffd5a1198f4d53ea1331eaa8630cd6d527c963e2e614ff914dab8c4","116013.20000004768","737.6999998092651","88","1","swim","","","","",""
"dual-task","null","null","null","","arctic","arctic","728.6000001430511","","n","null","88","88","1","swim-dual-task","","n","lowercase","124000","0","1","f2bb444f8ffd5a1198f4d53ea1331eaa8630cd6d527c963e2e614ff914dab8c4","123999.40000009537","728.6000001430511","88","1","swim","","","","",""
"dual-task","null","null","null","","arctic","arctic","723.2000000476837","","e","null","88","88","1","swim-dual-task","","e","lowercase","136000","0","1","f2bb444f8ffd5a1198f4d53ea1331eaa8630cd6d527c963e2e614ff914dab8c4","136012.20000004768","723.2000000476837","88","1","swim","","","","",""
"dual-task","null","null","null","","arctic","arctic","644.5","","A","null","77","77","1","swim-dual-task","","A","uppercase","150000","0","1","f2bb444f8ffd5a1198f4d53ea1331eaa8630cd6d527c963e2e614ff914dab8c4","150014.59999990463","644.5","77","1","swim","","","","",""
"dual-task","null","null","null","","arctic","arctic","587.5","","G","null","77","77","1","swim-dual-task","","G","uppercase","162000","0","1","f2bb444f8ffd5a1198f4d53ea1331eaa8630cd6d527c963e2e614ff914dab8c4","162006.59999990463","587.5","77","1","swim","","","","",""
"dual-task","null","null","null","","arctic","arctic","696.1999998092651","","f","null","88","88","1","swim-dual-task","","f","lowercase","174000","0","1","f2bb444f8ffd5a1198f4d53ea1331eaa8630cd6d527c963e2e614ff914dab8c4","174008.20000004768","696.1999998092651","88","1","swim","","","","",""
"dual-task","null","null","null","","arctic","arctic","1115.2000000476837","","a","null","88","88","1","swim-dual-task","","a","lowercase","184000","0","1","f2bb444f8ffd5a1198f4d53ea1331eaa8630cd6d527c963e2e614ff914dab8c4","184004.09999990463","1115.2000000476837","88","1","swim","","","","",""
"dual-task","null","null","null","","arctic","arctic","586.2000000476837","","B","null","77","77","1","swim-dual-task","","B","uppercase","196000","0","1","f2bb444f8ffd5a1198f4d53ea1331eaa8630cd6d527c963e2e614ff914dab8c4","196007.09999990463","586.2000000476837","77","1","swim","","","","",""
"dual-task","null","null","null","","arctic","arctic","678.1999998092651","","t","null","88","88","1","swim-dual-task","","t","lowercase","210000","0","1","f2bb444f8ffd5a1198f4d53ea1331eaa8630cd6d527c963e2e614ff914dab8c4","210015.29999995232","678.1999998092651","88","1","swim","","","","",""
"dual-task","null","null","null","","arctic","arctic","548.2000000476837","","F","null","77","77","1","swim-dual-task","","F","uppercase","220000","0","1","f2bb444f8ffd5a1198f4d53ea1331eaa8630cd6d527c963e2e614ff914dab8c4","220005.29999995232","548.2000000476837","77","1","swim","","","","",""
"dual-task","null","null","null","","arctic","arctic","588","","B","null","77","77","1","swim-dual-task","","B","uppercase","230000","0","1","f2bb444f8ffd5a1198f4d53ea1331eaa8630cd6d527c963e2e614ff914dab8c4","230001.09999990463","588","77","1","swim","","","","",""
"dual-task","null","null","null","","arctic","arctic","757","","r","null","88","88","1","swim-dual-task","","r","lowercase","238000","0","1","f2bb444f8ffd5a1198f4d53ea1331eaa8630cd6d527c963e2e614ff914dab8c4","238009.79999995232","757","88","1","swim","","","","",""
"dual-task","null","null","null","","arctic","arctic","519.1000001430511","","A","null","77","77","1","swim-dual-task","","A","uppercase","246000","0","1","f2bb444f8ffd5a1198f4d53ea1331eaa8630cd6d527c963e2e614ff914dab8c4","246003.09999990463","519.1000001430511","77","1","swim","","","","",""
"dual-task","null","null","null","","arctic","arctic","615.8000001907349","","g","null","88","88","1","swim-dual-task","","g","lowercase","258000","0","1","f2bb444f8ffd5a1198f4d53ea1331eaa8630cd6d527c963e2e614ff914dab8c4","258011.40000009537","615.8000001907349","88","1","swim","","","","",""
"dual-task","null","null","null","","arctic","arctic","543.8999998569489","","r","null","88","88","1","swim-dual-task","","r","lowercase","268000","0","1","f2bb444f8ffd5a1198f4d53ea1331eaa8630cd6d527c963e2e614ff914dab8c4","268014.09999990463","543.8999998569489","88","1","swim","","","","",""
"dual-task","null","null","null","","arctic","arctic","854.5","","a","null","88","88","1","swim-dual-task","","a","lowercase","282000","0","1","f2bb444f8ffd5a1198f4d53ea1331eaa8630cd6d527c963e2e614ff914dab8c4","282013","854.5","88","1","swim","","","","",""
"dual-task","null","null","null","","arctic","arctic","710.1999998092651","","q","null","88","88","1","swim-dual-task","","q","lowercase","288000","0","1","f2bb444f8ffd5a1198f4d53ea1331eaa8630cd6d527c963e2e614ff914dab8c4","288007.2999999523","710.1999998092651","88","1","swim","","","","",""
"dual-task","null","null","null","","arctic","arctic","551.5999999046326","","f","null","88","88","1","swim-dual-task","","f","lowercase","302000","0","1","f2bb444f8ffd5a1198f4d53ea1331eaa8630cd6d527c963e2e614ff914dab8c4","302004.7999999523","551.5999999046326","88","1","swim","","","","",""
"dual-task","null","null","null","","arctic","arctic","667.0999999046326","","T","null","77","77","1","swim-dual-task","","T","uppercase","312000","0","1","f2bb444f8ffd5a1198f4d53ea1331eaa8630cd6d527c963e2e614ff914dab8c4","312014.2999999523","667.0999999046326","77","1","swim","","","","",""
"dual-task","null","null","null","","arctic","arctic","532","","t","null","88","88","1","swim-dual-task","","t","lowercase","322000","0","1","f2bb444f8ffd5a1198f4d53ea1331eaa8630cd6d527c963e2e614ff914dab8c4","322011.90000009537","532","88","1","swim","","","","",""
"dual-task","null","null","null","","arctic","arctic","690.4000000953674","","r","null","88","88","1","swim-dual-task","","r","lowercase","330000","0","1","f2bb444f8ffd5a1198f4d53ea1331eaa8630cd6d527c963e2e614ff914dab8c4","330011.59999990463","690.4000000953674","88","1","swim","","","","",""
"dual-task","null","null","null","","arctic","arctic","600","","d","null","88","88","1","swim-dual-task","","d","lowercase","340000","0","1","f2bb444f8ffd5a1198f4d53ea1331eaa8630cd6d527c963e2e614ff914dab8c4","340007.90000009537","600","88","1","swim","","","","",""
"dual-task","null","null","null","","arctic","arctic","630.5999999046326","","e","null","88","88","1","swim-dual-task","","e","lowercase","350000","0","1","f2bb444f8ffd5a1198f4d53ea1331eaa8630cd6d527c963e2e614ff914dab8c4","350014.5","630.5999999046326","88","1","swim","","","","",""
"dual-task","null","null","null","","arctic","arctic","584.4000000953674","","D","null","77","77","1","swim-dual-task","","D","uppercase","362000","0","1","f2bb444f8ffd5a1198f4d53ea1331eaa8630cd6d527c963e2e614ff914dab8c4","362010.2000000477","584.4000000953674","77","1","swim","","","","",""
"dual-task","null","null","null","","arctic","arctic","617","","b","null","88","88","1","swim-dual-task","","b","lowercase","372000","0","1","f2bb444f8ffd5a1198f4d53ea1331eaa8630cd6d527c963e2e614ff914dab8c4","372007.5","617","88","1","swim","","","","",""
"dual-task","null","null","null","","arctic","arctic","531.3000001907349","","a","null","88","88","1","swim-dual-task","","a","lowercase","380000","0","1","f2bb444f8ffd5a1198f4d53ea1331eaa8630cd6d527c963e2e614ff914dab8c4","380006.7999999523","531.3000001907349","88","1","swim","","","","",""
"dual-task","null","null","null","","arctic","arctic","678.7999999523163","","f","null","88","88","1","swim-dual-task","","f","lowercase","390000","0","1","f2bb444f8ffd5a1198f4d53ea1331eaa8630cd6d527c963e2e614ff914dab8c4","390012.7999999523","678.7999999523163","88","1","swim","","","","",""
"dual-task","null","null","null","","arctic","arctic","541.3000001907349","","e","null","88","88","1","swim-dual-task","","e","lowercase","396000","0","1","f2bb444f8ffd5a1198f4d53ea1331eaa8630cd6d527c963e2e614ff914dab8c4","396014.59999990463","541.3000001907349","88","1","swim","","","","",""
"dual-task","null","null","null","","arctic","arctic","513.7999999523163","","d","null","88","88","1","swim-dual-task","","d","lowercase","406000","0","1","f2bb444f8ffd5a1198f4d53ea1331eaa8630cd6d527c963e2e614ff914dab8c4","406002.7000000477","513.7999999523163","88","1","swim","","","","",""
"dual-task","null","null","null","","arctic","arctic","673.2999999523163","","R","null","77","77","1","swim-dual-task","","R","uppercase","416000","0","1","f2bb444f8ffd5a1198f4d53ea1331eaa8630cd6d527c963e2e614ff914dab8c4","416008.59999990463","673.2999999523163","77","1","swim","","","","",""
"dual-task","null","null","null","","arctic","arctic","818.8999998569489","","n","null","88","88","1","swim-dual-task","","n","lowercase","422000","0","1","f2bb444f8ffd5a1198f4d53ea1331eaa8630cd6d527c963e2e614ff914dab8c4","422001.2000000477","818.8999998569489","88","1","swim","","","","",""
"dual-task","null","null","null","","arctic","arctic","1029.3000001907349","","h","null","88","88","1","swim-dual-task","","h","lowercase","428000","0","1","f2bb444f8ffd5a1198f4d53ea1331eaa8630cd6d527c963e2e614ff914dab8c4","428010.5","1029.3000001907349","88","1","swim","","","","",""
"dual-task","null","null","null","","arctic","arctic","735.8000001907349","","b","null","88","88","1","swim-dual-task","","b","lowercase","438000","0","1","f2bb444f8ffd5a1198f4d53ea1331eaa8630cd6d527c963e2e614ff914dab8c4","438008.2999999523","735.8000001907349","88","1","swim","","","","",""
"dual-task","null","null","null","","arctic","arctic","603.7999999523163","","E","null","77","77","1","swim-dual-task","","E","uppercase","444000","0","1","f2bb444f8ffd5a1198f4d53ea1331eaa8630cd6d527c963e2e614ff914dab8c4","444010.09999990463","603.7999999523163","77","1","swim","","","","",""
"dual-task","null","null","null","","arctic","arctic","534.1000001430511","","D","null","77","77","1","swim-dual-task","","D","uppercase","452000","0","1","f2bb444f8ffd5a1198f4d53ea1331eaa8630cd6d527c963e2e614ff914dab8c4","452009.2000000477","534.1000001430511","77","1","swim","","","","",""
"dual-task","null","null","null","","arctic","arctic","583.8000001907349","","Q","null","77","77","1","swim-dual-task","","Q","uppercase","460000","0","1","f2bb444f8ffd5a1198f4d53ea1331eaa8630cd6d527c963e2e614ff914dab8c4","460006","583.8000001907349","77","1","swim","","","","",""
"dual-task","null","null","null","","arctic","arctic","449.90000009536743","","n","null","88","88","1","swim-dual-task","","n","lowercase","474000","0","1","f2bb444f8ffd5a1198f4d53ea1331eaa8630cd6d527c963e2e614ff914dab8c4","474011.2000000477","449.90000009536743","88","1","swim","","","","",""
"dual-task","null","null","null","","arctic","arctic","624.6000001430511","","Q","null","77","77","1","swim-dual-task","","Q","uppercase","486000","0","1","f2bb444f8ffd5a1198f4d53ea1331eaa8630cd6d527c963e2e614ff914dab8c4","486014.59999990463","624.6000001430511","77","1","swim","","","","",""
"dual-task","null","null","null","","arctic","arctic","538.9000000953674","","N","null","77","77","1","swim-dual-task","","N","uppercase","494000","0","1","f2bb444f8ffd5a1198f4d53ea1331eaa8630cd6d527c963e2e614ff914dab8c4","494007.40000009537","538.9000000953674","77","1","swim","","","","",""
"dual-task","null","null","null","","arctic","arctic","603.3999998569489","","G","null","77","77","1","swim-dual-task","","G","uppercase","508000","0","1","f2bb444f8ffd5a1198f4d53ea1331eaa8630cd6d527c963e2e614ff914dab8c4","508003.09999990463","603.3999998569489","77","1","swim","","","","",""
"dual-task","null","null","null","","arctic","arctic","558.5","","T","null","77","77","1","swim-dual-task","","T","uppercase","522000","0","1","f2bb444f8ffd5a1198f4d53ea1331eaa8630cd6d527c963e2e614ff914dab8c4","522007.2000000477","558.5","77","1","swim","","","","",""
"dual-task","null","null","null","","arctic","arctic","1537.5999999046326","","q","null","88","88","1","swim-dual-task","","q","lowercase","532000","0","1","f2bb444f8ffd5a1198f4d53ea1331eaa8630cd6d527c963e2e614ff914dab8c4","532013.7999999523","1537.5999999046326","88","1","swim","","","","",""
"dual-task","null","null","null","","arctic","arctic","668.2999999523163","","q","null","88","88","1","swim-dual-task","","q","lowercase","544000","0","1","f2bb444f8ffd5a1198f4d53ea1331eaa8630cd6d527c963e2e614ff914dab8c4","544005.2000000477","668.2999999523163","88","1","swim","","","","",""
"dual-task","null","null","null","","arctic","arctic","735.0999999046326","","f","null","88","88","1","swim-dual-task","","f","lowercase","558000","0","1","f2bb444f8ffd5a1198f4d53ea1331eaa8630cd6d527c963e2e614ff914dab8c4","558011.2999999523","735.0999999046326","88","1","swim","","","","",""
"dual-task","null","null","null","","arctic","arctic","646.7999999523163","","N","null","77","77","1","swim-dual-task","","N","uppercase","564000","0","1","f2bb444f8ffd5a1198f4d53ea1331eaa8630cd6d527c963e2e614ff914dab8c4","564000.5","646.7999999523163","77","1","swim","","","","",""
"dual-task","null","null","null","","arctic","arctic","723.7000000476837","","d","null","88","88","1","swim-dual-task","","d","lowercase","574000","0","1","f2bb444f8ffd5a1198f4d53ea1331eaa8630cd6d527c963e2e614ff914dab8c4","574007.2999999523","723.7000000476837","88","1","swim","","","","",""
"dual-task","null","null","null","","arctic","arctic","714.3999998569489","","t","null","88","88","1","swim-dual-task","","t","lowercase","582000","0","1","f2bb444f8ffd5a1198f4d53ea1331eaa8630cd6d527c963e2e614ff914dab8c4","582009.7000000477","714.3999998569489","88","1","swim","","","","",""
"dual-task","null","null","null","","arctic","arctic","628.5999999046326","","E","null","77","77","1","swim-dual-task","","E","uppercase","592000","0","1","f2bb444f8ffd5a1198f4d53ea1331eaa8630cd6d527c963e2e614ff914dab8c4","592000.9000000954","628.5999999046326","77","1","swim","","","","",""
"dual-task","null","null","null","","arctic","arctic","732.2000000476837","","R","null","77","77","1","swim-dual-task","","R","uppercase","606000","0","1","f2bb444f8ffd5a1198f4d53ea1331eaa8630cd6d527c963e2e614ff914dab8c4","606003.2000000477","732.2000000476837","77","1","swim","","","","",""
"dual-task","null","null","null","","arctic","arctic","799.9000000953674","","A","null","77","77","1","swim-dual-task","","A","uppercase","612000","0","1","f2bb444f8ffd5a1198f4d53ea1331eaa8630cd6d527c963e2e614ff914dab8c4","612000.0999999046","799.9000000953674","77","1","swim","","","","",""
"dual-task","null","null","null","","arctic","arctic","742.2999999523163","","T","null","77","77","1","swim-dual-task","","T","uppercase","620000","0","1","f2bb444f8ffd5a1198f4d53ea1331eaa8630cd6d527c963e2e614ff914dab8c4","620004.4000000954","742.2999999523163","77","1","swim","","","","",""
"dual-task","null","null","null","","arctic","arctic","492","","R","null","77","77","1","swim-dual-task","","R","uppercase","628000","0","1","f2bb444f8ffd5a1198f4d53ea1331eaa8630cd6d527c963e2e614ff914dab8c4","628004.2999999523","492","77","1","swim","","","","",""
"dual-task","null","null","null","","arctic","arctic","688.9000000953674","","b","null","88","88","1","swim-dual-task","","b","lowercase","636000","0","1","f2bb444f8ffd5a1198f4d53ea1331eaa8630cd6d527c963e2e614ff914dab8c4","636003.7000000477","688.9000000953674","88","1","swim","","","","",""
"dual-task","null","null","null","","arctic","arctic","553.9000000953674","","G","null","77","77","1","swim-dual-task","","G","uppercase","646000","0","1","f2bb444f8ffd5a1198f4d53ea1331eaa8630cd6d527c963e2e614ff914dab8c4","646006.7000000477","553.9000000953674","77","1","swim","","","","",""
"dual-task","null","null","null","","arctic","arctic","634.4000000953674","","h","null","88","88","1","swim-dual-task","","h","lowercase","656000","0","1","f2bb444f8ffd5a1198f4d53ea1331eaa8630cd6d527c963e2e614ff914dab8c4","656004.4000000954","634.4000000953674","88","1","swim","","","","",""
"dual-task","null","null","null","","arctic","arctic","741.7999999523163","","t","null","88","88","1","swim-dual-task","","t","lowercase","664000","0","1","f2bb444f8ffd5a1198f4d53ea1331eaa8630cd6d527c963e2e614ff914dab8c4","664003.9000000954","741.7999999523163","88","1","swim","","","","",""
"dual-task","null","null","null","","arctic","arctic","527.7000000476837","","Q","null","77","77","1","swim-dual-task","","Q","uppercase","676000","0","1","f2bb444f8ffd5a1198f4d53ea1331eaa8630cd6d527c963e2e614ff914dab8c4","676001.7000000477","527.7000000476837","77","1","swim","","","","",""
"dual-task","null","null","null","","arctic","arctic","553.4000000953674","","F","null","77","77","1","swim-dual-task","","F","uppercase","688000","0","1","f2bb444f8ffd5a1198f4d53ea1331eaa8630cd6d527c963e2e614ff914dab8c4","688010.5","553.4000000953674","77","1","swim","","","","",""
"dual-task","null","null","null","","arctic","arctic","802.5999999046326","","h","null","88","88","1","swim-dual-task","","h","lowercase","694000","0","1","f2bb444f8ffd5a1198f4d53ea1331eaa8630cd6d527c963e2e614ff914dab8c4","694011.2000000477","802.5999999046326","88","1","swim","","","","",""
"dual-task","null","null","null","","arctic","arctic","616.7000000476837","","H","null","77","77","1","swim-dual-task","","H","uppercase","704000","0","1","f2bb444f8ffd5a1198f4d53ea1331eaa8630cd6d527c963e2e614ff914dab8c4","704011.5","616.7000000476837","77","1","swim","","","","",""
"dual-task","null","null","null","","arctic","arctic","783.8000001907349","","g","null","88","88","1","swim-dual-task","","g","lowercase","712000","0","1","f2bb444f8ffd5a1198f4d53ea1331eaa8630cd6d527c963e2e614ff914dab8c4","712003.9000000954","783.8000001907349","88","1","swim","","","","",""
"dual-task","null","null","null","","arctic","arctic","663.2999999523163","","g","null","88","88","1","swim-dual-task","","g","lowercase","722000","0","1","f2bb444f8ffd5a1198f4d53ea1331eaa8630cd6d527c963e2e614ff914dab8c4","722007.5","663.2999999523163","88","1","swim","","","","",""
"dual-task","null","null","null","","arctic","arctic","522","","q","null","88","88","1","swim-dual-task","","q","lowercase","734000","0","1","f2bb444f8ffd5a1198f4d53ea1331eaa8630cd6d527c963e2e614ff914dab8c4","734009.7999999523","522","88","1","swim","","","","",""
"dual-task","null","null","null","","arctic","arctic","519.8999998569489","","H","null","77","77","1","swim-dual-task","","H","uppercase","746000","0","1","f2bb444f8ffd5a1198f4d53ea1331eaa8630cd6d527c963e2e614ff914dab8c4","746006.9000000954","519.8999998569489","77","1","swim","","","","",""
"dual-task","null","null","null","","arctic","arctic","1340.1000001430511","","D","null","77","77","1","swim-dual-task","","D","uppercase","760000","0","1","f2bb444f8ffd5a1198f4d53ea1331eaa8630cd6d527c963e2e614ff914dab8c4","760012.2000000477","1340.1000001430511","77","1","swim","","","","",""
"dual-task","null","null","null","","arctic","arctic","476.10000014305115","","G","null","77","77","1","swim-dual-task","","G","uppercase","766000","0","1","f2bb444f8ffd5a1198f4d53ea1331eaa8630cd6d527c963e2e614ff914dab8c4","766014.2000000477","476.10000014305115","77","1","swim","","","","",""
"dual-task","null","null","null","","arctic","arctic","498.40000009536743","","H","null","77","77","1","swim-dual-task","","H","uppercase","778000","0","1","f2bb444f8ffd5a1198f4d53ea1331eaa8630cd6d527c963e2e614ff914dab8c4","778013.9000000954","498.40000009536743","77","1","swim","","","","",""
"dual-task","null","null","null","","arctic","arctic","836.7000000476837","","B","null","77","77","1","swim-dual-task","","B","uppercase","788000","0","1","f2bb444f8ffd5a1198f4d53ea1331eaa8630cd6d527c963e2e614ff914dab8c4","788009.7000000477","836.7000000476837","77","1","swim","","","","",""
"dual-task","null","null","null","","arctic","arctic","509.2999999523163","","A","null","77","77","1","swim-dual-task","","A","uppercase","794000","0","1","f2bb444f8ffd5a1198f4d53ea1331eaa8630cd6d527c963e2e614ff914dab8c4","794006.4000000954","509.2999999523163","77","1","swim","","","","",""
"audio-keyboard-response","62","1898763","0.0-6.0-2.0-1.0","f2bb444f8ffd5a1198f4d53ea1331eaa8630cd6d527c963e2e614ff914dab8c4","arctic","arctic","null","","audio/story_swim.mp3","","null","","","","","","","","","","","","","","","","","","","",""
"html-button-response","63","1902666","0.0-6.0-2.0-2.0","f2bb444f8ffd5a1198f4d53ea1331eaa8630cd6d527c963e2e614ff914dab8c4","arctic","arctic","3900","","<p>This concludes the story. Thank you for listening.</p><p>You will now answer some questions about the content of the story.</p>","0","","","","","","","","","","","","","","","","","","","","",""
"survey-multi-choice","64","1907591","0.0-6.0-2.0-3.0-0.0","f2bb444f8ffd5a1198f4d53ea1331eaa8630cd6d527c963e2e614ff914dab8c4","arctic","arctic","4922","","<b>How often does the narrator swim, now that he is a good swimmer?</b>","","","","1","swim-comprehension","","","","","","","","","","","","","{""Q0"":""Never swam again in his life""}","","","",""
"survey-multi-choice","65","1916359","0.0-6.0-2.0-3.0-0.1","f2bb444f8ffd5a1198f4d53ea1331eaa8630cd6d527c963e2e614ff914dab8c4","arctic","arctic","8505","","<b>What was the final step of the first swim test in the pool?</b>","","","","1","swim-comprehension","","","","","","","","","","","","","{""Q0"":""Tread water with hands above the water""}","","","",""
"survey-multi-choice","66","1923086","0.0-6.0-2.0-3.0-0.2","f2bb444f8ffd5a1198f4d53ea1331eaa8630cd6d527c963e2e614ff914dab8c4","arctic","arctic","6473","","<b>How did the narrator train for his swim test?</b>","","","","1","swim-comprehension","","","","","","","","","","","","","{""Q0"":""Took his kids to the pool every day""}","","","",""
"survey-multi-choice","67","1928983","0.0-6.0-2.0-3.0-0.3","f2bb444f8ffd5a1198f4d53ea1331eaa8630cd6d527c963e2e614ff914dab8c4","arctic","arctic","5642","","<b>How many times did the astronaut candidates have to complete the final exercise to pass?</b>","","","","1","swim-comprehension","","","","","","","","","","","","","{""Q0"":""Two""}","","","",""
"survey-multi-choice","68","1932580","0.0-6.0-2.0-3.0-0.4","f2bb444f8ffd5a1198f4d53ea1331eaa8630cd6d527c963e2e614ff914dab8c4","arctic","arctic","3343","","<b>What is the narrator afraid of, aside from the water?</b>","","","","1","swim-comprehension","","","","","","","","","","","","","{""Q0"":""Heights""}","","","",""
"survey-multi-choice","69","1936645","0.0-6.0-2.0-3.0-0.5","f2bb444f8ffd5a1198f4d53ea1331eaa8630cd6d527c963e2e614ff914dab8c4","arctic","arctic","3812","","<b>How many astronaut candidates passed the first swim test?</b>","","","","1","swim-comprehension","","","","","","","","","","","","","{""Q0"":""All of them""}","","","",""
"survey-multi-choice","70","1944128","0.0-6.0-2.0-3.0-0.6","f2bb444f8ffd5a1198f4d53ea1331eaa8630cd6d527c963e2e614ff914dab8c4","arctic","arctic","7230","","<b>What gave the narrator his greatest feeling of accomplishment?</b>","","","","1","swim-comprehension","","","","","","","","","","","","","{""Q0"":""Passing the water survival course""}","","","",""
"survey-multi-choice","71","1951672","0.0-6.0-2.0-3.0-0.7","f2bb444f8ffd5a1198f4d53ea1331eaa8630cd6d527c963e2e614ff914dab8c4","arctic","arctic","7288","","<b>Where is the home of naval aviation?</b>","","","","1","swim-comprehension","","","","","","","","","","","","","{""Q0"":""Pensacola""}","","","",""
"survey-multi-choice","72","1956620","0.0-6.0-2.0-3.0-0.8","f2bb444f8ffd5a1198f4d53ea1331eaa8630cd6d527c963e2e614ff914dab8c4","arctic","arctic","4680","","<b>How many astronaut candidates reported for duty at the Johnson Space Center?</b>","","","","1","swim-comprehension","","","","","","","","","","","","","{""Q0"":""Forty-four""}","","","",""
"survey-multi-choice","73","1965053","0.0-6.0-2.0-3.0-0.9","f2bb444f8ffd5a1198f4d53ea1331eaa8630cd6d527c963e2e614ff914dab8c4","arctic","arctic","8179","","<b>What were the astronaut candidates trained to do at the naval air station?</b>","","","","1","swim-comprehension","","","","","","","","","","","","","{""Q0"":""Eject out of aircraft and survive in water long enough to be rescued""}","","","",""
"html-button-response","74","1966853","0.0-6.0-2.0-4.0","f2bb444f8ffd5a1198f4d53ea1331eaa8630cd6d527c963e2e614ff914dab8c4","arctic","arctic","1548","","<p>Thank you for your responses.</p><p>You will now answer some questions about your impressions of the story.</p>","0","","","","","","","","","","","","","","","","","","","","",""
"html-button-response","75","1970246","0.0-6.0-2.0-5.0-0.0","f2bb444f8ffd5a1198f4d53ea1331eaa8630cd6d527c963e2e614ff914dab8c4","arctic","arctic","3391","","E8","3","","","","swim-engagement","","","","","","","","","","","","","","4","enjoyment","",""
"html-button-response","76","1972355","0.0-6.0-2.0-5.0-0.1","f2bb444f8ffd5a1198f4d53ea1331eaa8630cd6d527c963e2e614ff914dab8c4","arctic","arctic","1856","","E10","5","","","","swim-engagement","","","","","","","","","","","","","","6","enjoyment","",""
"html-button-response","77","1975857","0.0-6.0-2.0-5.0-0.2","f2bb444f8ffd5a1198f4d53ea1331eaa8630cd6d527c963e2e614ff914dab8c4","arctic","arctic","3248","","EE3","2","","","","swim-engagement","","","","","","","","","","","","","","3","emo-engage","",""
"html-button-response","78","1978605","0.0-6.0-2.0-5.0-0.3","f2bb444f8ffd5a1198f4d53ea1331eaa8630cd6d527c963e2e614ff914dab8c4","arctic","arctic","2495","","EE1","4","","","","swim-engagement","","","","","","","","","","","","","","5","emo-engage","",""
"html-button-response","79","1981452","0.0-6.0-2.0-5.0-0.4","f2bb444f8ffd5a1198f4d53ea1331eaa8630cd6d527c963e2e614ff914dab8c4","arctic","arctic","2592","","E6","4","","","","swim-engagement","","","","","","","","","","","","","","5","enjoyment","",""
"html-button-response","80","1983666","0.0-6.0-2.0-5.0-0.5","f2bb444f8ffd5a1198f4d53ea1331eaa8630cd6d527c963e2e614ff914dab8c4","arctic","arctic","1962","","MS1","4","","","","swim-engagement","","","","","","","","","","","","","","5","mental-sim","",""
"html-button-response","81","1987970","0.0-6.0-2.0-5.0-0.6","f2bb444f8ffd5a1198f4d53ea1331eaa8630cd6d527c963e2e614ff914dab8c4","arctic","arctic","4051","","A4","2","","","","swim-engagement","","","","","","","","","","","","","","3","absorption","",""
"html-button-response","82","1991393","0.0-6.0-2.0-5.0-0.7","f2bb444f8ffd5a1198f4d53ea1331eaa8630cd6d527c963e2e614ff914dab8c4","arctic","arctic","3170","","E1","3","","","","swim-engagement","","","","","","","","","","","","","","4","enjoyment","",""
"html-button-response","83","1995150","0.0-6.0-2.0-5.0-0.8","f2bb444f8ffd5a1198f4d53ea1331eaa8630cd6d527c963e2e614ff914dab8c4","arctic","arctic","3498","","EE2","0","","","","swim-engagement","","","","","","","","","","","","","","1","emo-engage","",""
"html-button-response","84","1997684","0.0-6.0-2.0-5.0-0.9","f2bb444f8ffd5a1198f4d53ea1331eaa8630cd6d527c963e2e614ff914dab8c4","arctic","arctic","2281","","A3","4","","","","swim-engagement","","","","","","","","","","","","","","5","absorption","",""
"html-button-response","85","2001113","0.0-6.0-2.0-5.0-0.10","f2bb444f8ffd5a1198f4d53ea1331eaa8630cd6d527c963e2e614ff914dab8c4","arctic","arctic","3176","","A1","0","","","","swim-engagement","","","","","","","","","","","","","","1","absorption","",""
"html-button-response","86","2004833","0.0-6.0-2.0-5.0-0.11","f2bb444f8ffd5a1198f4d53ea1331eaa8630cd6d527c963e2e614ff914dab8c4","arctic","arctic","3467","","EE5","2","","","","swim-engagement","","","","","","","","","","","","","","3","emo-engage","",""
"html-button-response","87","2009950","0.0-6.0-2.0-5.0-0.12","f2bb444f8ffd5a1198f4d53ea1331eaa8630cd6d527c963e2e614ff914dab8c4","arctic","arctic","4858","","MS2","5","","","","swim-engagement","","","","","","","","","","","","","","6","mental-sim","",""
"html-button-response","88","2011895","0.0-6.0-2.0-5.0-0.13","f2bb444f8ffd5a1198f4d53ea1331eaa8630cd6d527c963e2e614ff914dab8c4","arctic","arctic","1692","","E7","5","","","","swim-engagement","","","","","","","","","","","","","","6","enjoyment","",""
"html-button-response","89","2014636","0.0-6.0-2.0-5.0-0.14","f2bb444f8ffd5a1198f4d53ea1331eaa8630cd6d527c963e2e614ff914dab8c4","arctic","arctic","2488","","A5","2","","","","swim-engagement","","","","","","","","","","","","","","3","absorption","",""
"html-button-response","90","2018816","0.0-6.0-2.0-5.0-0.15","f2bb444f8ffd5a1198f4d53ea1331eaa8630cd6d527c963e2e614ff914dab8c4","arctic","arctic","3918","","MS3","6","","","","swim-engagement","","","","","","","","","","","","","","7","mental-sim","",""
"html-button-response","91","2022766","0.0-6.0-2.0-5.0-0.16","f2bb444f8ffd5a1198f4d53ea1331eaa8630cd6d527c963e2e614ff914dab8c4","arctic","arctic","3694","","A2","6","","","","swim-engagement","","","","","","","","","","","","","","7","absorption","",""
"html-button-response","92","2026016","0.0-6.0-2.0-5.0-0.17","f2bb444f8ffd5a1198f4d53ea1331eaa8630cd6d527c963e2e614ff914dab8c4","arctic","arctic","2997","","EE4","2","","","","swim-engagement","","","","","","","","","","","","","","3","emo-engage","",""
"html-button-response","93","2028155","0.0-8.0","f2bb444f8ffd5a1198f4d53ea1331eaa8630cd6d527c963e2e614ff914dab8c4","arctic","arctic","1885","","<p>Thank you for your responses.</p><p>You will now answer some demographic, hearing, and general health questions.</p>","0","","","","","","","","","","","","","","","","","","","","",""
"survey-multi-choice","94","2031286","0.0-9.0-0.0","f2bb444f8ffd5a1198f4d53ea1331eaa8630cd6d527c963e2e614ff914dab8c4","arctic","arctic","3129","","","","","","","survey","","","","","","","","","","","","","{""Q0"":""Chrome""}","","","browser",""
"survey-text","95","2038855","0.0-9.0-1.0","f2bb444f8ffd5a1198f4d53ea1331eaa8630cd6d527c963e2e614ff914dab8c4","arctic","arctic","7309.700000047684","","","","","","","survey","","","","","","","","","","","","","{""AGE"":""34""}","","","age","34"
"survey-multi-choice","96","2040982","0.0-9.0-2.0","f2bb444f8ffd5a1198f4d53ea1331eaa8630cd6d527c963e2e614ff914dab8c4","arctic","arctic","1873","","","","","","","survey","","","","","","","","","","","","","{""Q0"":""Male""}","","","gender","Male"
"survey-multi-choice","97","2042829","0.0-9.0-4.0","f2bb444f8ffd5a1198f4d53ea1331eaa8630cd6d527c963e2e614ff914dab8c4","arctic","arctic","1587","","","","","","","survey","","","","","","","","","","","","","{""Q0"":""Right""}","","","handedness","Right"
"survey-multi-choice","98","2047502","0.0-9.0-5.0","f2bb444f8ffd5a1198f4d53ea1331eaa8630cd6d527c963e2e614ff914dab8c4","arctic","arctic","4418","","","","","","","survey","","","","","","","","","","","","","{""Q0"":""Some university undergraduate schooling""}","","","education","Some university undergraduate schooling"
"survey-text","99","2056236","0.0-10.0-0.0","f2bb444f8ffd5a1198f4d53ea1331eaa8630cd6d527c963e2e614ff914dab8c4","arctic","arctic","8470.700000047684","","","","","","","survey","","","","","","","","","","","","","{""L1"":""English""}","","","first-language","English"
"survey-text","100","2072300","0.0-10.0-1.0","f2bb444f8ffd5a1198f4d53ea1331eaa8630cd6d527c963e2e614ff914dab8c4","arctic","arctic","15799.300000190735","","","","","","","survey","","","","","","","","","","","","","{""L2name"":""Japanese"",""L2fluency"":""3"",""L3name"":"""",""L3fluency"":"""",""L4name"":"""",""L4fluency"":""""}","","","additional-languages","{""L2name"":""Japanese"",""L2fluency"":""3"",""L3name"":"""",""L3fluency"":"""",""L4name"":"""",""L4fluency"":""""}"
"survey-multi-choice","101","2074643","0.0-10.0-2.0","f2bb444f8ffd5a1198f4d53ea1331eaa8630cd6d527c963e2e614ff914dab8c4","arctic","arctic","2088","","","","","","","survey","","","","","","","","","","","","","{""Q0"":""No""}","","","hearing-aid","No"
"survey-multi-choice","102","2077467","0.0-10.0-3.0","f2bb444f8ffd5a1198f4d53ea1331eaa8630cd6d527c963e2e614ff914dab8c4","arctic","arctic","2570","","","","","","","survey","","","","","","","","","","","","","{""Q0"":""Never""}","","","ringing-ears","Never"
"survey-multi-choice","103","2080420","0.0-10.0-5.0","f2bb444f8ffd5a1198f4d53ea1331eaa8630cd6d527c963e2e614ff914dab8c4","arctic","arctic","2695","","","","","","","survey","","","","","","","","","","","","","{""Q0"":""No""}","","","neuro-disease","No"
"survey-multi-choice","104","2083732","0.0-10.0-7.0","f2bb444f8ffd5a1198f4d53ea1331eaa8630cd6d527c963e2e614ff914dab8c4","arctic","arctic","3058","","","","","","","survey","","","","","","","","","","","","","{""Q0"":""No""}","","","take-meds","No"
"survey-text","105","2088444","0.0-10.0-9.0","f2bb444f8ffd5a1198f4d53ea1331eaa8630cd6d527c963e2e614ff914dab8c4","arctic","arctic","4436.799999952316","","","","","","","survey","","","","","","","","","","","","","{""HC"":""""}","","","health-concerns",""
"html-button-response","106","2092996","0.0-11.0-0.0","f2bb444f8ffd5a1198f4d53ea1331eaa8630cd6d527c963e2e614ff914dab8c4","arctic","arctic","4298","","<p>How would you describe your musical skills/experiences?</p>","4","","","","survey","","","","","","","","","","","","","","","","music-skill","5"
"survey-multi-choice","107","2095788","0.0-11.0-1.0","f2bb444f8ffd5a1198f4d53ea1331eaa8630cd6d527c963e2e614ff914dab8c4","arctic","arctic","2539","","","","","","","survey","","","","","","","","","","","","","{""Q0"":""Yes""}","","","music-instrument","Yes"
"survey-text","108","2105812","0.0-11.0-2.0-0.0","f2bb444f8ffd5a1198f4d53ea1331eaa8630cd6d527c963e2e614ff914dab8c4","arctic","arctic","9770.799999952316","","","","","","","survey","","","","","","","","","","","","","{""MEXP"":""17""}","","","music-training-yrs","17"
"html-button-response","109","2109877","0.0-12.0-0.0","f2bb444f8ffd5a1198f4d53ea1331eaa8630cd6d527c963e2e614ff914dab8c4","arctic","arctic","3812","","<p>How would you describe your general hearing abilities?</p>","5","","","","survey","","","","","","","","","","","","","","","","ssq-01","6"
"html-button-response","110","2120285","0.0-12.0-1.0","f2bb444f8ffd5a1198f4d53ea1331eaa8630cd6d527c963e2e614ff914dab8c4","arctic","arctic","10151","","<p>When you talk with someone at a place that strongly reverberates/echoes (e.g., in a church or train station),</br>can you understand what the person says?</p>","8","","","","survey","","","","","","","","","","","","","","","","ssq-02","8"
"html-button-response","111","2125444","0.0-12.0-2.0","f2bb444f8ffd5a1198f4d53ea1331eaa8630cd6d527c963e2e614ff914dab8c4","arctic","arctic","4906","","<p>When you are with a group (~5 people) in a lively restaurant, can you follow the group's conversation?</p>","8","","","","survey","","","","","","","","","","","","","","","","ssq-03","8"
"html-button-response","112","2132508","0.0-12.0-3.0","f2bb444f8ffd5a1198f4d53ea1331eaa8630cd6d527c963e2e614ff914dab8c4","arctic","arctic","6812","","<p>Based on the sound of a bus or truck, can you tell whether it is moving towards or away from you?</p>","9","","","","survey","","","","","","","","","","","","","","","","ssq-04","9"
"html-button-response","113","2137981","0.0-12.0-4.0","f2bb444f8ffd5a1198f4d53ea1331eaa8630cd6d527c963e2e614ff914dab8c4","arctic","arctic","5219","","<p>When you are in an unknown environment, can you tell from which direction a brief sound originates?</p>","9","","","","survey","","","","","","","","","","","","","","","","ssq-05","9"
"html-button-response","114","2142613","0.0-12.0-5.0","f2bb444f8ffd5a1198f4d53ea1331eaa8630cd6d527c963e2e614ff914dab8c4","arctic","arctic","4370","","<p>Are you able to ignore distracting sounds when you concentrate on a specific aspect of your acoustic surrounding?</p>","9","","","","survey","","","","","","","","","","","","","","","","ssq-06","9"
"fullscreen","115","2143867","0.0-13.0","f2bb444f8ffd5a1198f4d53ea1331eaa8630cd6d527c963e2e614ff914dab8c4","arctic","arctic","","","","","","","","","true","","","","","","","","","","","","","","","",""
