"trial_type","trial_index","time_elapsed","internal_node_id","ParticipantID","firstStory","scramStory","rt","url","stimulus","button_pressed","key_press","correctRESP","correct","designation","success","letterStim","letterType","ONSET","TIMEOUT","CONDITION","Participant","ONSET_ACTUAL","RT","RESP","ACC","STORY","responses","response","type","surveyQuestion","QRESP"
"pavlovia","0","4","0.0-0.0","8b6ec438e8d425378da7fd4f5fbbabcdf873cd9448c11c6fbfffdf0916ca2fb5","arctic","swim","","","","","","","","","","","","","","","","","","","","","","","","",""
"external-html","1","33147","0.0-1.0","8b6ec438e8d425378da7fd4f5fbbabcdf873cd9448c11c6fbfffdf0916ca2fb5","arctic","swim","32699","consent/consent_updated.html","","","","","","","","","","","","","","","","","","","","","","",""
"html-button-response","2","62137","0.0-2.0-0.0","8b6ec438e8d425378da7fd4f5fbbabcdf873cd9448c11c6fbfffdf0916ca2fb5","arctic","swim","28989","","<p>Before we begin the main task, you will complete a short volume calibration and headphone check.</p><p>Please make sure you are in a quiet listening environment, that you are wearing headphones, and that your computer's volume is turned on.<p></p>","0","","","","","","","","","","","","","","","","","","","","",""
"html-button-response","3","86176","0.0-2.0-1.0","8b6ec438e8d425378da7fd4f5fbbabcdf873cd9448c11c6fbfffdf0916ca2fb5","arctic","swim","23786","","<p>The volume calibration will be first.</p><p>You will hear a thirty-second noise. Please adjust your computer's volume so that this noise is being presented at a comfortable level.<p></p>","0","","","","","","","","","","","","","","","","","","","","",""
"audio-button-response","4","97952","0.0-2.0-2.0","8b6ec438e8d425378da7fd4f5fbbabcdf873cd9448c11c6fbfffdf0916ca2fb5","arctic","swim","11522","","audio/volumetest.mp3","0","","","","","","","","","","","","","","","","","","","","",""
"html-keyboard-response","5","113850","0.0-3.0-0.0","8b6ec438e8d425378da7fd4f5fbbabcdf873cd9448c11c6fbfffdf0916ca2fb5","arctic","swim","15895","","<p>You will now complete a short headphone check.</p><p>On each trial, you will hear three tones. One of these tones will be quieter than the others. Your task is to identify whether the quiet tone occurred first, second, or third.</p><p>There are six trials in total.<p></p><p></p>(Press SPACEBAR to begin)","","32","","","","","","","","","","","","","","","","","","","",""
"html-keyboard-response","6","114633","0.0-3.0-1.0-0.0","8b6ec438e8d425378da7fd4f5fbbabcdf873cd9448c11c6fbfffdf0916ca2fb5","arctic","swim","null","","<div style=""font-size:60px;"">+</div>","","null","","","","","","","","","","","","","","","","","","","",""
"audio-button-response","7","120328","0.0-3.0-1.0-1.0","8b6ec438e8d425378da7fd4f5fbbabcdf873cd9448c11c6fbfffdf0916ca2fb5","arctic","swim","5691","","audio/t1_1.mp3","0","","0","1","headphone-test","","","","","","","","","","","","","","","","",""
"html-keyboard-response","8","120831","0.0-3.0-1.0-2.0","8b6ec438e8d425378da7fd4f5fbbabcdf873cd9448c11c6fbfffdf0916ca2fb5","arctic","swim","null","","<p>Correct</p>","","null","","","","","","","","","","","","","","","","","","","",""
"html-keyboard-response","9","121334","0.0-3.0-1.0-0.1","8b6ec438e8d425378da7fd4f5fbbabcdf873cd9448c11c6fbfffdf0916ca2fb5","arctic","swim","null","","<div style=""font-size:60px;"">+</div>","","null","","","","","","","","","","","","","","","","","","","",""
"audio-button-response","10","126040","0.0-3.0-1.0-1.1","8b6ec438e8d425378da7fd4f5fbbabcdf873cd9448c11c6fbfffdf0916ca2fb5","arctic","swim","4703","","audio/t3_1.mp3","2","","2","1","headphone-test","","","","","","","","","","","","","","","","",""
"html-keyboard-response","11","126541","0.0-3.0-1.0-2.1","8b6ec438e8d425378da7fd4f5fbbabcdf873cd9448c11c6fbfffdf0916ca2fb5","arctic","swim","null","","<p>Correct</p>","","null","","","","","","","","","","","","","","","","","","","",""
"html-keyboard-response","12","127043","0.0-3.0-1.0-0.2","8b6ec438e8d425378da7fd4f5fbbabcdf873cd9448c11c6fbfffdf0916ca2fb5","arctic","swim","null","","<div style=""font-size:60px;"">+</div>","","null","","","","","","","","","","","","","","","","","","","",""
"audio-button-response","13","131679","0.0-3.0-1.0-1.2","8b6ec438e8d425378da7fd4f5fbbabcdf873cd9448c11c6fbfffdf0916ca2fb5","arctic","swim","4634","","audio/t1_2.mp3","0","","0","1","headphone-test","","","","","","","","","","","","","","","","",""
"html-keyboard-response","14","132180","0.0-3.0-1.0-2.2","8b6ec438e8d425378da7fd4f5fbbabcdf873cd9448c11c6fbfffdf0916ca2fb5","arctic","swim","null","","<p>Correct</p>","","null","","","","","","","","","","","","","","","","","","","",""
"html-keyboard-response","15","132692","0.0-3.0-1.0-0.3","8b6ec438e8d425378da7fd4f5fbbabcdf873cd9448c11c6fbfffdf0916ca2fb5","arctic","swim","null","","<div style=""font-size:60px;"">+</div>","","null","","","","","","","","","","","","","","","","","","","",""
"audio-button-response","16","137359","0.0-3.0-1.0-1.3","8b6ec438e8d425378da7fd4f5fbbabcdf873cd9448c11c6fbfffdf0916ca2fb5","arctic","swim","4665","","audio/t2_1.mp3","1","","1","1","headphone-test","","","","","","","","","","","","","","","","",""
"html-keyboard-response","17","137862","0.0-3.0-1.0-2.3","8b6ec438e8d425378da7fd4f5fbbabcdf873cd9448c11c6fbfffdf0916ca2fb5","arctic","swim","null","","<p>Correct</p>","","null","","","","","","","","","","","","","","","","","","","",""
"html-keyboard-response","18","138382","0.0-3.0-1.0-0.4","8b6ec438e8d425378da7fd4f5fbbabcdf873cd9448c11c6fbfffdf0916ca2fb5","arctic","swim","null","","<div style=""font-size:60px;"">+</div>","","null","","","","","","","","","","","","","","","","","","","",""
"audio-button-response","19","143087","0.0-3.0-1.0-1.4","8b6ec438e8d425378da7fd4f5fbbabcdf873cd9448c11c6fbfffdf0916ca2fb5","arctic","swim","4703","","audio/t2_2.mp3","1","","1","1","headphone-test","","","","","","","","","","","","","","","","",""
"html-keyboard-response","20","143592","0.0-3.0-1.0-2.4","8b6ec438e8d425378da7fd4f5fbbabcdf873cd9448c11c6fbfffdf0916ca2fb5","arctic","swim","null","","<p>Correct</p>","","null","","","","","","","","","","","","","","","","","","","",""
"html-keyboard-response","21","144102","0.0-3.0-1.0-0.5","8b6ec438e8d425378da7fd4f5fbbabcdf873cd9448c11c6fbfffdf0916ca2fb5","arctic","swim","null","","<div style=""font-size:60px;"">+</div>","","null","","","","","","","","","","","","","","","","","","","",""
"audio-button-response","22","148927","0.0-3.0-1.0-1.5","8b6ec438e8d425378da7fd4f5fbbabcdf873cd9448c11c6fbfffdf0916ca2fb5","arctic","swim","4822","","audio/t3_2.mp3","2","","2","1","headphone-test","","","","","","","","","","","","","","","","",""
"html-keyboard-response","23","149430","0.0-3.0-1.0-2.5","8b6ec438e8d425378da7fd4f5fbbabcdf873cd9448c11c6fbfffdf0916ca2fb5","arctic","swim","null","","<p>Correct</p>","","null","","","","","","","","","","","","","","","","","","","",""
"fullscreen","24","152692","0.0-4.0","8b6ec438e8d425378da7fd4f5fbbabcdf873cd9448c11c6fbfffdf0916ca2fb5","arctic","swim","","","","","","","","","true","","","","","","","","","","","","","","","",""
"html-button-response","25","170543","0.0-5.0-0.0","8b6ec438e8d425378da7fd4f5fbbabcdf873cd9448c11c6fbfffdf0916ca2fb5","arctic","swim","17849","","<p>There are two blocks to this experiment.</p><p>In each block, you will hear a ~13.5 minute story. One of the stories will be scrambled. Please listen carefully to both stories and understand them as best you can.</p><p>After each story, you will be asked some questions to assess your comprehension.</p>","0","","","","","","","","","","","","","","","","","","","","",""
"html-button-response","26","207399","0.0-5.0-1.0","8b6ec438e8d425378da7fd4f5fbbabcdf873cd9448c11c6fbfffdf0916ca2fb5","arctic","swim","36855","","<p>During each story, there will be an additional task.</p><p>A letter will occasionally appear on the screen.</br>Your job is to - as quickly as you can - decide whether the letter is lowercase or uppercase and press one of two keys on the keyboard:</p><p>If the letter is <b>lowercase</b>, press key &lt;<b>x</b>&gt;.</p><p>If the letter is <b>uppercase</b>, press key &lt;<b>m</b>&gt;.</p>","0","","","","","","","","","","","","","","","","","","","","",""
"html-keyboard-response","27","218182","0.0-5.0-2.0","8b6ec438e8d425378da7fd4f5fbbabcdf873cd9448c11c6fbfffdf0916ca2fb5","arctic","swim","10782","","<p>Because we want your responses to be as quick as possible, please keep your index fingers over the keys while listening.</p><p>Each block lasts about 20 minutes.</p><p><b>Press &lt;x&gt; or &lt;m&gt; to start the first block!</b></p>","","77","","","","","","","","","","","","","","","","","","","",""
"html-keyboard-response","28","218683","0.0-6.0-0.0-0.0","8b6ec438e8d425378da7fd4f5fbbabcdf873cd9448c11c6fbfffdf0916ca2fb5","arctic","swim","null","","<div style=""font-size:60px;"" tabindex=""0"">+</div>","","null","","","","","","","","","","","","","","","","","","","",""
"dual-task","null","null","null","","arctic","swim","1000.3999999985099","","n","null","88","88","1","arctic-dual-task","","n","lowercase","16000","0","4","8b6ec438e8d425378da7fd4f5fbbabcdf873cd9448c11c6fbfffdf0916ca2fb5","16016.59999999404","1000.3999999985099","88","1","arctic","","","","",""
"dual-task","null","null","null","","arctic","swim","856.8999999985099","","E","null","77","77","1","arctic-dual-task","","E","uppercase","22000","0","4","8b6ec438e8d425378da7fd4f5fbbabcdf873cd9448c11c6fbfffdf0916ca2fb5","22005.5","856.8999999985099","77","1","arctic","","","","",""
"dual-task","null","null","null","","arctic","swim","612.6000000014901","","n","null","88","88","1","arctic-dual-task","","n","lowercase","30000","0","4","8b6ec438e8d425378da7fd4f5fbbabcdf873cd9448c11c6fbfffdf0916ca2fb5","29998.59999999404","612.6000000014901","88","1","arctic","","","","",""
"dual-task","null","null","null","","arctic","swim","871.3000000044703","","A","null","77","77","1","arctic-dual-task","","A","uppercase","40000","0","4","8b6ec438e8d425378da7fd4f5fbbabcdf873cd9448c11c6fbfffdf0916ca2fb5","39998.79999999702","871.3000000044703","77","1","arctic","","","","",""
"dual-task","null","null","null","","arctic","swim","680.5","","A","null","77","77","1","arctic-dual-task","","A","uppercase","52000","0","4","8b6ec438e8d425378da7fd4f5fbbabcdf873cd9448c11c6fbfffdf0916ca2fb5","52005.69999999553","680.5","77","1","arctic","","","","",""
"dual-task","null","null","null","","arctic","swim","1729.2000000029802","","r","null","88","88","1","arctic-dual-task","","r","lowercase","60000","0","4","8b6ec438e8d425378da7fd4f5fbbabcdf873cd9448c11c6fbfffdf0916ca2fb5","60015.89999999851","1729.2000000029802","88","1","arctic","","","","",""
"dual-task","null","null","null","","arctic","swim","865.6999999955297","","f","null","88","88","1","arctic-dual-task","","f","lowercase","66000","0","4","8b6ec438e8d425378da7fd4f5fbbabcdf873cd9448c11c6fbfffdf0916ca2fb5","65999.19999999553","865.6999999955297","88","1","arctic","","","","",""
"dual-task","null","null","null","","arctic","swim","857.5","","B","null","77","77","1","arctic-dual-task","","B","uppercase","74000","0","4","8b6ec438e8d425378da7fd4f5fbbabcdf873cd9448c11c6fbfffdf0916ca2fb5","73998.69999999553","857.5","77","1","arctic","","","","",""
"dual-task","null","null","null","","arctic","swim","1192.3999999985099","","t","null","88","88","1","arctic-dual-task","","t","lowercase","80000","0","4","8b6ec438e8d425378da7fd4f5fbbabcdf873cd9448c11c6fbfffdf0916ca2fb5","80000.29999999702","1192.3999999985099","88","1","arctic","","","","",""
"dual-task","null","null","null","","arctic","swim","1055.4000000059605","","a","null","88","88","1","arctic-dual-task","","a","lowercase","94000","0","4","8b6ec438e8d425378da7fd4f5fbbabcdf873cd9448c11c6fbfffdf0916ca2fb5","93999.5","1055.4000000059605","88","1","arctic","","","","",""
"dual-task","null","null","null","","arctic","swim","809.1999999955297","","G","null","77","77","1","arctic-dual-task","","G","uppercase","106000","0","4","8b6ec438e8d425378da7fd4f5fbbabcdf873cd9448c11c6fbfffdf0916ca2fb5","106014.89999999851","809.1999999955297","77","1","arctic","","","","",""
"dual-task","null","null","null","","arctic","swim","885.4000000059605","","R","null","77","77","1","arctic-dual-task","","R","uppercase","118000","0","4","8b6ec438e8d425378da7fd4f5fbbabcdf873cd9448c11c6fbfffdf0916ca2fb5","118004.89999999851","885.4000000059605","77","1","arctic","","","","",""
"dual-task","null","null","null","","arctic","swim","659.7999999970198","","R","null","77","77","1","arctic-dual-task","","R","uppercase","130000","0","4","8b6ec438e8d425378da7fd4f5fbbabcdf873cd9448c11c6fbfffdf0916ca2fb5","130006.29999999702","659.7999999970198","77","1","arctic","","","","",""
"dual-task","null","null","null","","arctic","swim","818.0999999940395","","N","null","77","77","1","arctic-dual-task","","N","uppercase","142000","0","4","8b6ec438e8d425378da7fd4f5fbbabcdf873cd9448c11c6fbfffdf0916ca2fb5","142004.8999999985","818.0999999940395","77","1","arctic","","","","",""
"dual-task","null","null","null","","arctic","swim","809.6000000014901","","F","null","77","77","1","arctic-dual-task","","F","uppercase","156000","0","4","8b6ec438e8d425378da7fd4f5fbbabcdf873cd9448c11c6fbfffdf0916ca2fb5","155999.5","809.6000000014901","77","1","arctic","","","","",""
"dual-task","null","null","null","","arctic","swim","730","","B","null","77","77","1","arctic-dual-task","","B","uppercase","162000","0","4","8b6ec438e8d425378da7fd4f5fbbabcdf873cd9448c11c6fbfffdf0916ca2fb5","162004.3999999985","730","77","1","arctic","","","","",""
"dual-task","null","null","null","","arctic","swim","1023.7999999970198","","a","null","88","88","1","arctic-dual-task","","a","lowercase","176000","0","4","8b6ec438e8d425378da7fd4f5fbbabcdf873cd9448c11c6fbfffdf0916ca2fb5","176012.69999999553","1023.7999999970198","88","1","arctic","","","","",""
"dual-task","null","null","null","","arctic","swim","712.7999999970198","","f","null","88","88","1","arctic-dual-task","","f","lowercase","184000","0","4","8b6ec438e8d425378da7fd4f5fbbabcdf873cd9448c11c6fbfffdf0916ca2fb5","184004.29999999702","712.7999999970198","88","1","arctic","","","","",""
"dual-task","null","null","null","","arctic","swim","710.8999999985099","","b","null","88","88","1","arctic-dual-task","","b","lowercase","192000","0","4","8b6ec438e8d425378da7fd4f5fbbabcdf873cd9448c11c6fbfffdf0916ca2fb5","192014.3999999985","710.8999999985099","88","1","arctic","","","","",""
"dual-task","null","null","null","","arctic","swim","624","","n","null","88","88","1","arctic-dual-task","","n","lowercase","206000","0","4","8b6ec438e8d425378da7fd4f5fbbabcdf873cd9448c11c6fbfffdf0916ca2fb5","205999.29999999702","624","88","1","arctic","","","","",""
"dual-task","null","null","null","","arctic","swim","782.1999999955297","","N","null","77","77","1","arctic-dual-task","","N","uppercase","216000","0","4","8b6ec438e8d425378da7fd4f5fbbabcdf873cd9448c11c6fbfffdf0916ca2fb5","216013.79999999702","782.1999999955297","77","1","arctic","","","","",""
"dual-task","null","null","null","","arctic","swim","738.6999999955297","","H","null","77","77","1","arctic-dual-task","","H","uppercase","226000","0","4","8b6ec438e8d425378da7fd4f5fbbabcdf873cd9448c11c6fbfffdf0916ca2fb5","226003.8999999985","738.6999999955297","77","1","arctic","","","","",""
"dual-task","null","null","null","","arctic","swim","758.0999999940395","","e","null","88","88","1","arctic-dual-task","","e","lowercase","238000","0","4","8b6ec438e8d425378da7fd4f5fbbabcdf873cd9448c11c6fbfffdf0916ca2fb5","238004.3999999985","758.0999999940395","88","1","arctic","","","","",""
"dual-task","null","null","null","","arctic","swim","708.1000000014901","","q","null","88","88","1","arctic-dual-task","","q","lowercase","252000","0","4","8b6ec438e8d425378da7fd4f5fbbabcdf873cd9448c11c6fbfffdf0916ca2fb5","252004.09999999404","708.1000000014901","88","1","arctic","","","","",""
"dual-task","null","null","null","","arctic","swim","846.2999999970198","","B","null","77","77","1","arctic-dual-task","","B","uppercase","262000","0","4","8b6ec438e8d425378da7fd4f5fbbabcdf873cd9448c11c6fbfffdf0916ca2fb5","261999.69999999553","846.2999999970198","77","1","arctic","","","","",""
"dual-task","null","null","null","","arctic","swim","808.3999999985099","","f","null","88","88","1","arctic-dual-task","","f","lowercase","272000","0","4","8b6ec438e8d425378da7fd4f5fbbabcdf873cd9448c11c6fbfffdf0916ca2fb5","272003.799999997","808.3999999985099","88","1","arctic","","","","",""
"dual-task","null","null","null","","arctic","swim","737.3999999985099","","T","null","77","77","1","arctic-dual-task","","T","uppercase","280000","0","4","8b6ec438e8d425378da7fd4f5fbbabcdf873cd9448c11c6fbfffdf0916ca2fb5","280003.69999999553","737.3999999985099","77","1","arctic","","","","",""
"dual-task","null","null","null","","arctic","swim","699.5999999940395","","T","null","88","77","0","arctic-dual-task","","T","uppercase","288000","0","4","8b6ec438e8d425378da7fd4f5fbbabcdf873cd9448c11c6fbfffdf0916ca2fb5","288013.5","699.5999999940395","88","0","arctic","","","","",""
"dual-task","null","null","null","","arctic","swim","764.6999999955297","","t","null","88","88","1","arctic-dual-task","","t","lowercase","294000","0","4","8b6ec438e8d425378da7fd4f5fbbabcdf873cd9448c11c6fbfffdf0916ca2fb5","294014.09999999404","764.6999999955297","88","1","arctic","","","","",""
"dual-task","null","null","null","","arctic","swim","1055.3999999985099","","F","null","77","77","1","arctic-dual-task","","F","uppercase","302000","0","4","8b6ec438e8d425378da7fd4f5fbbabcdf873cd9448c11c6fbfffdf0916ca2fb5","302013.19999999553","1055.3999999985099","77","1","arctic","","","","",""
"dual-task","null","null","null","","arctic","swim","893.1000000014901","","r","null","88","88","1","arctic-dual-task","","r","lowercase","308000","0","4","8b6ec438e8d425378da7fd4f5fbbabcdf873cd9448c11c6fbfffdf0916ca2fb5","308003","893.1000000014901","88","1","arctic","","","","",""
"dual-task","null","null","null","","arctic","swim","839.7000000029802","","F","null","77","77","1","arctic-dual-task","","F","uppercase","318000","0","4","8b6ec438e8d425378da7fd4f5fbbabcdf873cd9448c11c6fbfffdf0916ca2fb5","318003.09999999404","839.7000000029802","77","1","arctic","","","","",""
"dual-task","null","null","null","","arctic","swim","874.3999999985099","","e","null","88","88","1","arctic-dual-task","","e","lowercase","324000","0","4","8b6ec438e8d425378da7fd4f5fbbabcdf873cd9448c11c6fbfffdf0916ca2fb5","324013","874.3999999985099","88","1","arctic","","","","",""
"dual-task","null","null","null","","arctic","swim","1034.8000000044703","","t","null","88","88","1","arctic-dual-task","","t","lowercase","330000","0","4","8b6ec438e8d425378da7fd4f5fbbabcdf873cd9448c11c6fbfffdf0916ca2fb5","330013.59999999404","1034.8000000044703","88","1","arctic","","","","",""
"dual-task","null","null","null","","arctic","swim","775.9000000059605","","d","null","88","88","1","arctic-dual-task","","d","lowercase","338000","0","4","8b6ec438e8d425378da7fd4f5fbbabcdf873cd9448c11c6fbfffdf0916ca2fb5","338003","775.9000000059605","88","1","arctic","","","","",""
"dual-task","null","null","null","","arctic","swim","782.7999999970198","","D","null","77","77","1","arctic-dual-task","","D","uppercase","348000","0","4","8b6ec438e8d425378da7fd4f5fbbabcdf873cd9448c11c6fbfffdf0916ca2fb5","348012.8999999985","782.7999999970198","77","1","arctic","","","","",""
"dual-task","null","null","null","","arctic","swim","1270.2000000029802","","q","null","88","88","1","arctic-dual-task","","q","lowercase","362000","0","4","8b6ec438e8d425378da7fd4f5fbbabcdf873cd9448c11c6fbfffdf0916ca2fb5","362012.69999999553","1270.2000000029802","88","1","arctic","","","","",""
"dual-task","null","null","null","","arctic","swim","910.2000000029802","","g","null","88","88","1","arctic-dual-task","","g","lowercase","374000","0","4","8b6ec438e8d425378da7fd4f5fbbabcdf873cd9448c11c6fbfffdf0916ca2fb5","374012.8999999985","910.2000000029802","88","1","arctic","","","","",""
"dual-task","null","null","null","","arctic","swim","729.3000000044703","","g","null","88","88","1","arctic-dual-task","","g","lowercase","384000","0","4","8b6ec438e8d425378da7fd4f5fbbabcdf873cd9448c11c6fbfffdf0916ca2fb5","384002.59999999404","729.3000000044703","88","1","arctic","","","","",""
"dual-task","null","null","null","","arctic","swim","951.5","","b","null","88","88","1","arctic-dual-task","","b","lowercase","390000","0","4","8b6ec438e8d425378da7fd4f5fbbabcdf873cd9448c11c6fbfffdf0916ca2fb5","390012.799999997","951.5","88","1","arctic","","","","",""
"dual-task","null","null","null","","arctic","swim","990.6000000014901","","r","null","88","88","1","arctic-dual-task","","r","lowercase","402000","0","4","8b6ec438e8d425378da7fd4f5fbbabcdf873cd9448c11c6fbfffdf0916ca2fb5","402012.5","990.6000000014901","88","1","arctic","","","","",""
"dual-task","null","null","null","","arctic","swim","895.1000000014901","","Q","null","77","77","1","arctic-dual-task","","Q","uppercase","410000","0","4","8b6ec438e8d425378da7fd4f5fbbabcdf873cd9448c11c6fbfffdf0916ca2fb5","410002.8999999985","895.1000000014901","77","1","arctic","","","","",""
"dual-task","null","null","null","","arctic","swim","675.2999999970198","","B","null","77","77","1","arctic-dual-task","","B","uppercase","416000","0","4","8b6ec438e8d425378da7fd4f5fbbabcdf873cd9448c11c6fbfffdf0916ca2fb5","416012.299999997","675.2999999970198","77","1","arctic","","","","",""
"dual-task","null","null","null","","arctic","swim","624.8999999985099","","E","null","77","77","1","arctic-dual-task","","E","uppercase","426000","0","4","8b6ec438e8d425378da7fd4f5fbbabcdf873cd9448c11c6fbfffdf0916ca2fb5","425999.69999999553","624.8999999985099","77","1","arctic","","","","",""
"dual-task","null","null","null","","arctic","swim","774.8000000044703","","g","null","88","88","1","arctic-dual-task","","g","lowercase","434000","0","4","8b6ec438e8d425378da7fd4f5fbbabcdf873cd9448c11c6fbfffdf0916ca2fb5","434013","774.8000000044703","88","1","arctic","","","","",""
"dual-task","null","null","null","","arctic","swim","1003.3999999985099","","Q","null","77","77","1","arctic-dual-task","","Q","uppercase","444000","0","4","8b6ec438e8d425378da7fd4f5fbbabcdf873cd9448c11c6fbfffdf0916ca2fb5","444000.09999999404","1003.3999999985099","77","1","arctic","","","","",""
"dual-task","null","null","null","","arctic","swim","597.5","","g","null","88","88","1","arctic-dual-task","","g","lowercase","458000","0","4","8b6ec438e8d425378da7fd4f5fbbabcdf873cd9448c11c6fbfffdf0916ca2fb5","458000.5","597.5","88","1","arctic","","","","",""
"dual-task","null","null","null","","arctic","swim","1459.3999999985099","","N","null","77","77","1","arctic-dual-task","","N","uppercase","466000","0","4","8b6ec438e8d425378da7fd4f5fbbabcdf873cd9448c11c6fbfffdf0916ca2fb5","466002.09999999404","1459.3999999985099","77","1","arctic","","","","",""
"dual-task","null","null","null","","arctic","swim","868.3999999985099","","e","null","88","88","1","arctic-dual-task","","e","lowercase","478000","0","4","8b6ec438e8d425378da7fd4f5fbbabcdf873cd9448c11c6fbfffdf0916ca2fb5","478002.3999999985","868.3999999985099","88","1","arctic","","","","",""
"dual-task","null","null","null","","arctic","swim","910.0999999940395","","T","null","77","77","1","arctic-dual-task","","T","uppercase","492000","0","4","8b6ec438e8d425378da7fd4f5fbbabcdf873cd9448c11c6fbfffdf0916ca2fb5","492002.69999999553","910.0999999940395","77","1","arctic","","","","",""
"dual-task","null","null","null","","arctic","swim","952","","D","null","77","77","1","arctic-dual-task","","D","uppercase","506000","0","4","8b6ec438e8d425378da7fd4f5fbbabcdf873cd9448c11c6fbfffdf0916ca2fb5","506001.69999999553","952","77","1","arctic","","","","",""
"dual-task","null","null","null","","arctic","swim","868.2000000029802","","f","null","88","88","1","arctic-dual-task","","f","lowercase","520000","0","4","8b6ec438e8d425378da7fd4f5fbbabcdf873cd9448c11c6fbfffdf0916ca2fb5","520000.5","868.2000000029802","88","1","arctic","","","","",""
"dual-task","null","null","null","","arctic","swim","878.2000000029802","","A","null","77","77","1","arctic-dual-task","","A","uppercase","532000","0","4","8b6ec438e8d425378da7fd4f5fbbabcdf873cd9448c11c6fbfffdf0916ca2fb5","532001.5","878.2000000029802","77","1","arctic","","","","",""
"dual-task","null","null","null","","arctic","swim","1194.1000000014901","","E","null","77","77","1","arctic-dual-task","","E","uppercase","544000","0","4","8b6ec438e8d425378da7fd4f5fbbabcdf873cd9448c11c6fbfffdf0916ca2fb5","544011.799999997","1194.1000000014901","77","1","arctic","","","","",""
"dual-task","null","null","null","","arctic","swim","912.2000000029802","","R","null","77","77","1","arctic-dual-task","","R","uppercase","550000","0","4","8b6ec438e8d425378da7fd4f5fbbabcdf873cd9448c11c6fbfffdf0916ca2fb5","550011.599999994","912.2000000029802","77","1","arctic","","","","",""
"dual-task","null","null","null","","arctic","swim","830.7000000029802","","A","null","77","77","1","arctic-dual-task","","A","uppercase","558000","0","4","8b6ec438e8d425378da7fd4f5fbbabcdf873cd9448c11c6fbfffdf0916ca2fb5","558001.799999997","830.7000000029802","77","1","arctic","","","","",""
"dual-task","null","null","null","","arctic","swim","770.5999999940395","","G","null","77","77","1","arctic-dual-task","","G","uppercase","566000","0","4","8b6ec438e8d425378da7fd4f5fbbabcdf873cd9448c11c6fbfffdf0916ca2fb5","566020.8999999985","770.5999999940395","77","1","arctic","","","","",""
"dual-task","null","null","null","","arctic","swim","761.5","","d","null","88","88","1","arctic-dual-task","","d","lowercase","580000","0","4","8b6ec438e8d425378da7fd4f5fbbabcdf873cd9448c11c6fbfffdf0916ca2fb5","580001.3999999985","761.5","88","1","arctic","","","","",""
"dual-task","null","null","null","","arctic","swim","1201.5","","d","null","88","88","1","arctic-dual-task","","d","lowercase","588000","0","4","8b6ec438e8d425378da7fd4f5fbbabcdf873cd9448c11c6fbfffdf0916ca2fb5","588011.099999994","1201.5","88","1","arctic","","","","",""
"dual-task","null","null","null","","arctic","swim","766.7000000029802","","n","null","88","88","1","arctic-dual-task","","n","lowercase","598000","0","4","8b6ec438e8d425378da7fd4f5fbbabcdf873cd9448c11c6fbfffdf0916ca2fb5","598022.099999994","766.7000000029802","88","1","arctic","","","","",""
"dual-task","null","null","null","","arctic","swim","999.5","","T","null","77","77","1","arctic-dual-task","","T","uppercase","606000","0","4","8b6ec438e8d425378da7fd4f5fbbabcdf873cd9448c11c6fbfffdf0916ca2fb5","606001.3999999985","999.5","77","1","arctic","","","","",""
"dual-task","null","null","null","","arctic","swim","1026.6000000014901","","q","null","88","88","1","arctic-dual-task","","q","lowercase","616000","0","4","8b6ec438e8d425378da7fd4f5fbbabcdf873cd9448c11c6fbfffdf0916ca2fb5","616001.5","1026.6000000014901","88","1","arctic","","","","",""
"dual-task","null","null","null","","arctic","swim","756.7999999970198","","E","null","77","77","1","arctic-dual-task","","E","uppercase","630000","0","4","8b6ec438e8d425378da7fd4f5fbbabcdf873cd9448c11c6fbfffdf0916ca2fb5","630010.599999994","756.7999999970198","77","1","arctic","","","","",""
"dual-task","null","null","null","","arctic","swim","1414.1000000014901","","H","null","77","77","1","arctic-dual-task","","H","uppercase","640000","0","4","8b6ec438e8d425378da7fd4f5fbbabcdf873cd9448c11c6fbfffdf0916ca2fb5","640001.3999999985","1414.1000000014901","77","1","arctic","","","","",""
"dual-task","null","null","null","","arctic","swim","785.7999999970198","","r","null","88","88","1","arctic-dual-task","","r","lowercase","652000","0","4","8b6ec438e8d425378da7fd4f5fbbabcdf873cd9448c11c6fbfffdf0916ca2fb5","652000.1999999955","785.7999999970198","88","1","arctic","","","","",""
"dual-task","null","null","null","","arctic","swim","847.7999999970198","","h","null","88","88","1","arctic-dual-task","","h","lowercase","666000","0","4","8b6ec438e8d425378da7fd4f5fbbabcdf873cd9448c11c6fbfffdf0916ca2fb5","666010.299999997","847.7999999970198","88","1","arctic","","","","",""
"dual-task","null","null","null","","arctic","swim","1034.7000000029802","","a","null","88","88","1","arctic-dual-task","","a","lowercase","676000","0","4","8b6ec438e8d425378da7fd4f5fbbabcdf873cd9448c11c6fbfffdf0916ca2fb5","676020.599999994","1034.7000000029802","88","1","arctic","","","","",""
"dual-task","null","null","null","","arctic","swim","938.7000000029802","","Q","null","77","77","1","arctic-dual-task","","Q","uppercase","684000","0","4","8b6ec438e8d425378da7fd4f5fbbabcdf873cd9448c11c6fbfffdf0916ca2fb5","684021.1999999955","938.7000000029802","77","1","arctic","","","","",""
"dual-task","null","null","null","","arctic","swim","951.3999999985099","","Q","null","77","77","1","arctic-dual-task","","Q","uppercase","694000","0","4","8b6ec438e8d425378da7fd4f5fbbabcdf873cd9448c11c6fbfffdf0916ca2fb5","694000.099999994","951.3999999985099","77","1","arctic","","","","",""
"dual-task","null","null","null","","arctic","swim","1218.3000000044703","","a","null","88","88","1","arctic-dual-task","","a","lowercase","706000","0","4","8b6ec438e8d425378da7fd4f5fbbabcdf873cd9448c11c6fbfffdf0916ca2fb5","706010.1999999955","1218.3000000044703","88","1","arctic","","","","",""
"dual-task","null","null","null","","arctic","swim","976.7999999970198","","h","null","88","88","1","arctic-dual-task","","h","lowercase","714000","0","4","8b6ec438e8d425378da7fd4f5fbbabcdf873cd9448c11c6fbfffdf0916ca2fb5","714009.799999997","976.7999999970198","88","1","arctic","","","","",""
"dual-task","null","null","null","","arctic","swim","NA","","b","null","NA","88","0","arctic-dual-task","","b","lowercase","728000","1","4","8b6ec438e8d425378da7fd4f5fbbabcdf873cd9448c11c6fbfffdf0916ca2fb5","728009.6999999955","NA","NA","0","arctic","","","","",""
"dual-task","null","null","null","","arctic","swim","973.4000000059605","","F","null","77","77","1","arctic-dual-task","","F","uppercase","742000","0","4","8b6ec438e8d425378da7fd4f5fbbabcdf873cd9448c11c6fbfffdf0916ca2fb5","742019.6999999955","973.4000000059605","77","1","arctic","","","","",""
"dual-task","null","null","null","","arctic","swim","1212.2999999970198","","e","null","88","88","1","arctic-dual-task","","e","lowercase","756000","0","4","8b6ec438e8d425378da7fd4f5fbbabcdf873cd9448c11c6fbfffdf0916ca2fb5","756009.6999999955","1212.2999999970198","88","1","arctic","","","","",""
"dual-task","null","null","null","","arctic","swim","1135.5999999940395","","h","null","88","88","1","arctic-dual-task","","h","lowercase","762000","0","4","8b6ec438e8d425378da7fd4f5fbbabcdf873cd9448c11c6fbfffdf0916ca2fb5","762009.6999999955","1135.5999999940395","88","1","arctic","","","","",""
"dual-task","null","null","null","","arctic","swim","859.5","","H","null","77","77","1","arctic-dual-task","","H","uppercase","770000","0","4","8b6ec438e8d425378da7fd4f5fbbabcdf873cd9448c11c6fbfffdf0916ca2fb5","770019.6999999955","859.5","77","1","arctic","","","","",""
"dual-task","null","null","null","","arctic","swim","803.2999999970198","","q","null","88","88","1","arctic-dual-task","","q","lowercase","776000","0","4","8b6ec438e8d425378da7fd4f5fbbabcdf873cd9448c11c6fbfffdf0916ca2fb5","776009.799999997","803.2999999970198","88","1","arctic","","","","",""
"dual-task","null","null","null","","arctic","swim","831","","D","null","77","77","1","arctic-dual-task","","D","uppercase","784000","0","4","8b6ec438e8d425378da7fd4f5fbbabcdf873cd9448c11c6fbfffdf0916ca2fb5","784009.8999999985","831","77","1","arctic","","","","",""
"audio-keyboard-response","29","1016768","0.0-6.0-0.0-1.0","8b6ec438e8d425378da7fd4f5fbbabcdf873cd9448c11c6fbfffdf0916ca2fb5","arctic","swim","null","","audio/story_arctic.mp3","","null","","","","","","","","","","","","","","","","","","","",""
"html-button-response","30","1022056","0.0-6.0-0.0-2.0","8b6ec438e8d425378da7fd4f5fbbabcdf873cd9448c11c6fbfffdf0916ca2fb5","arctic","swim","5287","","<p>This concludes the story. Thank you for listening.</p><p>You will now answer some questions about the content of the story.</p>","0","","","","","","","","","","","","","","","","","","","","",""
"survey-multi-choice","31","1033777","0.0-6.0-0.0-3.0-0.0","8b6ec438e8d425378da7fd4f5fbbabcdf873cd9448c11c6fbfffdf0916ca2fb5","arctic","swim","11716","","<b>How did the narrator&#39;s neighbour respond when she told him about her expedition?</b>","","","","1","arctic-comprehension","","","","","","","","","","","","","{""Q0"":""He said she was going to fail.""}","","","",""
"survey-multi-choice","32","1048320","0.0-6.0-0.0-3.0-0.1","8b6ec438e8d425378da7fd4f5fbbabcdf873cd9448c11c6fbfffdf0916ca2fb5","arctic","swim","14265","","<b>How did the dogs respond when they saw the bears?</b>","","","","1","arctic-comprehension","","","","","","","","","","","","","{""Q0"":""Approached them""}","","","",""
"survey-multi-choice","33","1059136","0.0-6.0-0.0-3.0-0.2","8b6ec438e8d425378da7fd4f5fbbabcdf873cd9448c11c6fbfffdf0916ca2fb5","arctic","swim","10558","","<b>Which dog on the narrator&#39;s dog team never followed instructions?</b>","","","","1","arctic-comprehension","","","","","","","","","","","","","{""Q0"":""Robert""}","","","",""
"survey-multi-choice","34","1069352","0.0-6.0-0.0-3.0-0.3","8b6ec438e8d425378da7fd4f5fbbabcdf873cd9448c11c6fbfffdf0916ca2fb5","arctic","swim","9956","","<b>What did the narrator do for leisure while in her tent?</b>","","","","1","arctic-comprehension","","","","","","","","","","","","","{""Q0"":""Read""}","","","",""
"survey-multi-choice","35","1531988","0.0-6.0-0.0-3.0-0.4","8b6ec438e8d425378da7fd4f5fbbabcdf873cd9448c11c6fbfffdf0916ca2fb5","arctic","swim","462377","","<b>What is the name of the narrator&#39;s neighbour?</b>","","","","1","arctic-comprehension","","","","","","","","","","","","","{""Q0"":""Dave""}","","","",""
"survey-multi-choice","36","1543444","0.0-6.0-0.0-3.0-0.5","8b6ec438e8d425378da7fd4f5fbbabcdf873cd9448c11c6fbfffdf0916ca2fb5","arctic","swim","11197","","<b>What was the objective of the narrator&#39;s expedition?</b>","","","","1","arctic-comprehension","","","","","","","","","","","","","{""Q0"":""Dogsled across Arctic America""}","","","",""
"survey-multi-choice","37","1548644","0.0-6.0-0.0-3.0-0.6","8b6ec438e8d425378da7fd4f5fbbabcdf873cd9448c11c6fbfffdf0916ca2fb5","arctic","swim","4940","","<b>How many sponsorships did the narrator receive to support her expedition?</b>","","","","1","arctic-comprehension","","","","","","","","","","","","","{""Q0"":""None""}","","","",""
"survey-multi-choice","38","1563764","0.0-6.0-0.0-3.0-0.7","8b6ec438e8d425378da7fd4f5fbbabcdf873cd9448c11c6fbfffdf0916ca2fb5","arctic","swim","14867","","<b>What were the weather conditions in the Arctic like the winter of the narrator&#39;s expedition?</b>","","","","1","arctic-comprehension","","","","","","","","","","","","","{""Q0"":""There were more storms than any other winter in recorded history.""}","","","",""
"survey-multi-choice","39","1581828","0.0-6.0-0.0-3.0-0.8","8b6ec438e8d425378da7fd4f5fbbabcdf873cd9448c11c6fbfffdf0916ca2fb5","arctic","swim","17809","","<b>How did the narrator prepare for her expedition?</b>","","","","1","arctic-comprehension","","","","","","","","","","","","","{""Q0"":""Trained in Alaska learning how to dogsled""}","","","",""
"survey-multi-choice","40","1593604","0.0-6.0-0.0-3.0-0.9","8b6ec438e8d425378da7fd4f5fbbabcdf873cd9448c11c6fbfffdf0916ca2fb5","arctic","swim","11519","","<b>How did the narrator&#39;s encounter with the polar bears end?</b>","","","","1","arctic-comprehension","","","","","","","","","","","","","{""Q0"":""The bears walked back to their den.""}","","","",""
"html-button-response","41","1597507","0.0-6.0-0.0-4.0","8b6ec438e8d425378da7fd4f5fbbabcdf873cd9448c11c6fbfffdf0916ca2fb5","arctic","swim","3651","","<p>Thank you for your responses.</p><p>You will now answer some questions about your impressions of the story.</p>","0","","","","","","","","","","","","","","","","","","","","",""
"html-button-response","42","1615340","0.0-6.0-0.0-5.0-0.0","8b6ec438e8d425378da7fd4f5fbbabcdf873cd9448c11c6fbfffdf0916ca2fb5","arctic","swim","17831","","E6","5","","","","arctic-engagement","","","","","","","","","","","","","","6","enjoyment","",""
"html-button-response","43","1618764","0.0-6.0-0.0-5.0-0.1","8b6ec438e8d425378da7fd4f5fbbabcdf873cd9448c11c6fbfffdf0916ca2fb5","arctic","swim","3171","","EE5","5","","","","arctic-engagement","","","","","","","","","","","","","","6","emo-engage","",""
"html-button-response","44","1626579","0.0-6.0-0.0-5.0-0.2","8b6ec438e8d425378da7fd4f5fbbabcdf873cd9448c11c6fbfffdf0916ca2fb5","arctic","swim","7564","","MS1","5","","","","arctic-engagement","","","","","","","","","","","","","","6","mental-sim","",""
"html-button-response","45","1628492","0.0-6.0-0.0-5.0-0.3","8b6ec438e8d425378da7fd4f5fbbabcdf873cd9448c11c6fbfffdf0916ca2fb5","arctic","swim","1659","","E1","6","","","","arctic-engagement","","","","","","","","","","","","","","7","enjoyment","",""
"html-button-response","46","1640516","0.0-6.0-0.0-5.0-0.4","8b6ec438e8d425378da7fd4f5fbbabcdf873cd9448c11c6fbfffdf0916ca2fb5","arctic","swim","11772","","A4","4","","","","arctic-engagement","","","","","","","","","","","","","","5","absorption","",""
"html-button-response","47","1642699","0.0-6.0-0.0-5.0-0.5","8b6ec438e8d425378da7fd4f5fbbabcdf873cd9448c11c6fbfffdf0916ca2fb5","arctic","swim","1931","","A3","6","","","","arctic-engagement","","","","","","","","","","","","","","7","absorption","",""
"html-button-response","48","1648387","0.0-6.0-0.0-5.0-0.6","8b6ec438e8d425378da7fd4f5fbbabcdf873cd9448c11c6fbfffdf0916ca2fb5","arctic","swim","5436","","A1","5","","","","arctic-engagement","","","","","","","","","","","","","","6","absorption","",""
"html-button-response","49","1657683","0.0-6.0-0.0-5.0-0.7","8b6ec438e8d425378da7fd4f5fbbabcdf873cd9448c11c6fbfffdf0916ca2fb5","arctic","swim","9042","","A5","4","","","","arctic-engagement","","","","","","","","","","","","","","5","absorption","",""
"html-button-response","50","1663419","0.0-6.0-0.0-5.0-0.8","8b6ec438e8d425378da7fd4f5fbbabcdf873cd9448c11c6fbfffdf0916ca2fb5","arctic","swim","5482","","MS3","6","","","","arctic-engagement","","","","","","","","","","","","","","7","mental-sim","",""
"html-button-response","51","1665371","0.0-6.0-0.0-5.0-0.9","8b6ec438e8d425378da7fd4f5fbbabcdf873cd9448c11c6fbfffdf0916ca2fb5","arctic","swim","1699","","EE2","5","","","","arctic-engagement","","","","","","","","","","","","","","6","emo-engage","",""
"html-button-response","52","1672859","0.0-6.0-0.0-5.0-0.10","8b6ec438e8d425378da7fd4f5fbbabcdf873cd9448c11c6fbfffdf0916ca2fb5","arctic","swim","7235","","A2","5","","","","arctic-engagement","","","","","","","","","","","","","","6","absorption","",""
"html-button-response","53","1680011","0.0-6.0-0.0-5.0-0.11","8b6ec438e8d425378da7fd4f5fbbabcdf873cd9448c11c6fbfffdf0916ca2fb5","arctic","swim","6899","","MS2","4","","","","arctic-engagement","","","","","","","","","","","","","","5","mental-sim","",""
"html-button-response","54","1682339","0.0-6.0-0.0-5.0-0.12","8b6ec438e8d425378da7fd4f5fbbabcdf873cd9448c11c6fbfffdf0916ca2fb5","arctic","swim","2074","","EE3","5","","","","arctic-engagement","","","","","","","","","","","","","","6","emo-engage","",""
"html-button-response","55","1685907","0.0-6.0-0.0-5.0-0.13","8b6ec438e8d425378da7fd4f5fbbabcdf873cd9448c11c6fbfffdf0916ca2fb5","arctic","swim","3316","","E8","6","","","","arctic-engagement","","","","","","","","","","","","","","7","enjoyment","",""
"html-button-response","56","1691027","0.0-6.0-0.0-5.0-0.14","8b6ec438e8d425378da7fd4f5fbbabcdf873cd9448c11c6fbfffdf0916ca2fb5","arctic","swim","4867","","EE4","5","","","","arctic-engagement","","","","","","","","","","","","","","6","emo-engage","",""
"html-button-response","57","1694019","0.0-6.0-0.0-5.0-0.15","8b6ec438e8d425378da7fd4f5fbbabcdf873cd9448c11c6fbfffdf0916ca2fb5","arctic","swim","2739","","E7","5","","","","arctic-engagement","","","","","","","","","","","","","","6","enjoyment","",""
"html-button-response","58","1700675","0.0-6.0-0.0-5.0-0.16","8b6ec438e8d425378da7fd4f5fbbabcdf873cd9448c11c6fbfffdf0916ca2fb5","arctic","swim","6404","","EE1","5","","","","arctic-engagement","","","","","","","","","","","","","","6","emo-engage","",""
"html-button-response","59","1703203","0.0-6.0-0.0-5.0-0.17","8b6ec438e8d425378da7fd4f5fbbabcdf873cd9448c11c6fbfffdf0916ca2fb5","arctic","swim","2276","","E10","6","","","","arctic-engagement","","","","","","","","","","","","","","7","enjoyment","",""
"html-keyboard-response","60","1756560","0.0-6.0-1.0","8b6ec438e8d425378da7fd4f5fbbabcdf873cd9448c11c6fbfffdf0916ca2fb5","arctic","swim","53105","","<p>Thank you for your responses. You will now listen to the second story.</p><p>Remember, as you listen to the story you will see letters appear on the screen.</br>As quickly as possible, press <b>&lt;x&gt;</b> if the letter is lowercase and <b>&lt;m&gt;</b> if the letter is uppercase.</p><p>Press <b>&lt;x&gt;</b> or <b>&lt;m&gt;</b> to begin listening!</p>","","77","","","","","","","","","","","","","","","","","","","",""
"html-keyboard-response","61","1757063","0.0-6.0-2.0-0.0","8b6ec438e8d425378da7fd4f5fbbabcdf873cd9448c11c6fbfffdf0916ca2fb5","arctic","swim","null","","<div style=""font-size:60px;"" tabindex=""0"">+</div>","","null","","","","","","","","","","","","","","","","","","","",""
"dual-task","null","null","null","","arctic","swim","987.0999999940395","","H","null","77","77","1","swim-dual-task","","H","uppercase","16000","0","4","8b6ec438e8d425378da7fd4f5fbbabcdf873cd9448c11c6fbfffdf0916ca2fb5","16012.60000000149","987.0999999940395","77","1","swim","","","","",""
"dual-task","null","null","null","","arctic","swim","849.5","","F","null","77","77","1","swim-dual-task","","F","uppercase","22000","0","4","8b6ec438e8d425378da7fd4f5fbbabcdf873cd9448c11c6fbfffdf0916ca2fb5","22001.80000000447","849.5","77","1","swim","","","","",""
"dual-task","null","null","null","","arctic","swim","653.7000000029802","","N","null","77","77","1","swim-dual-task","","N","uppercase","36000","0","4","8b6ec438e8d425378da7fd4f5fbbabcdf873cd9448c11c6fbfffdf0916ca2fb5","36011.30000000447","653.7000000029802","77","1","swim","","","","",""
"dual-task","null","null","null","","arctic","swim","900.7999999970198","","d","null","88","88","1","swim-dual-task","","d","lowercase","46000","0","4","8b6ec438e8d425378da7fd4f5fbbabcdf873cd9448c11c6fbfffdf0916ca2fb5","46002","900.7999999970198","88","1","swim","","","","",""
"dual-task","null","null","null","","arctic","swim","701.2000000029802","","A","null","77","77","1","swim-dual-task","","A","uppercase","52000","0","4","8b6ec438e8d425378da7fd4f5fbbabcdf873cd9448c11c6fbfffdf0916ca2fb5","52012.10000000149","701.2000000029802","77","1","swim","","","","",""
"dual-task","null","null","null","","arctic","swim","753.1000000014901","","f","null","88","88","1","swim-dual-task","","f","lowercase","60000","0","4","8b6ec438e8d425378da7fd4f5fbbabcdf873cd9448c11c6fbfffdf0916ca2fb5","60001.40000000596","753.1000000014901","88","1","swim","","","","",""
"dual-task","null","null","null","","arctic","swim","712.2999999970198","","B","null","77","77","1","swim-dual-task","","B","uppercase","70000","0","4","8b6ec438e8d425378da7fd4f5fbbabcdf873cd9448c11c6fbfffdf0916ca2fb5","70012.10000000149","712.2999999970198","77","1","swim","","","","",""
"dual-task","null","null","null","","arctic","swim","666.6000000014901","","f","null","88","88","1","swim-dual-task","","f","lowercase","84000","0","4","8b6ec438e8d425378da7fd4f5fbbabcdf873cd9448c11c6fbfffdf0916ca2fb5","84002","666.6000000014901","88","1","swim","","","","",""
"dual-task","null","null","null","","arctic","swim","714.2000000029802","","n","null","88","88","1","swim-dual-task","","n","lowercase","90000","0","4","8b6ec438e8d425378da7fd4f5fbbabcdf873cd9448c11c6fbfffdf0916ca2fb5","90011.70000000298","714.2000000029802","88","1","swim","","","","",""
"dual-task","null","null","null","","arctic","swim","886","","E","null","77","77","1","swim-dual-task","","E","uppercase","102000","0","4","8b6ec438e8d425378da7fd4f5fbbabcdf873cd9448c11c6fbfffdf0916ca2fb5","102011.60000000149","886","77","1","swim","","","","",""
"dual-task","null","null","null","","arctic","swim","812.2999999970198","","Q","null","77","77","1","swim-dual-task","","Q","uppercase","114000","0","4","8b6ec438e8d425378da7fd4f5fbbabcdf873cd9448c11c6fbfffdf0916ca2fb5","113999.20000000298","812.2999999970198","77","1","swim","","","","",""
"dual-task","null","null","null","","arctic","swim","1195.3000000044703","","D","null","77","77","1","swim-dual-task","","D","uppercase","122000","0","4","8b6ec438e8d425378da7fd4f5fbbabcdf873cd9448c11c6fbfffdf0916ca2fb5","122001.30000000447","1195.3000000044703","77","1","swim","","","","",""
"dual-task","null","null","null","","arctic","swim","934.6000000014901","","G","null","77","77","1","swim-dual-task","","G","uppercase","130000","0","4","8b6ec438e8d425378da7fd4f5fbbabcdf873cd9448c11c6fbfffdf0916ca2fb5","129999.90000000596","934.6000000014901","77","1","swim","","","","",""
"dual-task","null","null","null","","arctic","swim","947.5","","r","null","88","88","1","swim-dual-task","","r","lowercase","142000","0","4","8b6ec438e8d425378da7fd4f5fbbabcdf873cd9448c11c6fbfffdf0916ca2fb5","142007.40000000596","947.5","88","1","swim","","","","",""
"dual-task","null","null","null","","arctic","swim","916.2999999970198","","e","null","88","88","1","swim-dual-task","","e","lowercase","148000","0","4","8b6ec438e8d425378da7fd4f5fbbabcdf873cd9448c11c6fbfffdf0916ca2fb5","148000.80000000447","916.2999999970198","88","1","swim","","","","",""
"dual-task","null","null","null","","arctic","swim","1016.7000000029802","","R","null","77","77","1","swim-dual-task","","R","uppercase","158000","0","4","8b6ec438e8d425378da7fd4f5fbbabcdf873cd9448c11c6fbfffdf0916ca2fb5","158001","1016.7000000029802","77","1","swim","","","","",""
"dual-task","null","null","null","","arctic","swim","703.3000000044703","","a","null","88","88","1","swim-dual-task","","a","lowercase","166000","0","4","8b6ec438e8d425378da7fd4f5fbbabcdf873cd9448c11c6fbfffdf0916ca2fb5","165999.90000000596","703.3000000044703","88","1","swim","","","","",""
"dual-task","null","null","null","","arctic","swim","776.7999999970198","","n","null","88","88","1","swim-dual-task","","n","lowercase","180000","0","4","8b6ec438e8d425378da7fd4f5fbbabcdf873cd9448c11c6fbfffdf0916ca2fb5","180010.70000000298","776.7999999970198","88","1","swim","","","","",""
"dual-task","null","null","null","","arctic","swim","1669.1000000014901","","Q","null","77","77","1","swim-dual-task","","Q","uppercase","192000","0","4","8b6ec438e8d425378da7fd4f5fbbabcdf873cd9448c11c6fbfffdf0916ca2fb5","191999.70000000298","1669.1000000014901","77","1","swim","","","","",""
"dual-task","null","null","null","","arctic","swim","840.8000000044703","","t","null","88","88","1","swim-dual-task","","t","lowercase","200000","0","4","8b6ec438e8d425378da7fd4f5fbbabcdf873cd9448c11c6fbfffdf0916ca2fb5","200010.6000000015","840.8000000044703","88","1","swim","","","","",""
"dual-task","null","null","null","","arctic","swim","1053.2999999970198","","E","null","77","77","1","swim-dual-task","","E","uppercase","206000","0","4","8b6ec438e8d425378da7fd4f5fbbabcdf873cd9448c11c6fbfffdf0916ca2fb5","206000.40000000596","1053.2999999970198","77","1","swim","","","","",""
"dual-task","null","null","null","","arctic","swim","796.5","","T","null","77","77","1","swim-dual-task","","T","uppercase","216000","0","4","8b6ec438e8d425378da7fd4f5fbbabcdf873cd9448c11c6fbfffdf0916ca2fb5","216011","796.5","77","1","swim","","","","",""
"dual-task","null","null","null","","arctic","swim","789.5999999940395","","a","null","88","88","1","swim-dual-task","","a","lowercase","222000","0","4","8b6ec438e8d425378da7fd4f5fbbabcdf873cd9448c11c6fbfffdf0916ca2fb5","222000.90000000596","789.5999999940395","88","1","swim","","","","",""
"dual-task","null","null","null","","arctic","swim","754.5","","A","null","77","77","1","swim-dual-task","","A","uppercase","232000","0","4","8b6ec438e8d425378da7fd4f5fbbabcdf873cd9448c11c6fbfffdf0916ca2fb5","232000.30000000447","754.5","77","1","swim","","","","",""
"dual-task","null","null","null","","arctic","swim","878.7999999970198","","H","null","77","77","1","swim-dual-task","","H","uppercase","244000","0","4","8b6ec438e8d425378da7fd4f5fbbabcdf873cd9448c11c6fbfffdf0916ca2fb5","244010","878.7999999970198","77","1","swim","","","","",""
"dual-task","null","null","null","","arctic","swim","800.6000000014901","","e","null","88","88","1","swim-dual-task","","e","lowercase","250000","0","4","8b6ec438e8d425378da7fd4f5fbbabcdf873cd9448c11c6fbfffdf0916ca2fb5","250000.30000000447","800.6000000014901","88","1","swim","","","","",""
"dual-task","null","null","null","","arctic","swim","716.3000000044703","","Q","null","77","77","1","swim-dual-task","","Q","uppercase","262000","0","4","8b6ec438e8d425378da7fd4f5fbbabcdf873cd9448c11c6fbfffdf0916ca2fb5","262000.1000000015","716.3000000044703","77","1","swim","","","","",""
"dual-task","null","null","null","","arctic","swim","759.3999999985099","","q","null","88","88","1","swim-dual-task","","q","lowercase","272000","0","4","8b6ec438e8d425378da7fd4f5fbbabcdf873cd9448c11c6fbfffdf0916ca2fb5","272000.90000000596","759.3999999985099","88","1","swim","","","","",""
"dual-task","null","null","null","","arctic","swim","602.6000000014901","","t","null","88","88","1","swim-dual-task","","t","lowercase","278000","0","4","8b6ec438e8d425378da7fd4f5fbbabcdf873cd9448c11c6fbfffdf0916ca2fb5","278000.700000003","602.6000000014901","88","1","swim","","","","",""
"dual-task","null","null","null","","arctic","swim","729.6000000014901","","g","null","88","88","1","swim-dual-task","","g","lowercase","292000","0","4","8b6ec438e8d425378da7fd4f5fbbabcdf873cd9448c11c6fbfffdf0916ca2fb5","292009.5","729.6000000014901","88","1","swim","","","","",""
"dual-task","null","null","null","","arctic","swim","773","","R","null","77","77","1","swim-dual-task","","R","uppercase","304000","0","4","8b6ec438e8d425378da7fd4f5fbbabcdf873cd9448c11c6fbfffdf0916ca2fb5","304000","773","77","1","swim","","","","",""
"dual-task","null","null","null","","arctic","swim","932.2999999970198","","b","null","88","88","1","swim-dual-task","","b","lowercase","316000","0","4","8b6ec438e8d425378da7fd4f5fbbabcdf873cd9448c11c6fbfffdf0916ca2fb5","316015.1000000015","932.2999999970198","88","1","swim","","","","",""
"dual-task","null","null","null","","arctic","swim","882.7999999970198","","D","null","77","77","1","swim-dual-task","","D","uppercase","324000","0","4","8b6ec438e8d425378da7fd4f5fbbabcdf873cd9448c11c6fbfffdf0916ca2fb5","324009.200000003","882.7999999970198","77","1","swim","","","","",""
"dual-task","null","null","null","","arctic","swim","779.3999999985099","","N","null","77","77","1","swim-dual-task","","N","uppercase","336000","0","4","8b6ec438e8d425378da7fd4f5fbbabcdf873cd9448c11c6fbfffdf0916ca2fb5","336009.5","779.3999999985099","77","1","swim","","","","",""
"dual-task","null","null","null","","arctic","swim","714.5","","t","null","88","88","1","swim-dual-task","","t","lowercase","346000","0","4","8b6ec438e8d425378da7fd4f5fbbabcdf873cd9448c11c6fbfffdf0916ca2fb5","346019.40000000596","714.5","88","1","swim","","","","",""
"dual-task","null","null","null","","arctic","swim","862.3999999985099","","g","null","88","88","1","swim-dual-task","","g","lowercase","360000","0","4","8b6ec438e8d425378da7fd4f5fbbabcdf873cd9448c11c6fbfffdf0916ca2fb5","360009.30000000447","862.3999999985099","88","1","swim","","","","",""
"dual-task","null","null","null","","arctic","swim","915.1000000014901","","E","null","77","77","1","swim-dual-task","","E","uppercase","368000","0","4","8b6ec438e8d425378da7fd4f5fbbabcdf873cd9448c11c6fbfffdf0916ca2fb5","368009.200000003","915.1000000014901","77","1","swim","","","","",""
"dual-task","null","null","null","","arctic","swim","852","","q","null","88","88","1","swim-dual-task","","q","lowercase","378000","0","4","8b6ec438e8d425378da7fd4f5fbbabcdf873cd9448c11c6fbfffdf0916ca2fb5","378009.200000003","852","88","1","swim","","","","",""
"dual-task","null","null","null","","arctic","swim","806.6000000014901","","b","null","88","88","1","swim-dual-task","","b","lowercase","386000","0","4","8b6ec438e8d425378da7fd4f5fbbabcdf873cd9448c11c6fbfffdf0916ca2fb5","386009","806.6000000014901","88","1","swim","","","","",""
"dual-task","null","null","null","","arctic","swim","733.2000000029802","","f","null","88","88","1","swim-dual-task","","f","lowercase","398000","0","4","8b6ec438e8d425378da7fd4f5fbbabcdf873cd9448c11c6fbfffdf0916ca2fb5","398019.5","733.2000000029802","88","1","swim","","","","",""
"dual-task","null","null","null","","arctic","swim","1118.2000000029802","","F","null","77","77","1","swim-dual-task","","F","uppercase","408000","0","4","8b6ec438e8d425378da7fd4f5fbbabcdf873cd9448c11c6fbfffdf0916ca2fb5","408008.6000000015","1118.2000000029802","77","1","swim","","","","",""
"dual-task","null","null","null","","arctic","swim","1970.7000000029802","","r","null","88","88","1","swim-dual-task","","r","lowercase","418000","0","4","8b6ec438e8d425378da7fd4f5fbbabcdf873cd9448c11c6fbfffdf0916ca2fb5","418018.5","1970.7000000029802","88","1","swim","","","","",""
"dual-task","null","null","null","","arctic","swim","729.6000000014901","","r","null","88","88","1","swim-dual-task","","r","lowercase","426000","0","4","8b6ec438e8d425378da7fd4f5fbbabcdf873cd9448c11c6fbfffdf0916ca2fb5","426009","729.6000000014901","88","1","swim","","","","",""
"dual-task","null","null","null","","arctic","swim","667","","r","null","88","88","1","swim-dual-task","","r","lowercase","432000","0","4","8b6ec438e8d425378da7fd4f5fbbabcdf873cd9448c11c6fbfffdf0916ca2fb5","432018.80000000447","667","88","1","swim","","","","",""
"dual-task","null","null","null","","arctic","swim","834.4000000059605","","B","null","77","77","1","swim-dual-task","","B","uppercase","440000","0","4","8b6ec438e8d425378da7fd4f5fbbabcdf873cd9448c11c6fbfffdf0916ca2fb5","440019.40000000596","834.4000000059605","77","1","swim","","","","",""
"dual-task","null","null","null","","arctic","swim","705.7999999970198","","a","null","88","88","1","swim-dual-task","","a","lowercase","448000","0","4","8b6ec438e8d425378da7fd4f5fbbabcdf873cd9448c11c6fbfffdf0916ca2fb5","448019.30000000447","705.7999999970198","88","1","swim","","","","",""
"dual-task","null","null","null","","arctic","swim","912.1999999955297","","Q","null","77","77","1","swim-dual-task","","Q","uppercase","458000","0","4","8b6ec438e8d425378da7fd4f5fbbabcdf873cd9448c11c6fbfffdf0916ca2fb5","458018.1000000015","912.1999999955297","77","1","swim","","","","",""
"dual-task","null","null","null","","arctic","swim","1174.8999999985099","","h","null","88","88","1","swim-dual-task","","h","lowercase","472000","0","4","8b6ec438e8d425378da7fd4f5fbbabcdf873cd9448c11c6fbfffdf0916ca2fb5","472007.30000000447","1174.8999999985099","88","1","swim","","","","",""
"dual-task","null","null","null","","arctic","swim","860.7999999970198","","D","null","77","77","1","swim-dual-task","","D","uppercase","484000","0","4","8b6ec438e8d425378da7fd4f5fbbabcdf873cd9448c11c6fbfffdf0916ca2fb5","484018","860.7999999970198","77","1","swim","","","","",""
"dual-task","null","null","null","","arctic","swim","1111","","g","null","88","88","1","swim-dual-task","","g","lowercase","492000","0","4","8b6ec438e8d425378da7fd4f5fbbabcdf873cd9448c11c6fbfffdf0916ca2fb5","492008.200000003","1111","88","1","swim","","","","",""
"dual-task","null","null","null","","arctic","swim","735.8999999985099","","G","null","77","77","1","swim-dual-task","","G","uppercase","502000","0","4","8b6ec438e8d425378da7fd4f5fbbabcdf873cd9448c11c6fbfffdf0916ca2fb5","502018","735.8999999985099","77","1","swim","","","","",""
"dual-task","null","null","null","","arctic","swim","782.1000000014901","","R","null","77","77","1","swim-dual-task","","R","uppercase","514000","0","4","8b6ec438e8d425378da7fd4f5fbbabcdf873cd9448c11c6fbfffdf0916ca2fb5","514018.200000003","782.1000000014901","77","1","swim","","","","",""
"dual-task","null","null","null","","arctic","swim","998.5","","F","null","77","77","1","swim-dual-task","","F","uppercase","526000","0","4","8b6ec438e8d425378da7fd4f5fbbabcdf873cd9448c11c6fbfffdf0916ca2fb5","526008.6000000015","998.5","77","1","swim","","","","",""
"dual-task","null","null","null","","arctic","swim","791.8999999985099","","N","null","77","77","1","swim-dual-task","","N","uppercase","538000","0","4","8b6ec438e8d425378da7fd4f5fbbabcdf873cd9448c11c6fbfffdf0916ca2fb5","538008","791.8999999985099","77","1","swim","","","","",""
"dual-task","null","null","null","","arctic","swim","1046.2999999970198","","h","null","88","88","1","swim-dual-task","","h","lowercase","548000","0","4","8b6ec438e8d425378da7fd4f5fbbabcdf873cd9448c11c6fbfffdf0916ca2fb5","548017.5","1046.2999999970198","88","1","swim","","","","",""
"dual-task","null","null","null","","arctic","swim","878","","d","null","88","88","1","swim-dual-task","","d","lowercase","560000","0","4","8b6ec438e8d425378da7fd4f5fbbabcdf873cd9448c11c6fbfffdf0916ca2fb5","560007.6000000015","878","88","1","swim","","","","",""
"dual-task","null","null","null","","arctic","swim","1051.2999999970198","","D","null","77","77","1","swim-dual-task","","D","uppercase","570000","0","4","8b6ec438e8d425378da7fd4f5fbbabcdf873cd9448c11c6fbfffdf0916ca2fb5","570007.700000003","1051.2999999970198","77","1","swim","","","","",""
"dual-task","null","null","null","","arctic","swim","653.5","","h","null","88","88","1","swim-dual-task","","h","lowercase","576000","0","4","8b6ec438e8d425378da7fd4f5fbbabcdf873cd9448c11c6fbfffdf0916ca2fb5","576017.200000003","653.5","88","1","swim","","","","",""
"dual-task","null","null","null","","arctic","swim","808.8999999985099","","n","null","88","88","1","swim-dual-task","","n","lowercase","584000","0","4","8b6ec438e8d425378da7fd4f5fbbabcdf873cd9448c11c6fbfffdf0916ca2fb5","584007.900000006","808.8999999985099","88","1","swim","","","","",""
"dual-task","null","null","null","","arctic","swim","1752.5","","a","null","88","88","1","swim-dual-task","","a","lowercase","596000","0","4","8b6ec438e8d425378da7fd4f5fbbabcdf873cd9448c11c6fbfffdf0916ca2fb5","596007.200000003","1752.5","88","1","swim","","","","",""
"dual-task","null","null","null","","arctic","swim","758.3999999985099","","R","null","77","77","1","swim-dual-task","","R","uppercase","608000","0","4","8b6ec438e8d425378da7fd4f5fbbabcdf873cd9448c11c6fbfffdf0916ca2fb5","608007.1000000015","758.3999999985099","77","1","swim","","","","",""
"dual-task","null","null","null","","arctic","swim","962.1999999955297","","e","null","88","88","1","swim-dual-task","","e","lowercase","618000","0","4","8b6ec438e8d425378da7fd4f5fbbabcdf873cd9448c11c6fbfffdf0916ca2fb5","618007.3000000045","962.1999999955297","88","1","swim","","","","",""
"dual-task","null","null","null","","arctic","swim","731.3000000044703","","N","null","77","77","1","swim-dual-task","","N","uppercase","626000","0","4","8b6ec438e8d425378da7fd4f5fbbabcdf873cd9448c11c6fbfffdf0916ca2fb5","626007.200000003","731.3000000044703","77","1","swim","","","","",""
"dual-task","null","null","null","","arctic","swim","1549.7999999970198","","b","null","88","88","1","swim-dual-task","","b","lowercase","638000","0","4","8b6ec438e8d425378da7fd4f5fbbabcdf873cd9448c11c6fbfffdf0916ca2fb5","638007.700000003","1549.7999999970198","88","1","swim","","","","",""
"dual-task","null","null","null","","arctic","swim","925.6999999955297","","E","null","77","77","1","swim-dual-task","","E","uppercase","644000","0","4","8b6ec438e8d425378da7fd4f5fbbabcdf873cd9448c11c6fbfffdf0916ca2fb5","644006.700000003","925.6999999955297","77","1","swim","","","","",""
"dual-task","null","null","null","","arctic","swim","1408","","B","null","77","77","1","swim-dual-task","","B","uppercase","658000","0","4","8b6ec438e8d425378da7fd4f5fbbabcdf873cd9448c11c6fbfffdf0916ca2fb5","658002","1408","77","1","swim","","","","",""
"dual-task","null","null","null","","arctic","swim","710.9000000059605","","G","null","77","77","1","swim-dual-task","","G","uppercase","668000","0","4","8b6ec438e8d425378da7fd4f5fbbabcdf873cd9448c11c6fbfffdf0916ca2fb5","668006.3000000045","710.9000000059605","77","1","swim","","","","",""
"dual-task","null","null","null","","arctic","swim","928.5","","q","null","88","88","1","swim-dual-task","","q","lowercase","678000","0","4","8b6ec438e8d425378da7fd4f5fbbabcdf873cd9448c11c6fbfffdf0916ca2fb5","678006.700000003","928.5","88","1","swim","","","","",""
"dual-task","null","null","null","","arctic","swim","669.4000000059605","","n","null","88","88","1","swim-dual-task","","n","lowercase","686000","0","4","8b6ec438e8d425378da7fd4f5fbbabcdf873cd9448c11c6fbfffdf0916ca2fb5","686006.200000003","669.4000000059605","88","1","swim","","","","",""
"dual-task","null","null","null","","arctic","swim","856.8999999985099","","A","null","77","77","1","swim-dual-task","","A","uppercase","698000","0","4","8b6ec438e8d425378da7fd4f5fbbabcdf873cd9448c11c6fbfffdf0916ca2fb5","698016.6000000015","856.8999999985099","77","1","swim","","","","",""
"dual-task","null","null","null","","arctic","swim","923.7000000029802","","h","null","88","88","1","swim-dual-task","","h","lowercase","706000","0","4","8b6ec438e8d425378da7fd4f5fbbabcdf873cd9448c11c6fbfffdf0916ca2fb5","706016.3000000045","923.7000000029802","88","1","swim","","","","",""
"dual-task","null","null","null","","arctic","swim","883.4000000059605","","e","null","88","88","1","swim-dual-task","","e","lowercase","714000","0","4","8b6ec438e8d425378da7fd4f5fbbabcdf873cd9448c11c6fbfffdf0916ca2fb5","714016.5","883.4000000059605","88","1","swim","","","","",""
"dual-task","null","null","null","","arctic","swim","914.8999999985099","","t","null","88","88","1","swim-dual-task","","t","lowercase","728000","0","4","8b6ec438e8d425378da7fd4f5fbbabcdf873cd9448c11c6fbfffdf0916ca2fb5","728006.200000003","914.8999999985099","88","1","swim","","","","",""
"dual-task","null","null","null","","arctic","swim","837.5","","B","null","77","77","1","swim-dual-task","","B","uppercase","738000","0","4","8b6ec438e8d425378da7fd4f5fbbabcdf873cd9448c11c6fbfffdf0916ca2fb5","738005.900000006","837.5","77","1","swim","","","","",""
"dual-task","null","null","null","","arctic","swim","1006.5999999940395","","d","null","88","88","1","swim-dual-task","","d","lowercase","750000","0","4","8b6ec438e8d425378da7fd4f5fbbabcdf873cd9448c11c6fbfffdf0916ca2fb5","750005.700000003","1006.5999999940395","88","1","swim","","","","",""
"dual-task","null","null","null","","arctic","swim","1150.6000000014901","","F","null","77","77","1","swim-dual-task","","F","uppercase","758000","0","4","8b6ec438e8d425378da7fd4f5fbbabcdf873cd9448c11c6fbfffdf0916ca2fb5","758006.200000003","1150.6000000014901","77","1","swim","","","","",""
"dual-task","null","null","null","","arctic","swim","1206.3000000044703","","G","null","77","77","1","swim-dual-task","","G","uppercase","764000","0","4","8b6ec438e8d425378da7fd4f5fbbabcdf873cd9448c11c6fbfffdf0916ca2fb5","764005.8000000045","1206.3000000044703","77","1","swim","","","","",""
"dual-task","null","null","null","","arctic","swim","851","","H","null","77","77","1","swim-dual-task","","H","uppercase","774000","0","4","8b6ec438e8d425378da7fd4f5fbbabcdf873cd9448c11c6fbfffdf0916ca2fb5","774005.700000003","851","77","1","swim","","","","",""
"dual-task","null","null","null","","arctic","swim","689.5","","T","null","77","77","1","swim-dual-task","","T","uppercase","780000","0","4","8b6ec438e8d425378da7fd4f5fbbabcdf873cd9448c11c6fbfffdf0916ca2fb5","780006.200000003","689.5","77","1","swim","","","","",""
"dual-task","null","null","null","","arctic","swim","832.5","","g","null","88","88","1","swim-dual-task","","g","lowercase","786000","0","4","8b6ec438e8d425378da7fd4f5fbbabcdf873cd9448c11c6fbfffdf0916ca2fb5","786016.1000000015","832.5","88","1","swim","","","","",""
"dual-task","null","null","null","","arctic","swim","758.6000000014901","","f","null","88","88","1","swim-dual-task","","f","lowercase","796000","0","4","8b6ec438e8d425378da7fd4f5fbbabcdf873cd9448c11c6fbfffdf0916ca2fb5","796005.3000000045","758.6000000014901","88","1","swim","","","","",""
"audio-keyboard-response","62","2567084","0.0-6.0-2.0-1.0","8b6ec438e8d425378da7fd4f5fbbabcdf873cd9448c11c6fbfffdf0916ca2fb5","arctic","swim","null","","audio/story_swim_scrambled.mp3","","null","","","","","","","","","","","","","","","","","","","",""
"html-button-response","63","2570884","0.0-6.0-2.0-2.0","8b6ec438e8d425378da7fd4f5fbbabcdf873cd9448c11c6fbfffdf0916ca2fb5","arctic","swim","3798","","<p>This concludes the story. Thank you for listening.</p><p>You will now answer some questions about the content of the story.</p>","0","","","","","","","","","","","","","","","","","","","","",""
"survey-multi-choice","64","2582964","0.0-6.0-2.0-3.0-0.0","8b6ec438e8d425378da7fd4f5fbbabcdf873cd9448c11c6fbfffdf0916ca2fb5","arctic","swim","12075","","<b>How did the narrator train for his swim test?</b>","","","","1","swim-comprehension","","","","","","","","","","","","","{""Q0"":""Took his kids to the pool every day""}","","","",""
"survey-multi-choice","65","2587892","0.0-6.0-2.0-3.0-0.1","8b6ec438e8d425378da7fd4f5fbbabcdf873cd9448c11c6fbfffdf0916ca2fb5","arctic","swim","4666","","<b>What is the narrator afraid of, aside from the water?</b>","","","","1","swim-comprehension","","","","","","","","","","","","","{""Q0"":""Heights""}","","","",""
"survey-multi-choice","66","2599380","0.0-6.0-2.0-3.0-0.2","8b6ec438e8d425378da7fd4f5fbbabcdf873cd9448c11c6fbfffdf0916ca2fb5","arctic","swim","11228","","<b>What were the astronaut candidates trained to do at the naval air station?</b>","","","","1","swim-comprehension","","","","","","","","","","","","","{""Q0"":""Eject out of aircraft and survive in water long enough to be rescued""}","","","",""
"survey-multi-choice","67","2606052","0.0-6.0-2.0-3.0-0.3","8b6ec438e8d425378da7fd4f5fbbabcdf873cd9448c11c6fbfffdf0916ca2fb5","arctic","swim","6412","","<b>Where is the home of naval aviation?</b>","","","","1","swim-comprehension","","","","","","","","","","","","","{""Q0"":""Pensacola""}","","","",""
"survey-multi-choice","68","2620163","0.0-6.0-2.0-3.0-0.4","8b6ec438e8d425378da7fd4f5fbbabcdf873cd9448c11c6fbfffdf0916ca2fb5","arctic","swim","13857","","<b>What was the final step of the first swim test in the pool?</b>","","","","1","swim-comprehension","","","","","","","","","","","","","{""Q0"":""Tread water with hands above the water""}","","","",""
"survey-multi-choice","69","2630323","0.0-6.0-2.0-3.0-0.5","8b6ec438e8d425378da7fd4f5fbbabcdf873cd9448c11c6fbfffdf0916ca2fb5","arctic","swim","9904","","<b>How many times did the astronaut candidates have to complete the final exercise to pass?</b>","","","","1","swim-comprehension","","","","","","","","","","","","","{""Q0"":""Two""}","","","",""
"survey-multi-choice","70","2645995","0.0-6.0-2.0-3.0-0.6","8b6ec438e8d425378da7fd4f5fbbabcdf873cd9448c11c6fbfffdf0916ca2fb5","arctic","swim","15415","","<b>How often does the narrator swim, now that he is a good swimmer?</b>","","","","0","swim-comprehension","","","","","","","","","","","","","{""Q0"":""Every weekend with his kids""}","","","",""
"survey-multi-choice","71","2665235","0.0-6.0-2.0-3.0-0.7","8b6ec438e8d425378da7fd4f5fbbabcdf873cd9448c11c6fbfffdf0916ca2fb5","arctic","swim","18986","","<b>What gave the narrator his greatest feeling of accomplishment?</b>","","","","0","swim-comprehension","","","","","","","","","","","","","{""Q0"":""Seeing Earth from space""}","","","",""
"survey-multi-choice","72","2683891","0.0-6.0-2.0-3.0-0.8","8b6ec438e8d425378da7fd4f5fbbabcdf873cd9448c11c6fbfffdf0916ca2fb5","arctic","swim","18399","","<b>How many astronaut candidates passed the first swim test?</b>","","","","0","swim-comprehension","","","","","","","","","","","","","{""Q0"":""None""}","","","",""
"survey-multi-choice","73","2693923","0.0-6.0-2.0-3.0-0.9","8b6ec438e8d425378da7fd4f5fbbabcdf873cd9448c11c6fbfffdf0916ca2fb5","arctic","swim","9775","","<b>How many astronaut candidates reported for duty at the Johnson Space Center?</b>","","","","1","swim-comprehension","","","","","","","","","","","","","{""Q0"":""Forty-four""}","","","",""
"html-button-response","74","2695843","0.0-6.0-2.0-4.0","8b6ec438e8d425378da7fd4f5fbbabcdf873cd9448c11c6fbfffdf0916ca2fb5","arctic","swim","1667","","<p>Thank you for your responses.</p><p>You will now answer some questions about your impressions of the story.</p>","0","","","","","","","","","","","","","","","","","","","","",""
"html-button-response","75","2698211","0.0-6.0-2.0-5.0-0.0","8b6ec438e8d425378da7fd4f5fbbabcdf873cd9448c11c6fbfffdf0916ca2fb5","arctic","swim","2368","","E10","0","","","","swim-engagement","","","","","","","","","","","","","","1","enjoyment","",""
"html-button-response","76","2701299","0.0-6.0-2.0-5.0-0.1","8b6ec438e8d425378da7fd4f5fbbabcdf873cd9448c11c6fbfffdf0916ca2fb5","arctic","swim","2836","","EE3","0","","","","swim-engagement","","","","","","","","","","","","","","1","emo-engage","",""
"html-button-response","77","2702763","0.0-6.0-2.0-5.0-0.2","8b6ec438e8d425378da7fd4f5fbbabcdf873cd9448c11c6fbfffdf0916ca2fb5","arctic","swim","1211","","E6","1","","","","swim-engagement","","","","","","","","","","","","","","2","enjoyment","",""
"html-button-response","78","2703659","0.0-6.0-2.0-5.0-0.3","8b6ec438e8d425378da7fd4f5fbbabcdf873cd9448c11c6fbfffdf0916ca2fb5","arctic","swim","644","","E7","0","","","","swim-engagement","","","","","","","","","","","","","","1","enjoyment","",""
"html-button-response","79","2704499","0.0-6.0-2.0-5.0-0.4","8b6ec438e8d425378da7fd4f5fbbabcdf873cd9448c11c6fbfffdf0916ca2fb5","arctic","swim","587","","A4","1","","","","swim-engagement","","","","","","","","","","","","","","2","absorption","",""
"html-button-response","80","2710107","0.0-6.0-2.0-5.0-0.5","8b6ec438e8d425378da7fd4f5fbbabcdf873cd9448c11c6fbfffdf0916ca2fb5","arctic","swim","5355","","A1","1","","","","swim-engagement","","","","","","","","","","","","","","2","absorption","",""
"html-button-response","81","2712091","0.0-6.0-2.0-5.0-0.6","8b6ec438e8d425378da7fd4f5fbbabcdf873cd9448c11c6fbfffdf0916ca2fb5","arctic","swim","1732","","E8","1","","","","swim-engagement","","","","","","","","","","","","","","2","enjoyment","",""
"html-button-response","82","2715411","0.0-6.0-2.0-5.0-0.7","8b6ec438e8d425378da7fd4f5fbbabcdf873cd9448c11c6fbfffdf0916ca2fb5","arctic","swim","3067","","A2","1","","","","swim-engagement","","","","","","","","","","","","","","2","absorption","",""
"html-button-response","83","2717267","0.0-6.0-2.0-5.0-0.8","8b6ec438e8d425378da7fd4f5fbbabcdf873cd9448c11c6fbfffdf0916ca2fb5","arctic","swim","1603","","MS3","1","","","","swim-engagement","","","","","","","","","","","","","","2","mental-sim","",""
"html-button-response","84","2723243","0.0-6.0-2.0-5.0-0.9","8b6ec438e8d425378da7fd4f5fbbabcdf873cd9448c11c6fbfffdf0916ca2fb5","arctic","swim","5723","","MS2","1","","","","swim-engagement","","","","","","","","","","","","","","2","mental-sim","",""
"html-button-response","85","2724923","0.0-6.0-2.0-5.0-0.10","8b6ec438e8d425378da7fd4f5fbbabcdf873cd9448c11c6fbfffdf0916ca2fb5","arctic","swim","1427","","A3","0","","","","swim-engagement","","","","","","","","","","","","","","1","absorption","",""
"html-button-response","86","2729451","0.0-6.0-2.0-5.0-0.11","8b6ec438e8d425378da7fd4f5fbbabcdf873cd9448c11c6fbfffdf0916ca2fb5","arctic","swim","4275","","MS1","1","","","","swim-engagement","","","","","","","","","","","","","","2","mental-sim","",""
"html-button-response","87","2732587","0.0-6.0-2.0-5.0-0.12","8b6ec438e8d425378da7fd4f5fbbabcdf873cd9448c11c6fbfffdf0916ca2fb5","arctic","swim","2883","","E1","1","","","","swim-engagement","","","","","","","","","","","","","","2","enjoyment","",""
"html-button-response","88","2734355","0.0-6.0-2.0-5.0-0.13","8b6ec438e8d425378da7fd4f5fbbabcdf873cd9448c11c6fbfffdf0916ca2fb5","arctic","swim","1515","","EE2","1","","","","swim-engagement","","","","","","","","","","","","","","2","emo-engage","",""
"html-button-response","89","2737211","0.0-6.0-2.0-5.0-0.14","8b6ec438e8d425378da7fd4f5fbbabcdf873cd9448c11c6fbfffdf0916ca2fb5","arctic","swim","2603","","EE5","1","","","","swim-engagement","","","","","","","","","","","","","","2","emo-engage","",""
"html-button-response","90","2740843","0.0-6.0-2.0-5.0-0.15","8b6ec438e8d425378da7fd4f5fbbabcdf873cd9448c11c6fbfffdf0916ca2fb5","arctic","swim","3380","","EE1","1","","","","swim-engagement","","","","","","","","","","","","","","2","emo-engage","",""
"html-button-response","91","2745427","0.0-6.0-2.0-5.0-0.16","8b6ec438e8d425378da7fd4f5fbbabcdf873cd9448c11c6fbfffdf0916ca2fb5","arctic","swim","4331","","A5","1","","","","swim-engagement","","","","","","","","","","","","","","2","absorption","",""
"html-button-response","92","2748306","0.0-6.0-2.0-5.0-0.17","8b6ec438e8d425378da7fd4f5fbbabcdf873cd9448c11c6fbfffdf0916ca2fb5","arctic","swim","2628","","EE4","0","","","","swim-engagement","","","","","","","","","","","","","","1","emo-engage","",""
"html-button-response","93","2750171","0.0-8.0","8b6ec438e8d425378da7fd4f5fbbabcdf873cd9448c11c6fbfffdf0916ca2fb5","arctic","swim","1611","","<p>Thank you for your responses.</p><p>You will now answer some demographic, hearing, and general health questions.</p>","0","","","","","","","","","","","","","","","","","","","","",""
"survey-multi-choice","94","2754635","0.0-9.0-0.0","8b6ec438e8d425378da7fd4f5fbbabcdf873cd9448c11c6fbfffdf0916ca2fb5","arctic","swim","4460","","","","","","","survey","","","","","","","","","","","","","{""Q0"":""Chrome""}","","","browser",""
"survey-text","95","2816378","0.0-9.0-1.0","8b6ec438e8d425378da7fd4f5fbbabcdf873cd9448c11c6fbfffdf0916ca2fb5","arctic","swim","61486.40000000596","","","","","","","survey","","","","","","","","","","","","","{""AGE"":""32""}","","","age","32"
"survey-multi-choice","96","2818753","0.0-9.0-2.0","8b6ec438e8d425378da7fd4f5fbbabcdf873cd9448c11c6fbfffdf0916ca2fb5","arctic","swim","2118","","","","","","","survey","","","","","","","","","","","","","{""Q0"":""Male""}","","","gender","Male"
"survey-multi-choice","97","2822641","0.0-9.0-4.0","8b6ec438e8d425378da7fd4f5fbbabcdf873cd9448c11c6fbfffdf0916ca2fb5","arctic","swim","3633","","","","","","","survey","","","","","","","","","","","","","{""Q0"":""Right""}","","","handedness","Right"
"survey-multi-choice","98","2824746","0.0-9.0-5.0","8b6ec438e8d425378da7fd4f5fbbabcdf873cd9448c11c6fbfffdf0916ca2fb5","arctic","swim","1838","","","","","","","survey","","","","","","","","","","","","","{""Q0"":""Bachelor's Degree""}","","","education","Bachelor's Degree"
"survey-text","99","2829682","0.0-10.0-0.0","8b6ec438e8d425378da7fd4f5fbbabcdf873cd9448c11c6fbfffdf0916ca2fb5","arctic","swim","4681.70000000298","","","","","","","survey","","","","","","","","","","","","","{""L1"":""English""}","","","first-language","English"
"survey-text","100","2843569","0.0-10.0-1.0","8b6ec438e8d425378da7fd4f5fbbabcdf873cd9448c11c6fbfffdf0916ca2fb5","arctic","swim","13624.70000000298","","","","","","","survey","","","","","","","","","","","","","{""L2name"":"""",""L2fluency"":"""",""L3name"":"""",""L3fluency"":"""",""L4name"":"""",""L4fluency"":""""}","","","additional-languages","{""L2name"":"""",""L2fluency"":"""",""L3name"":"""",""L3fluency"":"""",""L4name"":"""",""L4fluency"":""""}"
"survey-multi-choice","101","2848809","0.0-10.0-2.0","8b6ec438e8d425378da7fd4f5fbbabcdf873cd9448c11c6fbfffdf0916ca2fb5","arctic","swim","4981","","","","","","","survey","","","","","","","","","","","","","{""Q0"":""No""}","","","hearing-aid","No"
"survey-multi-choice","102","2853505","0.0-10.0-3.0","8b6ec438e8d425378da7fd4f5fbbabcdf873cd9448c11c6fbfffdf0916ca2fb5","arctic","swim","4438","","","","","","","survey","","","","","","","","","","","","","{""Q0"":""Never""}","","","ringing-ears","Never"
"survey-multi-choice","103","2856705","0.0-10.0-5.0","8b6ec438e8d425378da7fd4f5fbbabcdf873cd9448c11c6fbfffdf0916ca2fb5","arctic","swim","2946","","","","","","","survey","","","","","","","","","","","","","{""Q0"":""No""}","","","neuro-disease","No"
"survey-multi-choice","104","2861065","0.0-10.0-7.0","8b6ec438e8d425378da7fd4f5fbbabcdf873cd9448c11c6fbfffdf0916ca2fb5","arctic","swim","4107","","","","","","","survey","","","","","","","","","","","","","{""Q0"":""No""}","","","take-meds","No"
"survey-text","105","2866289","0.0-10.0-9.0","8b6ec438e8d425378da7fd4f5fbbabcdf873cd9448c11c6fbfffdf0916ca2fb5","arctic","swim","4957.39999999851","","","","","","","survey","","","","","","","","","","","","","{""HC"":""""}","","","health-concerns",""
"html-button-response","106","2871905","0.0-11.0-0.0","8b6ec438e8d425378da7fd4f5fbbabcdf873cd9448c11c6fbfffdf0916ca2fb5","arctic","swim","5363","","<p>How would you describe your musical skills/experiences?</p>","3","","","","survey","","","","","","","","","","","","","","","","music-skill","4"
"survey-multi-choice","107","2874817","0.0-11.0-1.0","8b6ec438e8d425378da7fd4f5fbbabcdf873cd9448c11c6fbfffdf0916ca2fb5","arctic","swim","2657","","","","","","","survey","","","","","","","","","","","","","{""Q0"":""No""}","","","music-instrument","No"
"html-button-response","108","2879169","0.0-12.0-0.0","8b6ec438e8d425378da7fd4f5fbbabcdf873cd9448c11c6fbfffdf0916ca2fb5","arctic","swim","4099","","<p>How would you describe your general hearing abilities?</p>","5","","","","survey","","","","","","","","","","","","","","","","ssq-01","6"
"html-button-response","109","2891969","0.0-12.0-1.0","8b6ec438e8d425378da7fd4f5fbbabcdf873cd9448c11c6fbfffdf0916ca2fb5","arctic","swim","12547","","<p>When you talk with someone at a place that strongly reverberates/echoes (e.g., in a church or train station),</br>can you understand what the person says?</p>","9","","","","survey","","","","","","","","","","","","","","","","ssq-02","9"
"html-button-response","110","2898481","0.0-12.0-2.0","8b6ec438e8d425378da7fd4f5fbbabcdf873cd9448c11c6fbfffdf0916ca2fb5","arctic","swim","6259","","<p>When you are with a group (~5 people) in a lively restaurant, can you follow the group's conversation?</p>","10","","","","survey","","","","","","","","","","","","","","","","ssq-03","10"
"html-button-response","111","2904761","0.0-12.0-3.0","8b6ec438e8d425378da7fd4f5fbbabcdf873cd9448c11c6fbfffdf0916ca2fb5","arctic","swim","6026","","<p>Based on the sound of a bus or truck, can you tell whether it is moving towards or away from you?</p>","9","","","","survey","","","","","","","","","","","","","","","","ssq-04","9"
"html-button-response","112","2910065","0.0-12.0-4.0","8b6ec438e8d425378da7fd4f5fbbabcdf873cd9448c11c6fbfffdf0916ca2fb5","arctic","swim","5051","","<p>When you are in an unknown environment, can you tell from which direction a brief sound originates?</p>","9","","","","survey","","","","","","","","","","","","","","","","ssq-05","9"
"html-button-response","113","2917057","0.0-12.0-5.0","8b6ec438e8d425378da7fd4f5fbbabcdf873cd9448c11c6fbfffdf0916ca2fb5","arctic","swim","6739","","<p>Are you able to ignore distracting sounds when you concentrate on a specific aspect of your acoustic surrounding?</p>","9","","","","survey","","","","","","","","","","","","","","","","ssq-06","9"
"fullscreen","114","2918309","0.0-13.0","8b6ec438e8d425378da7fd4f5fbbabcdf873cd9448c11c6fbfffdf0916ca2fb5","arctic","swim","","","","","","","","","true","","","","","","","","","","","","","","","",""
