"trial_type","trial_index","time_elapsed","internal_node_id","ParticipantID","firstStory","scramStory","rt","url","stimulus","button_pressed","key_press","correctRESP","correct","designation","success","letterStim","letterType","ONSET","TIMEOUT","CONDITION","Participant","ONSET_ACTUAL","RT","RESP","ACC","STORY","responses","response","type","surveyQuestion","QRESP"
"pavlovia","0","88","0.0-0.0","d469ee750990cbbd70cf00c4f539f091da13ecff01b1afc571b4a47aefd1fcba","arctic","swim","","","","","","","","","","","","","","","","","","","","","","","","",""
"external-html","1","7937","0.0-1.0","d469ee750990cbbd70cf00c4f539f091da13ecff01b1afc571b4a47aefd1fcba","arctic","swim","6988","consent/consent_updated.html","","","","","","","","","","","","","","","","","","","","","","",""
"html-button-response","2","10637","0.0-2.0-0.0","d469ee750990cbbd70cf00c4f539f091da13ecff01b1afc571b4a47aefd1fcba","arctic","swim","2697","","<p>Before we begin the main task, you will complete a short volume calibration and headphone check.</p><p>Please make sure you are in a quiet listening environment, that you are wearing headphones, and that your computer's volume is turned on.<p></p>","0","","","","","","","","","","","","","","","","","","","","",""
"html-button-response","3","13746","0.0-2.0-1.0","d469ee750990cbbd70cf00c4f539f091da13ecff01b1afc571b4a47aefd1fcba","arctic","swim","2856","","<p>The volume calibration will be first.</p><p>You will hear a thirty-second noise. Please adjust your computer's volume so that this noise is being presented at a comfortable level.<p></p>","0","","","","","","","","","","","","","","","","","","","","",""
"audio-button-response","4","20079","0.0-2.0-2.0","d469ee750990cbbd70cf00c4f539f091da13ecff01b1afc571b4a47aefd1fcba","arctic","swim","5981","","audio/volumetest.mp3","0","","","","","","","","","","","","","","","","","","","","",""
"html-keyboard-response","5","23383","0.0-3.0-0.0","d469ee750990cbbd70cf00c4f539f091da13ecff01b1afc571b4a47aefd1fcba","arctic","swim","3303","","<p>You will now complete a short headphone check.</p><p>On each trial, you will hear three tones. One of these tones will be quieter than the others. Your task is to identify whether the quiet tone occurred first, second, or third.</p><p>There are six trials in total.<p></p><p></p>(Press SPACEBAR to begin)","","32","","","","","","","","","","","","","","","","","","","",""
"html-keyboard-response","6","24160","0.0-3.0-1.0-0.0","d469ee750990cbbd70cf00c4f539f091da13ecff01b1afc571b4a47aefd1fcba","arctic","swim","null","","<div style=""font-size:60px;"">+</div>","","null","","","","","","","","","","","","","","","","","","","",""
"audio-button-response","7","30616","0.0-3.0-1.0-1.0","d469ee750990cbbd70cf00c4f539f091da13ecff01b1afc571b4a47aefd1fcba","arctic","swim","6451","","audio/t2_1.mp3","1","","1","1","headphone-test","","","","","","","","","","","","","","","","",""
"html-keyboard-response","8","31129","0.0-3.0-1.0-2.0","d469ee750990cbbd70cf00c4f539f091da13ecff01b1afc571b4a47aefd1fcba","arctic","swim","null","","<p>Correct</p>","","null","","","","","","","","","","","","","","","","","","","",""
"html-keyboard-response","9","31638","0.0-3.0-1.0-0.1","d469ee750990cbbd70cf00c4f539f091da13ecff01b1afc571b4a47aefd1fcba","arctic","swim","null","","<div style=""font-size:60px;"">+</div>","","null","","","","","","","","","","","","","","","","","","","",""
"audio-button-response","10","36895","0.0-3.0-1.0-1.1","d469ee750990cbbd70cf00c4f539f091da13ecff01b1afc571b4a47aefd1fcba","arctic","swim","5254","","audio/t1_2.mp3","2","","0","0","headphone-test","","","","","","","","","","","","","","","","",""
"html-keyboard-response","11","37412","0.0-3.0-1.0-2.1","d469ee750990cbbd70cf00c4f539f091da13ecff01b1afc571b4a47aefd1fcba","arctic","swim","null","","<p>Incorrect</p>","","null","","","","","","","","","","","","","","","","","","","",""
"html-keyboard-response","12","37914","0.0-3.0-1.0-0.2","d469ee750990cbbd70cf00c4f539f091da13ecff01b1afc571b4a47aefd1fcba","arctic","swim","null","","<div style=""font-size:60px;"">+</div>","","null","","","","","","","","","","","","","","","","","","","",""
"audio-button-response","13","43150","0.0-3.0-1.0-1.2","d469ee750990cbbd70cf00c4f539f091da13ecff01b1afc571b4a47aefd1fcba","arctic","swim","5225","","audio/t1_1.mp3","1","","0","0","headphone-test","","","","","","","","","","","","","","","","",""
"html-keyboard-response","14","43652","0.0-3.0-1.0-2.2","d469ee750990cbbd70cf00c4f539f091da13ecff01b1afc571b4a47aefd1fcba","arctic","swim","null","","<p>Incorrect</p>","","null","","","","","","","","","","","","","","","","","","","",""
"html-keyboard-response","15","44166","0.0-3.0-1.0-0.3","d469ee750990cbbd70cf00c4f539f091da13ecff01b1afc571b4a47aefd1fcba","arctic","swim","null","","<div style=""font-size:60px;"">+</div>","","null","","","","","","","","","","","","","","","","","","","",""
"audio-button-response","16","49426","0.0-3.0-1.0-1.3","d469ee750990cbbd70cf00c4f539f091da13ecff01b1afc571b4a47aefd1fcba","arctic","swim","5259","","audio/t3_2.mp3","0","","2","0","headphone-test","","","","","","","","","","","","","","","","",""
"html-keyboard-response","17","49945","0.0-3.0-1.0-2.3","d469ee750990cbbd70cf00c4f539f091da13ecff01b1afc571b4a47aefd1fcba","arctic","swim","null","","<p>Incorrect</p>","","null","","","","","","","","","","","","","","","","","","","",""
"html-keyboard-response","18","50459","0.0-3.0-1.0-0.4","d469ee750990cbbd70cf00c4f539f091da13ecff01b1afc571b4a47aefd1fcba","arctic","swim","null","","<div style=""font-size:60px;"">+</div>","","null","","","","","","","","","","","","","","","","","","","",""
"audio-button-response","19","56670","0.0-3.0-1.0-1.4","d469ee750990cbbd70cf00c4f539f091da13ecff01b1afc571b4a47aefd1fcba","arctic","swim","6209","","audio/t3_1.mp3","2","","2","1","headphone-test","","","","","","","","","","","","","","","","",""
"html-keyboard-response","20","57180","0.0-3.0-1.0-2.4","d469ee750990cbbd70cf00c4f539f091da13ecff01b1afc571b4a47aefd1fcba","arctic","swim","null","","<p>Correct</p>","","null","","","","","","","","","","","","","","","","","","","",""
"html-keyboard-response","21","57684","0.0-3.0-1.0-0.5","d469ee750990cbbd70cf00c4f539f091da13ecff01b1afc571b4a47aefd1fcba","arctic","swim","null","","<div style=""font-size:60px;"">+</div>","","null","","","","","","","","","","","","","","","","","","","",""
"audio-button-response","22","64075","0.0-3.0-1.0-1.5","d469ee750990cbbd70cf00c4f539f091da13ecff01b1afc571b4a47aefd1fcba","arctic","swim","6390","","audio/t2_2.mp3","1","","1","1","headphone-test","","","","","","","","","","","","","","","","",""
"html-keyboard-response","23","64578","0.0-3.0-1.0-2.5","d469ee750990cbbd70cf00c4f539f091da13ecff01b1afc571b4a47aefd1fcba","arctic","swim","null","","<p>Correct</p>","","null","","","","","","","","","","","","","","","","","","","",""
"fullscreen","24","67170","0.0-4.0","d469ee750990cbbd70cf00c4f539f091da13ecff01b1afc571b4a47aefd1fcba","arctic","swim","","","","","","","","","true","","","","","","","","","","","","","","","",""
"html-button-response","25","511584","0.0-5.0-0.0","d469ee750990cbbd70cf00c4f539f091da13ecff01b1afc571b4a47aefd1fcba","arctic","swim","444411","","<p>There are two blocks to this experiment.</p><p>In each block, you will hear a ~13.5 minute story. One of the stories will be scrambled. Please listen carefully to both stories and understand them as best you can.</p><p>After each story, you will be asked some questions to assess your comprehension.</p>","0","","","","","","","","","","","","","","","","","","","","",""
"html-button-response","26","522440","0.0-5.0-1.0","d469ee750990cbbd70cf00c4f539f091da13ecff01b1afc571b4a47aefd1fcba","arctic","swim","10851","","<p>During each story, there will be an additional task.</p><p>A letter will occasionally appear on the screen.</br>Your job is to - as quickly as you can - decide whether the letter is lowercase or uppercase and press one of two keys on the keyboard:</p><p>If the letter is <b>lowercase</b>, press key &lt;<b>x</b>&gt;.</p><p>If the letter is <b>uppercase</b>, press key &lt;<b>m</b>&gt;.</p>","0","","","","","","","","","","","","","","","","","","","","",""
"html-keyboard-response","27","529688","0.0-5.0-2.0","d469ee750990cbbd70cf00c4f539f091da13ecff01b1afc571b4a47aefd1fcba","arctic","swim","7247","","<p>Because we want your responses to be as quick as possible, please keep your index fingers over the keys while listening.</p><p>Each block lasts about 20 minutes.</p><p><b>Press &lt;x&gt; or &lt;m&gt; to start the first block!</b></p>","","88","","","","","","","","","","","","","","","","","","","",""
"html-keyboard-response","28","530191","0.0-6.0-0.0-0.0","d469ee750990cbbd70cf00c4f539f091da13ecff01b1afc571b4a47aefd1fcba","arctic","swim","null","","<div style=""font-size:60px;"" tabindex=""0"">+</div>","","null","","","","","","","","","","","","","","","","","","","",""
"dual-task","null","null","null","","arctic","swim","1630.3999998569489","","D","null","77","77","1","arctic-dual-task","","D","uppercase","18000","0","5","d469ee750990cbbd70cf00c4f539f091da13ecff01b1afc571b4a47aefd1fcba","18013.099999904633","1630.3999998569489","77","1","arctic","","","","",""
"dual-task","null","null","null","","arctic","swim","1917.8999998569489","","r","null","88","88","1","arctic-dual-task","","r","lowercase","32000","0","5","d469ee750990cbbd70cf00c4f539f091da13ecff01b1afc571b4a47aefd1fcba","32010.89999985695","1917.8999998569489","88","1","arctic","","","","",""
"dual-task","null","null","null","","arctic","swim","990.7999999523163","","a","null","88","88","1","arctic-dual-task","","a","lowercase","42000","0","5","d469ee750990cbbd70cf00c4f539f091da13ecff01b1afc571b4a47aefd1fcba","42011.799999952316","990.7999999523163","88","1","arctic","","","","",""
"dual-task","null","null","null","","arctic","swim","1056.4000000953674","","h","null","88","88","1","arctic-dual-task","","h","lowercase","56000","0","5","d469ee750990cbbd70cf00c4f539f091da13ecff01b1afc571b4a47aefd1fcba","56000.299999952316","1056.4000000953674","88","1","arctic","","","","",""
"dual-task","null","null","null","","arctic","swim","895.5","","h","null","88","88","1","arctic-dual-task","","h","lowercase","68000","0","5","d469ee750990cbbd70cf00c4f539f091da13ecff01b1afc571b4a47aefd1fcba","68007.59999990463","895.5","88","1","arctic","","","","",""
"dual-task","null","null","null","","arctic","swim","795.7999999523163","","r","null","88","88","1","arctic-dual-task","","r","lowercase","82000","0","5","d469ee750990cbbd70cf00c4f539f091da13ecff01b1afc571b4a47aefd1fcba","82013.39999985695","795.7999999523163","88","1","arctic","","","","",""
"dual-task","null","null","null","","arctic","swim","1354.4000000953674","","b","null","88","88","1","arctic-dual-task","","b","lowercase","88000","0","5","d469ee750990cbbd70cf00c4f539f091da13ecff01b1afc571b4a47aefd1fcba","87999.09999990463","1354.4000000953674","88","1","arctic","","","","",""
"dual-task","null","null","null","","arctic","swim","1449.7999999523163","","E","null","77","77","1","arctic-dual-task","","E","uppercase","100000","0","5","d469ee750990cbbd70cf00c4f539f091da13ecff01b1afc571b4a47aefd1fcba","100010","1449.7999999523163","77","1","arctic","","","","",""
"dual-task","null","null","null","","arctic","swim","1236.7000000476837","","h","null","88","88","1","arctic-dual-task","","h","lowercase","108000","0","5","d469ee750990cbbd70cf00c4f539f091da13ecff01b1afc571b4a47aefd1fcba","108006.39999985695","1236.7000000476837","88","1","arctic","","","","",""
"dual-task","null","null","null","","arctic","swim","1312.5","","F","null","77","77","1","arctic-dual-task","","F","uppercase","116000","0","5","d469ee750990cbbd70cf00c4f539f091da13ecff01b1afc571b4a47aefd1fcba","116008.20000004768","1312.5","77","1","arctic","","","","",""
"dual-task","null","null","null","","arctic","swim","980.2000000476837","","B","null","77","77","1","arctic-dual-task","","B","uppercase","124000","0","5","d469ee750990cbbd70cf00c4f539f091da13ecff01b1afc571b4a47aefd1fcba","124013.39999985695","980.2000000476837","77","1","arctic","","","","",""
"dual-task","null","null","null","","arctic","swim","1524.5","","N","null","77","77","1","arctic-dual-task","","N","uppercase","134000","0","5","d469ee750990cbbd70cf00c4f539f091da13ecff01b1afc571b4a47aefd1fcba","134003.5","1524.5","77","1","arctic","","","","",""
"dual-task","null","null","null","","arctic","swim","1512.0999999046326","","N","null","77","77","1","arctic-dual-task","","N","uppercase","144000","0","5","d469ee750990cbbd70cf00c4f539f091da13ecff01b1afc571b4a47aefd1fcba","144000.59999990463","1512.0999999046326","77","1","arctic","","","","",""
"dual-task","null","null","null","","arctic","swim","1512.2000000476837","","D","null","77","77","1","arctic-dual-task","","D","uppercase","150000","0","5","d469ee750990cbbd70cf00c4f539f091da13ecff01b1afc571b4a47aefd1fcba","150005.29999995232","1512.2000000476837","77","1","arctic","","","","",""
"dual-task","null","null","null","","arctic","swim","1459.5","","n","null","88","88","1","arctic-dual-task","","n","lowercase","160000","0","5","d469ee750990cbbd70cf00c4f539f091da13ecff01b1afc571b4a47aefd1fcba","160010.5","1459.5","88","1","arctic","","","","",""
"dual-task","null","null","null","","arctic","swim","1141.3999998569489","","N","null","77","77","1","arctic-dual-task","","N","uppercase","170000","0","5","d469ee750990cbbd70cf00c4f539f091da13ecff01b1afc571b4a47aefd1fcba","170013","1141.3999998569489","77","1","arctic","","","","",""
"dual-task","null","null","null","","arctic","swim","1329.0999999046326","","R","null","77","77","1","arctic-dual-task","","R","uppercase","176000","0","5","d469ee750990cbbd70cf00c4f539f091da13ecff01b1afc571b4a47aefd1fcba","176012.29999995232","1329.0999999046326","77","1","arctic","","","","",""
"dual-task","null","null","null","","arctic","swim","1399.7999999523163","","e","null","88","88","1","arctic-dual-task","","e","lowercase","188000","0","5","d469ee750990cbbd70cf00c4f539f091da13ecff01b1afc571b4a47aefd1fcba","188011.29999995232","1399.7999999523163","88","1","arctic","","","","",""
"dual-task","null","null","null","","arctic","swim","1488.0999999046326","","D","null","77","77","1","arctic-dual-task","","D","uppercase","194000","0","5","d469ee750990cbbd70cf00c4f539f091da13ecff01b1afc571b4a47aefd1fcba","194013.89999985695","1488.0999999046326","77","1","arctic","","","","",""
"dual-task","null","null","null","","arctic","swim","1544.8999998569489","","Q","null","77","77","1","arctic-dual-task","","Q","uppercase","204000","0","5","d469ee750990cbbd70cf00c4f539f091da13ecff01b1afc571b4a47aefd1fcba","204007.5","1544.8999998569489","77","1","arctic","","","","",""
"dual-task","null","null","null","","arctic","swim","1544.5","","H","null","77","77","1","arctic-dual-task","","H","uppercase","214000","0","5","d469ee750990cbbd70cf00c4f539f091da13ecff01b1afc571b4a47aefd1fcba","214003.20000004768","1544.5","77","1","arctic","","","","",""
"dual-task","null","null","null","","arctic","swim","1253","","E","null","77","77","1","arctic-dual-task","","E","uppercase","224000","0","5","d469ee750990cbbd70cf00c4f539f091da13ecff01b1afc571b4a47aefd1fcba","224008.89999985695","1253","77","1","arctic","","","","",""
"dual-task","null","null","null","","arctic","swim","1235.2999999523163","","T","null","77","77","1","arctic-dual-task","","T","uppercase","230000","0","5","d469ee750990cbbd70cf00c4f539f091da13ecff01b1afc571b4a47aefd1fcba","230005","1235.2999999523163","77","1","arctic","","","","",""
"dual-task","null","null","null","","arctic","swim","1373.3000001907349","","q","null","88","88","1","arctic-dual-task","","q","lowercase","244000","0","5","d469ee750990cbbd70cf00c4f539f091da13ecff01b1afc571b4a47aefd1fcba","244004.70000004768","1373.3000001907349","88","1","arctic","","","","",""
"dual-task","null","null","null","","arctic","swim","1398.4000000953674","","G","null","77","77","1","arctic-dual-task","","G","uppercase","258000","0","5","d469ee750990cbbd70cf00c4f539f091da13ecff01b1afc571b4a47aefd1fcba","258009.79999995232","1398.4000000953674","77","1","arctic","","","","",""
"dual-task","null","null","null","","arctic","swim","1194.9000000953674","","A","null","77","77","1","arctic-dual-task","","A","uppercase","266000","0","5","d469ee750990cbbd70cf00c4f539f091da13ecff01b1afc571b4a47aefd1fcba","266013","1194.9000000953674","77","1","arctic","","","","",""
"dual-task","null","null","null","","arctic","swim","1324","","d","null","88","88","1","arctic-dual-task","","d","lowercase","276000","0","5","d469ee750990cbbd70cf00c4f539f091da13ecff01b1afc571b4a47aefd1fcba","276000.09999990463","1324","88","1","arctic","","","","",""
"dual-task","null","null","null","","arctic","swim","1241.0999999046326","","F","null","77","77","1","arctic-dual-task","","F","uppercase","290000","0","5","d469ee750990cbbd70cf00c4f539f091da13ecff01b1afc571b4a47aefd1fcba","290006.89999985695","1241.0999999046326","77","1","arctic","","","","",""
"dual-task","null","null","null","","arctic","swim","1518.8000001907349","","f","null","88","88","1","arctic-dual-task","","f","lowercase","298000","0","5","d469ee750990cbbd70cf00c4f539f091da13ecff01b1afc571b4a47aefd1fcba","298000.2000000477","1518.8000001907349","88","1","arctic","","","","",""
"dual-task","null","null","null","","arctic","swim","796.0999999046326","","E","null","77","77","1","arctic-dual-task","","E","uppercase","306000","0","5","d469ee750990cbbd70cf00c4f539f091da13ecff01b1afc571b4a47aefd1fcba","306009","796.0999999046326","77","1","arctic","","","","",""
"dual-task","null","null","null","","arctic","swim","867.5999999046326","","e","null","88","88","1","arctic-dual-task","","e","lowercase","316000","0","5","d469ee750990cbbd70cf00c4f539f091da13ecff01b1afc571b4a47aefd1fcba","316010.39999985695","867.5999999046326","88","1","arctic","","","","",""
"dual-task","null","null","null","","arctic","swim","1215.2000000476837","","n","null","88","88","1","arctic-dual-task","","n","lowercase","328000","0","5","d469ee750990cbbd70cf00c4f539f091da13ecff01b1afc571b4a47aefd1fcba","328006","1215.2000000476837","88","1","arctic","","","","",""
"dual-task","null","null","null","","arctic","swim","1067.2999999523163","","t","null","88","88","1","arctic-dual-task","","t","lowercase","342000","0","5","d469ee750990cbbd70cf00c4f539f091da13ecff01b1afc571b4a47aefd1fcba","342002.59999990463","1067.2999999523163","88","1","arctic","","","","",""
"dual-task","null","null","null","","arctic","swim","914","","T","null","77","77","1","arctic-dual-task","","T","uppercase","354000","0","5","d469ee750990cbbd70cf00c4f539f091da13ecff01b1afc571b4a47aefd1fcba","354009.89999985695","914","77","1","arctic","","","","",""
"dual-task","null","null","null","","arctic","swim","798.8999998569489","","R","null","77","77","1","arctic-dual-task","","R","uppercase","364000","0","5","d469ee750990cbbd70cf00c4f539f091da13ecff01b1afc571b4a47aefd1fcba","364013.09999990463","798.8999998569489","77","1","arctic","","","","",""
"dual-task","null","null","null","","arctic","swim","767.7999999523163","","d","null","88","88","1","arctic-dual-task","","d","lowercase","372000","0","5","d469ee750990cbbd70cf00c4f539f091da13ecff01b1afc571b4a47aefd1fcba","372003.39999985695","767.7999999523163","88","1","arctic","","","","",""
"dual-task","null","null","null","","arctic","swim","929.2999999523163","","D","null","77","77","1","arctic-dual-task","","D","uppercase","378000","0","5","d469ee750990cbbd70cf00c4f539f091da13ecff01b1afc571b4a47aefd1fcba","378013.2000000477","929.2999999523163","77","1","arctic","","","","",""
"dual-task","null","null","null","","arctic","swim","894","","H","null","77","77","1","arctic-dual-task","","H","uppercase","388000","0","5","d469ee750990cbbd70cf00c4f539f091da13ecff01b1afc571b4a47aefd1fcba","388003.2999999523","894","77","1","arctic","","","","",""
"dual-task","null","null","null","","arctic","swim","874.7000000476837","","Q","null","77","77","1","arctic-dual-task","","Q","uppercase","394000","0","5","d469ee750990cbbd70cf00c4f539f091da13ecff01b1afc571b4a47aefd1fcba","394008.59999990463","874.7000000476837","77","1","arctic","","","","",""
"dual-task","null","null","null","","arctic","swim","874.7000000476837","","b","null","88","88","1","arctic-dual-task","","b","lowercase","406000","0","5","d469ee750990cbbd70cf00c4f539f091da13ecff01b1afc571b4a47aefd1fcba","406008.59999990463","874.7000000476837","88","1","arctic","","","","",""
"dual-task","null","null","null","","arctic","swim","826.6000001430511","","t","null","88","88","1","arctic-dual-task","","t","lowercase","412000","0","5","d469ee750990cbbd70cf00c4f539f091da13ecff01b1afc571b4a47aefd1fcba","412008","826.6000001430511","88","1","arctic","","","","",""
"dual-task","null","null","null","","arctic","swim","1489.1000001430511","","F","null","77","77","1","arctic-dual-task","","F","uppercase","426000","0","5","d469ee750990cbbd70cf00c4f539f091da13ecff01b1afc571b4a47aefd1fcba","426000.7999999523","1489.1000001430511","77","1","arctic","","","","",""
"dual-task","null","null","null","","arctic","swim","865.2000000476837","","b","null","88","88","1","arctic-dual-task","","b","lowercase","438000","0","5","d469ee750990cbbd70cf00c4f539f091da13ecff01b1afc571b4a47aefd1fcba","438007.59999990463","865.2000000476837","88","1","arctic","","","","",""
"dual-task","null","null","null","","arctic","swim","1070.2999999523163","","T","null","77","77","1","arctic-dual-task","","T","uppercase","450000","0","5","d469ee750990cbbd70cf00c4f539f091da13ecff01b1afc571b4a47aefd1fcba","450014.5","1070.2999999523163","77","1","arctic","","","","",""
"dual-task","null","null","null","","arctic","swim","807.6000001430511","","B","null","77","77","1","arctic-dual-task","","B","uppercase","462000","0","5","d469ee750990cbbd70cf00c4f539f091da13ecff01b1afc571b4a47aefd1fcba","462008.39999985695","807.6000001430511","77","1","arctic","","","","",""
"dual-task","null","null","null","","arctic","swim","807.2000000476837","","A","null","77","77","1","arctic-dual-task","","A","uppercase","474000","0","5","d469ee750990cbbd70cf00c4f539f091da13ecff01b1afc571b4a47aefd1fcba","474000.39999985695","807.2000000476837","77","1","arctic","","","","",""
"dual-task","null","null","null","","arctic","swim","836.7999999523163","","B","null","77","77","1","arctic-dual-task","","B","uppercase","482000","0","5","d469ee750990cbbd70cf00c4f539f091da13ecff01b1afc571b4a47aefd1fcba","482000.7000000477","836.7999999523163","77","1","arctic","","","","",""
"dual-task","null","null","null","","arctic","swim","1231.4000000953674","","F","null","77","77","1","arctic-dual-task","","F","uppercase","488000","0","5","d469ee750990cbbd70cf00c4f539f091da13ecff01b1afc571b4a47aefd1fcba","488005.39999985695","1231.4000000953674","77","1","arctic","","","","",""
"dual-task","null","null","null","","arctic","swim","1053.5999999046326","","r","null","88","88","1","arctic-dual-task","","r","lowercase","494000","0","5","d469ee750990cbbd70cf00c4f539f091da13ecff01b1afc571b4a47aefd1fcba","494003.09999990463","1053.5999999046326","88","1","arctic","","","","",""
"dual-task","null","null","null","","arctic","swim","815.7999999523163","","E","null","77","77","1","arctic-dual-task","","E","uppercase","500000","0","5","d469ee750990cbbd70cf00c4f539f091da13ecff01b1afc571b4a47aefd1fcba","499999.7000000477","815.7999999523163","77","1","arctic","","","","",""
"dual-task","null","null","null","","arctic","swim","1248.2000000476837","","a","null","88","88","1","arctic-dual-task","","a","lowercase","508000","0","5","d469ee750990cbbd70cf00c4f539f091da13ecff01b1afc571b4a47aefd1fcba","508005.09999990463","1248.2000000476837","88","1","arctic","","","","",""
"dual-task","null","null","null","","arctic","swim","938.7000000476837","","q","null","88","88","1","arctic-dual-task","","q","lowercase","522000","0","5","d469ee750990cbbd70cf00c4f539f091da13ecff01b1afc571b4a47aefd1fcba","522006.39999985695","938.7000000476837","88","1","arctic","","","","",""
"dual-task","null","null","null","","arctic","swim","862.2999999523163","","d","null","88","88","1","arctic-dual-task","","d","lowercase","534000","0","5","d469ee750990cbbd70cf00c4f539f091da13ecff01b1afc571b4a47aefd1fcba","534014.7000000477","862.2999999523163","88","1","arctic","","","","",""
"dual-task","null","null","null","","arctic","swim","846.8999998569489","","q","null","88","88","1","arctic-dual-task","","q","lowercase","546000","0","5","d469ee750990cbbd70cf00c4f539f091da13ecff01b1afc571b4a47aefd1fcba","546003.399999857","846.8999998569489","88","1","arctic","","","","",""
"dual-task","null","null","null","","arctic","swim","789.7000000476837","","f","null","88","88","1","arctic-dual-task","","f","lowercase","560000","0","5","d469ee750990cbbd70cf00c4f539f091da13ecff01b1afc571b4a47aefd1fcba","560014.0999999046","789.7000000476837","88","1","arctic","","","","",""
"dual-task","null","null","null","","arctic","swim","858.2000000476837","","G","null","77","77","1","arctic-dual-task","","G","uppercase","574000","0","5","d469ee750990cbbd70cf00c4f539f091da13ecff01b1afc571b4a47aefd1fcba","574005.2999999523","858.2000000476837","77","1","arctic","","","","",""
"dual-task","null","null","null","","arctic","swim","1261.8999998569489","","R","null","77","77","1","arctic-dual-task","","R","uppercase","588000","0","5","d469ee750990cbbd70cf00c4f539f091da13ecff01b1afc571b4a47aefd1fcba","588014.2000000477","1261.8999998569489","77","1","arctic","","","","",""
"dual-task","null","null","null","","arctic","swim","1323.7999999523163","","g","null","88","88","1","arctic-dual-task","","g","lowercase","602000","0","5","d469ee750990cbbd70cf00c4f539f091da13ecff01b1afc571b4a47aefd1fcba","602008","1323.7999999523163","88","1","arctic","","","","",""
"dual-task","null","null","null","","arctic","swim","1498","","G","null","77","77","1","arctic-dual-task","","G","uppercase","610000","0","5","d469ee750990cbbd70cf00c4f539f091da13ecff01b1afc571b4a47aefd1fcba","610013.399999857","1498","77","1","arctic","","","","",""
"dual-task","null","null","null","","arctic","swim","1598.4000000953674","","f","null","88","88","1","arctic-dual-task","","f","lowercase","620000","0","5","d469ee750990cbbd70cf00c4f539f091da13ecff01b1afc571b4a47aefd1fcba","620006.5","1598.4000000953674","88","1","arctic","","","","",""
"dual-task","null","null","null","","arctic","swim","1322.0999999046326","","N","null","77","77","1","arctic-dual-task","","N","uppercase","634000","0","5","d469ee750990cbbd70cf00c4f539f091da13ecff01b1afc571b4a47aefd1fcba","634001.7000000477","1322.0999999046326","77","1","arctic","","","","",""
"dual-task","null","null","null","","arctic","swim","948.8000001907349","","d","null","88","88","1","arctic-dual-task","","d","lowercase","648000","0","5","d469ee750990cbbd70cf00c4f539f091da13ecff01b1afc571b4a47aefd1fcba","648010.2000000477","948.8000001907349","88","1","arctic","","","","",""
"dual-task","null","null","null","","arctic","swim","973.2000000476837","","t","null","88","88","1","arctic-dual-task","","t","lowercase","656000","0","5","d469ee750990cbbd70cf00c4f539f091da13ecff01b1afc571b4a47aefd1fcba","656012.5999999046","973.2000000476837","88","1","arctic","","","","",""
"dual-task","null","null","null","","arctic","swim","788.9000000953674","","B","null","77","77","1","arctic-dual-task","","B","uppercase","668000","0","5","d469ee750990cbbd70cf00c4f539f091da13ecff01b1afc571b4a47aefd1fcba","668009.0999999046","788.9000000953674","77","1","arctic","","","","",""
"dual-task","null","null","null","","arctic","swim","942","","H","null","77","77","1","arctic-dual-task","","H","uppercase","676000","0","5","d469ee750990cbbd70cf00c4f539f091da13ecff01b1afc571b4a47aefd1fcba","676002.2000000477","942","77","1","arctic","","","","",""
"dual-task","null","null","null","","arctic","swim","890.6000001430511","","r","null","88","88","1","arctic-dual-task","","r","lowercase","690000","0","5","d469ee750990cbbd70cf00c4f539f091da13ecff01b1afc571b4a47aefd1fcba","690008.0999999046","890.6000001430511","88","1","arctic","","","","",""
"dual-task","null","null","null","","arctic","swim","906.2999999523163","","n","null","88","88","1","arctic-dual-task","","n","lowercase","700000","0","5","d469ee750990cbbd70cf00c4f539f091da13ecff01b1afc571b4a47aefd1fcba","700004","906.2999999523163","88","1","arctic","","","","",""
"dual-task","null","null","null","","arctic","swim","824.6000001430511","","t","null","88","88","1","arctic-dual-task","","t","lowercase","708000","0","5","d469ee750990cbbd70cf00c4f539f091da13ecff01b1afc571b4a47aefd1fcba","708015.0999999046","824.6000001430511","88","1","arctic","","","","",""
"dual-task","null","null","null","","arctic","swim","724.9000000953674","","A","null","88","77","0","arctic-dual-task","","A","uppercase","720000","0","5","d469ee750990cbbd70cf00c4f539f091da13ecff01b1afc571b4a47aefd1fcba","720009.5","724.9000000953674","88","0","arctic","","","","",""
"dual-task","null","null","null","","arctic","swim","1740.2999999523163","","a","null","88","88","1","arctic-dual-task","","a","lowercase","726000","0","5","d469ee750990cbbd70cf00c4f539f091da13ecff01b1afc571b4a47aefd1fcba","726008.2999999523","1740.2999999523163","88","1","arctic","","","","",""
"dual-task","null","null","null","","arctic","swim","1140.7000000476837","","g","null","88","88","1","arctic-dual-task","","g","lowercase","736000","0","5","d469ee750990cbbd70cf00c4f539f091da13ecff01b1afc571b4a47aefd1fcba","736001","1140.7000000476837","88","1","arctic","","","","",""
"dual-task","null","null","null","","arctic","swim","896.0999999046326","","g","null","88","88","1","arctic-dual-task","","g","lowercase","746000","0","5","d469ee750990cbbd70cf00c4f539f091da13ecff01b1afc571b4a47aefd1fcba","746005.2999999523","896.0999999046326","88","1","arctic","","","","",""
"dual-task","null","null","null","","arctic","swim","1185.5999999046326","","G","null","77","77","1","arctic-dual-task","","G","uppercase","758000","0","5","d469ee750990cbbd70cf00c4f539f091da13ecff01b1afc571b4a47aefd1fcba","758003.2000000477","1185.5999999046326","77","1","arctic","","","","",""
"dual-task","null","null","null","","arctic","swim","897.7000000476837","","e","null","88","88","1","arctic-dual-task","","e","lowercase","764000","0","5","d469ee750990cbbd70cf00c4f539f091da13ecff01b1afc571b4a47aefd1fcba","764005.2000000477","897.7000000476837","88","1","arctic","","","","",""
"dual-task","null","null","null","","arctic","swim","906.4000000953674","","T","null","77","77","1","arctic-dual-task","","T","uppercase","774000","0","5","d469ee750990cbbd70cf00c4f539f091da13ecff01b1afc571b4a47aefd1fcba","774002.899999857","906.4000000953674","77","1","arctic","","","","",""
"dual-task","null","null","null","","arctic","swim","923.5","","b","null","88","88","1","arctic-dual-task","","b","lowercase","786000","0","5","d469ee750990cbbd70cf00c4f539f091da13ecff01b1afc571b4a47aefd1fcba","786001.0999999046","923.5","88","1","arctic","","","","",""
"audio-keyboard-response","29","1328564","0.0-6.0-0.0-1.0","d469ee750990cbbd70cf00c4f539f091da13ecff01b1afc571b4a47aefd1fcba","arctic","swim","null","","audio/story_arctic.mp3","","null","","","","","","","","","","","","","","","","","","","",""
"html-button-response","30","1331375","0.0-6.0-0.0-2.0","d469ee750990cbbd70cf00c4f539f091da13ecff01b1afc571b4a47aefd1fcba","arctic","swim","2807","","<p>This concludes the story. Thank you for listening.</p><p>You will now answer some questions about the content of the story.</p>","0","","","","","","","","","","","","","","","","","","","","",""
"survey-multi-choice","31","1339537","0.0-6.0-0.0-3.0-0.0","d469ee750990cbbd70cf00c4f539f091da13ecff01b1afc571b4a47aefd1fcba","arctic","swim","8137","","<b>Which dog on the narrator&#39;s dog team never followed instructions?</b>","","","","1","arctic-comprehension","","","","","","","","","","","","","{""Q0"":""Robert""}","","","",""
"survey-multi-choice","32","1347533","0.0-6.0-0.0-3.0-0.1","d469ee750990cbbd70cf00c4f539f091da13ecff01b1afc571b4a47aefd1fcba","arctic","swim","7725","","<b>How many sponsorships did the narrator receive to support her expedition?</b>","","","","1","arctic-comprehension","","","","","","","","","","","","","{""Q0"":""None""}","","","",""
"survey-multi-choice","33","1357575","0.0-6.0-0.0-3.0-0.2","d469ee750990cbbd70cf00c4f539f091da13ecff01b1afc571b4a47aefd1fcba","arctic","swim","9765","","<b>What were the weather conditions in the Arctic like the winter of the narrator&#39;s expedition?</b>","","","","1","arctic-comprehension","","","","","","","","","","","","","{""Q0"":""There were more storms than any other winter in recorded history.""}","","","",""
"survey-multi-choice","34","1365346","0.0-6.0-0.0-3.0-0.3","d469ee750990cbbd70cf00c4f539f091da13ecff01b1afc571b4a47aefd1fcba","arctic","swim","7506","","<b>How did the narrator prepare for her expedition?</b>","","","","1","arctic-comprehension","","","","","","","","","","","","","{""Q0"":""Trained in Alaska learning how to dogsled""}","","","",""
"survey-multi-choice","35","1375785","0.0-6.0-0.0-3.0-0.4","d469ee750990cbbd70cf00c4f539f091da13ecff01b1afc571b4a47aefd1fcba","arctic","swim","10183","","<b>How did the narrator&#39;s neighbour respond when she told him about her expedition?</b>","","","","1","arctic-comprehension","","","","","","","","","","","","","{""Q0"":""He said she was going to fail.""}","","","",""
"survey-multi-choice","36","1391120","0.0-6.0-0.0-3.0-0.5","d469ee750990cbbd70cf00c4f539f091da13ecff01b1afc571b4a47aefd1fcba","arctic","swim","15076","","<b>What did the narrator do for leisure while in her tent?</b>","","","","1","arctic-comprehension","","","","","","","","","","","","","{""Q0"":""Read""}","","","",""
"survey-multi-choice","37","1397668","0.0-6.0-0.0-3.0-0.6","d469ee750990cbbd70cf00c4f539f091da13ecff01b1afc571b4a47aefd1fcba","arctic","swim","6287","","<b>How did the dogs respond when they saw the bears?</b>","","","","0","arctic-comprehension","","","","","","","","","","","","","{""Q0"":""Barked aggressively""}","","","",""
"survey-multi-choice","38","1403424","0.0-6.0-0.0-3.0-0.7","d469ee750990cbbd70cf00c4f539f091da13ecff01b1afc571b4a47aefd1fcba","arctic","swim","5495","","<b>What was the objective of the narrator&#39;s expedition?</b>","","","","1","arctic-comprehension","","","","","","","","","","","","","{""Q0"":""Dogsled across Arctic America""}","","","",""
"survey-multi-choice","39","1409273","0.0-6.0-0.0-3.0-0.8","d469ee750990cbbd70cf00c4f539f091da13ecff01b1afc571b4a47aefd1fcba","arctic","swim","5594","","<b>How did the narrator&#39;s encounter with the polar bears end?</b>","","","","1","arctic-comprehension","","","","","","","","","","","","","{""Q0"":""The bears walked back to their den.""}","","","",""
"survey-multi-choice","40","1413683","0.0-6.0-0.0-3.0-0.9","d469ee750990cbbd70cf00c4f539f091da13ecff01b1afc571b4a47aefd1fcba","arctic","swim","4153","","<b>What is the name of the narrator&#39;s neighbour?</b>","","","","1","arctic-comprehension","","","","","","","","","","","","","{""Q0"":""Dave""}","","","",""
"html-button-response","41","1456425","0.0-6.0-0.0-4.0","d469ee750990cbbd70cf00c4f539f091da13ecff01b1afc571b4a47aefd1fcba","arctic","swim","42488","","<p>Thank you for your responses.</p><p>You will now answer some questions about your impressions of the story.</p>","0","","","","","","","","","","","","","","","","","","","","",""
"html-button-response","42","1460586","0.0-6.0-0.0-5.0-0.0","d469ee750990cbbd70cf00c4f539f091da13ecff01b1afc571b4a47aefd1fcba","arctic","swim","4159","","A5","4","","","","arctic-engagement","","","","","","","","","","","","","","5","absorption","",""
"html-button-response","43","1465937","0.0-6.0-0.0-5.0-0.1","d469ee750990cbbd70cf00c4f539f091da13ecff01b1afc571b4a47aefd1fcba","arctic","swim","5088","","A1","5","","","","arctic-engagement","","","","","","","","","","","","","","6","absorption","",""
"html-button-response","44","1468305","0.0-6.0-0.0-5.0-0.2","d469ee750990cbbd70cf00c4f539f091da13ecff01b1afc571b4a47aefd1fcba","arctic","swim","2114","","EE4","5","","","","arctic-engagement","","","","","","","","","","","","","","6","emo-engage","",""
"html-button-response","45","1475109","0.0-6.0-0.0-5.0-0.3","d469ee750990cbbd70cf00c4f539f091da13ecff01b1afc571b4a47aefd1fcba","arctic","swim","6548","","EE1","5","","","","arctic-engagement","","","","","","","","","","","","","","6","emo-engage","",""
"html-button-response","46","1477912","0.0-6.0-0.0-5.0-0.4","d469ee750990cbbd70cf00c4f539f091da13ecff01b1afc571b4a47aefd1fcba","arctic","swim","2549","","MS2","5","","","","arctic-engagement","","","","","","","","","","","","","","6","mental-sim","",""
"html-button-response","47","1479923","0.0-6.0-0.0-5.0-0.5","d469ee750990cbbd70cf00c4f539f091da13ecff01b1afc571b4a47aefd1fcba","arctic","swim","1757","","E7","5","","","","arctic-engagement","","","","","","","","","","","","","","6","enjoyment","",""
"html-button-response","48","1481550","0.0-6.0-0.0-5.0-0.6","d469ee750990cbbd70cf00c4f539f091da13ecff01b1afc571b4a47aefd1fcba","arctic","swim","1371","","A2","5","","","","arctic-engagement","","","","","","","","","","","","","","6","absorption","",""
"html-button-response","49","1485229","0.0-6.0-0.0-5.0-0.7","d469ee750990cbbd70cf00c4f539f091da13ecff01b1afc571b4a47aefd1fcba","arctic","swim","3425","","A4","5","","","","arctic-engagement","","","","","","","","","","","","","","6","absorption","",""
"html-button-response","50","1487179","0.0-6.0-0.0-5.0-0.8","d469ee750990cbbd70cf00c4f539f091da13ecff01b1afc571b4a47aefd1fcba","arctic","swim","1693","","MS3","5","","","","arctic-engagement","","","","","","","","","","","","","","6","mental-sim","",""
"html-button-response","51","1488892","0.0-6.0-0.0-5.0-0.9","d469ee750990cbbd70cf00c4f539f091da13ecff01b1afc571b4a47aefd1fcba","arctic","swim","1460","","E10","5","","","","arctic-engagement","","","","","","","","","","","","","","6","enjoyment","",""
"html-button-response","52","1491314","0.0-6.0-0.0-5.0-0.10","d469ee750990cbbd70cf00c4f539f091da13ecff01b1afc571b4a47aefd1fcba","arctic","swim","2170","","MS1","5","","","","arctic-engagement","","","","","","","","","","","","","","6","mental-sim","",""
"html-button-response","53","1492699","0.0-6.0-0.0-5.0-0.11","d469ee750990cbbd70cf00c4f539f091da13ecff01b1afc571b4a47aefd1fcba","arctic","swim","1122","","E1","5","","","","arctic-engagement","","","","","","","","","","","","","","6","enjoyment","",""
"html-button-response","54","1494916","0.0-6.0-0.0-5.0-0.12","d469ee750990cbbd70cf00c4f539f091da13ecff01b1afc571b4a47aefd1fcba","arctic","swim","1962","","E8","6","","","","arctic-engagement","","","","","","","","","","","","","","7","enjoyment","",""
"html-button-response","55","1496586","0.0-6.0-0.0-5.0-0.13","d469ee750990cbbd70cf00c4f539f091da13ecff01b1afc571b4a47aefd1fcba","arctic","swim","1416","","E6","6","","","","arctic-engagement","","","","","","","","","","","","","","7","enjoyment","",""
"html-button-response","56","1498019","0.0-6.0-0.0-5.0-0.14","d469ee750990cbbd70cf00c4f539f091da13ecff01b1afc571b4a47aefd1fcba","arctic","swim","1178","","A3","5","","","","arctic-engagement","","","","","","","","","","","","","","6","absorption","",""
"html-button-response","57","1499581","0.0-6.0-0.0-5.0-0.15","d469ee750990cbbd70cf00c4f539f091da13ecff01b1afc571b4a47aefd1fcba","arctic","swim","1309","","EE5","5","","","","arctic-engagement","","","","","","","","","","","","","","6","emo-engage","",""
"html-button-response","58","1500976","0.0-6.0-0.0-5.0-0.16","d469ee750990cbbd70cf00c4f539f091da13ecff01b1afc571b4a47aefd1fcba","arctic","swim","1142","","EE2","5","","","","arctic-engagement","","","","","","","","","","","","","","6","emo-engage","",""
"html-button-response","59","1502385","0.0-6.0-0.0-5.0-0.17","d469ee750990cbbd70cf00c4f539f091da13ecff01b1afc571b4a47aefd1fcba","arctic","swim","1157","","EE3","5","","","","arctic-engagement","","","","","","","","","","","","","","6","emo-engage","",""
"html-keyboard-response","60","1549601","0.0-6.0-1.0","d469ee750990cbbd70cf00c4f539f091da13ecff01b1afc571b4a47aefd1fcba","arctic","swim","46964","","<p>Thank you for your responses. You will now listen to the second story.</p><p>Remember, as you listen to the story you will see letters appear on the screen.</br>As quickly as possible, press <b>&lt;x&gt;</b> if the letter is lowercase and <b>&lt;m&gt;</b> if the letter is uppercase.</p><p>Press <b>&lt;x&gt;</b> or <b>&lt;m&gt;</b> to begin listening!</p>","","88","","","","","","","","","","","","","","","","","","","",""
"html-keyboard-response","61","1550103","0.0-6.0-2.0-0.0","d469ee750990cbbd70cf00c4f539f091da13ecff01b1afc571b4a47aefd1fcba","arctic","swim","null","","<div style=""font-size:60px;"" tabindex=""0"">+</div>","","null","","","","","","","","","","","","","","","","","","","",""
"dual-task","null","null","null","","arctic","swim","801.4000000953674","","a","null","88","88","1","swim-dual-task","","a","lowercase","16000","0","5","d469ee750990cbbd70cf00c4f539f091da13ecff01b1afc571b4a47aefd1fcba","16012.100000143051","801.4000000953674","88","1","swim","","","","",""
"dual-task","null","null","null","","arctic","swim","906.7000000476837","","n","null","88","88","1","swim-dual-task","","n","lowercase","26000","0","5","d469ee750990cbbd70cf00c4f539f091da13ecff01b1afc571b4a47aefd1fcba","26012.60000014305","906.7000000476837","88","1","swim","","","","",""
"dual-task","null","null","null","","arctic","swim","803.5","","e","null","88","88","1","swim-dual-task","","e","lowercase","38000","0","5","d469ee750990cbbd70cf00c4f539f091da13ecff01b1afc571b4a47aefd1fcba","38009.60000014305","803.5","88","1","swim","","","","",""
"dual-task","null","null","null","","arctic","swim","852.2000000476837","","e","null","88","88","1","swim-dual-task","","e","lowercase","48000","0","5","d469ee750990cbbd70cf00c4f539f091da13ecff01b1afc571b4a47aefd1fcba","48007.799999952316","852.2000000476837","88","1","swim","","","","",""
"dual-task","null","null","null","","arctic","swim","1264.2999999523163","","R","null","77","77","1","swim-dual-task","","R","uppercase","54000","0","5","d469ee750990cbbd70cf00c4f539f091da13ecff01b1afc571b4a47aefd1fcba","54002.799999952316","1264.2999999523163","77","1","swim","","","","",""
"dual-task","null","null","null","","arctic","swim","1022.7000000476837","","q","null","88","88","1","swim-dual-task","","q","lowercase","64000","0","5","d469ee750990cbbd70cf00c4f539f091da13ecff01b1afc571b4a47aefd1fcba","64012.10000014305","1022.7000000476837","88","1","swim","","","","",""
"dual-task","null","null","null","","arctic","swim","1330.5999999046326","","n","null","88","88","1","swim-dual-task","","n","lowercase","74000","0","5","d469ee750990cbbd70cf00c4f539f091da13ecff01b1afc571b4a47aefd1fcba","74008","1330.5999999046326","88","1","swim","","","","",""
"dual-task","null","null","null","","arctic","swim","697.1999998092651","","h","null","88","88","1","swim-dual-task","","h","lowercase","80000","0","5","d469ee750990cbbd70cf00c4f539f091da13ecff01b1afc571b4a47aefd1fcba","80012.90000009537","697.1999998092651","88","1","swim","","","","",""
"dual-task","null","null","null","","arctic","swim","900.2999999523163","","G","null","77","77","1","swim-dual-task","","G","uppercase","92000","0","5","d469ee750990cbbd70cf00c4f539f091da13ecff01b1afc571b4a47aefd1fcba","92002.79999995232","900.2999999523163","77","1","swim","","","","",""
"dual-task","null","null","null","","arctic","swim","NA","","A","null","NA","77","0","swim-dual-task","","A","uppercase","104000","1","5","d469ee750990cbbd70cf00c4f539f091da13ecff01b1afc571b4a47aefd1fcba","104013.29999995232","NA","NA","0","swim","","","","",""
"dual-task","null","null","null","","arctic","swim","NA","","d","null","NA","88","0","swim-dual-task","","d","lowercase","112000","1","5","d469ee750990cbbd70cf00c4f539f091da13ecff01b1afc571b4a47aefd1fcba","112009.90000009537","NA","NA","0","swim","","","","",""
"dual-task","null","null","null","","arctic","swim","1084.4000000953674","","d","null","88","88","1","swim-dual-task","","d","lowercase","126000","0","5","d469ee750990cbbd70cf00c4f539f091da13ecff01b1afc571b4a47aefd1fcba","126006.70000004768","1084.4000000953674","88","1","swim","","","","",""
"dual-task","null","null","null","","arctic","swim","1284.5999999046326","","F","null","77","77","1","swim-dual-task","","F","uppercase","138000","0","5","d469ee750990cbbd70cf00c4f539f091da13ecff01b1afc571b4a47aefd1fcba","138004.20000004768","1284.5999999046326","77","1","swim","","","","",""
"dual-task","null","null","null","","arctic","swim","839","","G","null","77","77","1","swim-dual-task","","G","uppercase","144000","0","5","d469ee750990cbbd70cf00c4f539f091da13ecff01b1afc571b4a47aefd1fcba","144002.40000009537","839","77","1","swim","","","","",""
"dual-task","null","null","null","","arctic","swim","751.7000000476837","","f","null","88","88","1","swim-dual-task","","f","lowercase","156000","0","5","d469ee750990cbbd70cf00c4f539f091da13ecff01b1afc571b4a47aefd1fcba","156004.10000014305","751.7000000476837","88","1","swim","","","","",""
"dual-task","null","null","null","","arctic","swim","1295.2999999523163","","T","null","77","77","1","swim-dual-task","","T","uppercase","168000","0","5","d469ee750990cbbd70cf00c4f539f091da13ecff01b1afc571b4a47aefd1fcba","168011.10000014305","1295.2999999523163","77","1","swim","","","","",""
"dual-task","null","null","null","","arctic","swim","1240.9000000953674","","a","null","88","88","1","swim-dual-task","","a","lowercase","178000","0","5","d469ee750990cbbd70cf00c4f539f091da13ecff01b1afc571b4a47aefd1fcba","178001.90000009537","1240.9000000953674","88","1","swim","","","","",""
"dual-task","null","null","null","","arctic","swim","1098.0999999046326","","E","null","77","77","1","swim-dual-task","","E","uppercase","186000","0","5","d469ee750990cbbd70cf00c4f539f091da13ecff01b1afc571b4a47aefd1fcba","186014.70000004768","1098.0999999046326","77","1","swim","","","","",""
"dual-task","null","null","null","","arctic","swim","987.7999999523163","","A","null","77","77","1","swim-dual-task","","A","uppercase","194000","0","5","d469ee750990cbbd70cf00c4f539f091da13ecff01b1afc571b4a47aefd1fcba","194010.10000014305","987.7999999523163","77","1","swim","","","","",""
"dual-task","null","null","null","","arctic","swim","1063.1999998092651","","R","null","77","77","1","swim-dual-task","","R","uppercase","204000","0","5","d469ee750990cbbd70cf00c4f539f091da13ecff01b1afc571b4a47aefd1fcba","204010.60000014305","1063.1999998092651","77","1","swim","","","","",""
"dual-task","null","null","null","","arctic","swim","1017.5999999046326","","E","null","77","77","1","swim-dual-task","","E","uppercase","212000","0","5","d469ee750990cbbd70cf00c4f539f091da13ecff01b1afc571b4a47aefd1fcba","211998.79999995232","1017.5999999046326","77","1","swim","","","","",""
"dual-task","null","null","null","","arctic","swim","1107","","d","null","88","88","1","swim-dual-task","","d","lowercase","224000","0","5","d469ee750990cbbd70cf00c4f539f091da13ecff01b1afc571b4a47aefd1fcba","223999.79999995232","1107","88","1","swim","","","","",""
"dual-task","null","null","null","","arctic","swim","1302.4000000953674","","b","null","88","88","1","swim-dual-task","","b","lowercase","236000","0","5","d469ee750990cbbd70cf00c4f539f091da13ecff01b1afc571b4a47aefd1fcba","235998.79999995232","1302.4000000953674","88","1","swim","","","","",""
"dual-task","null","null","null","","arctic","swim","858.2000000476837","","f","null","88","88","1","swim-dual-task","","f","lowercase","248000","0","5","d469ee750990cbbd70cf00c4f539f091da13ecff01b1afc571b4a47aefd1fcba","248007.79999995232","858.2000000476837","88","1","swim","","","","",""
"dual-task","null","null","null","","arctic","swim","888.2999999523163","","r","null","88","88","1","swim-dual-task","","r","lowercase","254000","0","5","d469ee750990cbbd70cf00c4f539f091da13ecff01b1afc571b4a47aefd1fcba","254002.79999995232","888.2999999523163","88","1","swim","","","","",""
"dual-task","null","null","null","","arctic","swim","820.4000000953674","","Q","null","77","77","1","swim-dual-task","","Q","uppercase","266000","0","5","d469ee750990cbbd70cf00c4f539f091da13ecff01b1afc571b4a47aefd1fcba","266006.10000014305","820.4000000953674","77","1","swim","","","","",""
"dual-task","null","null","null","","arctic","swim","1116.9000000953674","","F","null","77","77","1","swim-dual-task","","F","uppercase","276000","0","5","d469ee750990cbbd70cf00c4f539f091da13ecff01b1afc571b4a47aefd1fcba","276004.2000000477","1116.9000000953674","77","1","swim","","","","",""
"dual-task","null","null","null","","arctic","swim","927.2999999523163","","B","null","77","77","1","swim-dual-task","","B","uppercase","290000","0","5","d469ee750990cbbd70cf00c4f539f091da13ecff01b1afc571b4a47aefd1fcba","290009.10000014305","927.2999999523163","77","1","swim","","","","",""
"dual-task","null","null","null","","arctic","swim","1379.2999999523163","","e","null","88","88","1","swim-dual-task","","e","lowercase","298000","0","5","d469ee750990cbbd70cf00c4f539f091da13ecff01b1afc571b4a47aefd1fcba","298016.60000014305","1379.2999999523163","88","1","swim","","","","",""
"dual-task","null","null","null","","arctic","swim","866","","t","null","88","88","1","swim-dual-task","","t","lowercase","308000","0","5","d469ee750990cbbd70cf00c4f539f091da13ecff01b1afc571b4a47aefd1fcba","308001.10000014305","866","88","1","swim","","","","",""
"dual-task","null","null","null","","arctic","swim","1329.7000000476837","","F","null","77","77","1","swim-dual-task","","F","uppercase","320000","0","5","d469ee750990cbbd70cf00c4f539f091da13ecff01b1afc571b4a47aefd1fcba","319999.7000000477","1329.7000000476837","77","1","swim","","","","",""
"dual-task","null","null","null","","arctic","swim","1324.7999999523163","","h","null","88","88","1","swim-dual-task","","h","lowercase","332000","0","5","d469ee750990cbbd70cf00c4f539f091da13ecff01b1afc571b4a47aefd1fcba","332011.40000009537","1324.7999999523163","88","1","swim","","","","",""
"dual-task","null","null","null","","arctic","swim","1152.6000001430511","","h","null","88","88","1","swim-dual-task","","h","lowercase","342000","0","5","d469ee750990cbbd70cf00c4f539f091da13ecff01b1afc571b4a47aefd1fcba","342000.2000000477","1152.6000001430511","88","1","swim","","","","",""
"dual-task","null","null","null","","arctic","swim","1207.0999999046326","","n","null","88","88","1","swim-dual-task","","n","lowercase","354000","0","5","d469ee750990cbbd70cf00c4f539f091da13ecff01b1afc571b4a47aefd1fcba","354009.10000014305","1207.0999999046326","88","1","swim","","","","",""
"dual-task","null","null","null","","arctic","swim","1255.6000001430511","","E","null","77","77","1","swim-dual-task","","E","uppercase","362000","0","5","d469ee750990cbbd70cf00c4f539f091da13ecff01b1afc571b4a47aefd1fcba","362006.10000014305","1255.6000001430511","77","1","swim","","","","",""
"dual-task","null","null","null","","arctic","swim","1092.2999999523163","","G","null","77","77","1","swim-dual-task","","G","uppercase","370000","0","5","d469ee750990cbbd70cf00c4f539f091da13ecff01b1afc571b4a47aefd1fcba","370011.2999999523","1092.2999999523163","77","1","swim","","","","",""
"dual-task","null","null","null","","arctic","swim","1248.5","","H","null","77","77","1","swim-dual-task","","H","uppercase","380000","0","5","d469ee750990cbbd70cf00c4f539f091da13ecff01b1afc571b4a47aefd1fcba","380012.2999999523","1248.5","77","1","swim","","","","",""
"dual-task","null","null","null","","arctic","swim","867.8999998569489","","a","null","88","88","1","swim-dual-task","","a","lowercase","388000","0","5","d469ee750990cbbd70cf00c4f539f091da13ecff01b1afc571b4a47aefd1fcba","388002.2000000477","867.8999998569489","88","1","swim","","","","",""
"dual-task","null","null","null","","arctic","swim","1045.8999998569489","","N","null","77","77","1","swim-dual-task","","N","uppercase","402000","0","5","d469ee750990cbbd70cf00c4f539f091da13ecff01b1afc571b4a47aefd1fcba","402000.2999999523","1045.8999998569489","77","1","swim","","","","",""
"dual-task","null","null","null","","arctic","swim","1006.5999999046326","","F","null","77","77","1","swim-dual-task","","F","uppercase","412000","0","5","d469ee750990cbbd70cf00c4f539f091da13ecff01b1afc571b4a47aefd1fcba","412015.10000014305","1006.5999999046326","77","1","swim","","","","",""
"dual-task","null","null","null","","arctic","swim","841.5","","h","null","88","88","1","swim-dual-task","","h","lowercase","422000","0","5","d469ee750990cbbd70cf00c4f539f091da13ecff01b1afc571b4a47aefd1fcba","422014.7999999523","841.5","88","1","swim","","","","",""
"dual-task","null","null","null","","arctic","swim","891.3999998569489","","t","null","88","88","1","swim-dual-task","","t","lowercase","432000","0","5","d469ee750990cbbd70cf00c4f539f091da13ecff01b1afc571b4a47aefd1fcba","432006.7999999523","891.3999998569489","88","1","swim","","","","",""
"dual-task","null","null","null","","arctic","swim","992.7999999523163","","Q","null","77","77","1","swim-dual-task","","Q","uppercase","444000","0","5","d469ee750990cbbd70cf00c4f539f091da13ecff01b1afc571b4a47aefd1fcba","443999.7999999523","992.7999999523163","77","1","swim","","","","",""
"dual-task","null","null","null","","arctic","swim","871.7999999523163","","b","null","88","88","1","swim-dual-task","","b","lowercase","450000","0","5","d469ee750990cbbd70cf00c4f539f091da13ecff01b1afc571b4a47aefd1fcba","450002.7999999523","871.7999999523163","88","1","swim","","","","",""
"dual-task","null","null","null","","arctic","swim","1093","","g","null","88","88","1","swim-dual-task","","g","lowercase","464000","0","5","d469ee750990cbbd70cf00c4f539f091da13ecff01b1afc571b4a47aefd1fcba","464004.10000014305","1093","88","1","swim","","","","",""
"dual-task","null","null","null","","arctic","swim","734.9000000953674","","f","null","88","88","1","swim-dual-task","","f","lowercase","470000","0","5","d469ee750990cbbd70cf00c4f539f091da13ecff01b1afc571b4a47aefd1fcba","470001.7000000477","734.9000000953674","88","1","swim","","","","",""
"dual-task","null","null","null","","arctic","swim","887","","e","null","88","88","1","swim-dual-task","","e","lowercase","482000","0","5","d469ee750990cbbd70cf00c4f539f091da13ecff01b1afc571b4a47aefd1fcba","482009.90000009537","887","88","1","swim","","","","",""
"dual-task","null","null","null","","arctic","swim","1416.3999998569489","","T","null","88","77","0","swim-dual-task","","T","uppercase","490000","0","5","d469ee750990cbbd70cf00c4f539f091da13ecff01b1afc571b4a47aefd1fcba","490006.10000014305","1416.3999998569489","88","0","swim","","","","",""
"dual-task","null","null","null","","arctic","swim","1591.7000000476837","","A","null","77","77","1","swim-dual-task","","A","uppercase","500000","0","5","d469ee750990cbbd70cf00c4f539f091da13ecff01b1afc571b4a47aefd1fcba","500013.90000009537","1591.7000000476837","77","1","swim","","","","",""
"dual-task","null","null","null","","arctic","swim","NA","","r","null","NA","88","0","swim-dual-task","","r","lowercase","506000","1","5","d469ee750990cbbd70cf00c4f539f091da13ecff01b1afc571b4a47aefd1fcba","506007.5","NA","NA","0","swim","","","","",""
"dual-task","null","null","null","","arctic","swim","854.2000000476837","","g","null","88","88","1","swim-dual-task","","g","lowercase","516000","0","5","d469ee750990cbbd70cf00c4f539f091da13ecff01b1afc571b4a47aefd1fcba","516006.10000014305","854.2000000476837","88","1","swim","","","","",""
"dual-task","null","null","null","","arctic","swim","747.6999998092651","","A","null","77","77","1","swim-dual-task","","A","uppercase","530000","0","5","d469ee750990cbbd70cf00c4f539f091da13ecff01b1afc571b4a47aefd1fcba","530005.2999999523","747.6999998092651","77","1","swim","","","","",""
"dual-task","null","null","null","","arctic","swim","734","","H","null","77","77","1","swim-dual-task","","H","uppercase","542000","0","5","d469ee750990cbbd70cf00c4f539f091da13ecff01b1afc571b4a47aefd1fcba","542004.4000000954","734","77","1","swim","","","","",""
"dual-task","null","null","null","","arctic","swim","777.2999999523163","","f","null","77","88","0","swim-dual-task","","f","lowercase","552000","0","5","d469ee750990cbbd70cf00c4f539f091da13ecff01b1afc571b4a47aefd1fcba","552005.600000143","777.2999999523163","77","0","swim","","","","",""
"dual-task","null","null","null","","arctic","swim","861.8999998569489","","R","null","77","77","1","swim-dual-task","","R","uppercase","564000","0","5","d469ee750990cbbd70cf00c4f539f091da13ecff01b1afc571b4a47aefd1fcba","564006.5","861.8999998569489","77","1","swim","","","","",""
"dual-task","null","null","null","","arctic","swim","NA","","N","null","NA","77","0","swim-dual-task","","N","uppercase","572000","1","5","d469ee750990cbbd70cf00c4f539f091da13ecff01b1afc571b4a47aefd1fcba","572012.9000000954","NA","NA","0","swim","","","","",""
"dual-task","null","null","null","","arctic","swim","749.7000000476837","","b","null","88","88","1","swim-dual-task","","b","lowercase","586000","0","5","d469ee750990cbbd70cf00c4f539f091da13ecff01b1afc571b4a47aefd1fcba","586006.4000000954","749.7000000476837","88","1","swim","","","","",""
"dual-task","null","null","null","","arctic","swim","788.2000000476837","","T","null","77","77","1","swim-dual-task","","T","uppercase","598000","0","5","d469ee750990cbbd70cf00c4f539f091da13ecff01b1afc571b4a47aefd1fcba","598014.600000143","788.2000000476837","77","1","swim","","","","",""
"dual-task","null","null","null","","arctic","swim","737.5999999046326","","H","null","77","77","1","swim-dual-task","","H","uppercase","610000","0","5","d469ee750990cbbd70cf00c4f539f091da13ecff01b1afc571b4a47aefd1fcba","610015.2999999523","737.5999999046326","77","1","swim","","","","",""
"dual-task","null","null","null","","arctic","swim","1500.7000000476837","","q","null","88","88","1","swim-dual-task","","q","lowercase","616000","0","5","d469ee750990cbbd70cf00c4f539f091da13ecff01b1afc571b4a47aefd1fcba","616002","1500.7000000476837","88","1","swim","","","","",""
"dual-task","null","null","null","","arctic","swim","814.7000000476837","","g","null","88","88","1","swim-dual-task","","g","lowercase","630000","0","5","d469ee750990cbbd70cf00c4f539f091da13ecff01b1afc571b4a47aefd1fcba","630007.9000000954","814.7000000476837","88","1","swim","","","","",""
"dual-task","null","null","null","","arctic","swim","1127","","D","null","77","77","1","swim-dual-task","","D","uppercase","642000","0","5","d469ee750990cbbd70cf00c4f539f091da13ecff01b1afc571b4a47aefd1fcba","642009","1127","77","1","swim","","","","",""
"dual-task","null","null","null","","arctic","swim","1128.6999998092651","","N","null","77","77","1","swim-dual-task","","N","uppercase","650000","0","5","d469ee750990cbbd70cf00c4f539f091da13ecff01b1afc571b4a47aefd1fcba","650005.7000000477","1128.6999998092651","77","1","swim","","","","",""
"dual-task","null","null","null","","arctic","swim","NA","","b","null","NA","88","0","swim-dual-task","","b","lowercase","658000","1","5","d469ee750990cbbd70cf00c4f539f091da13ecff01b1afc571b4a47aefd1fcba","658012.5","NA","NA","0","swim","","","","",""
"dual-task","null","null","null","","arctic","swim","748.7999999523163","","n","null","88","88","1","swim-dual-task","","n","lowercase","666000","0","5","d469ee750990cbbd70cf00c4f539f091da13ecff01b1afc571b4a47aefd1fcba","666004.4000000954","748.7999999523163","88","1","swim","","","","",""
"dual-task","null","null","null","","arctic","swim","1214","","t","null","88","88","1","swim-dual-task","","t","lowercase","674000","0","5","d469ee750990cbbd70cf00c4f539f091da13ecff01b1afc571b4a47aefd1fcba","674001.4000000954","1214","88","1","swim","","","","",""
"dual-task","null","null","null","","arctic","swim","832.0999999046326","","B","null","77","77","1","swim-dual-task","","B","uppercase","684000","0","5","d469ee750990cbbd70cf00c4f539f091da13ecff01b1afc571b4a47aefd1fcba","684010.100000143","832.0999999046326","77","1","swim","","","","",""
"dual-task","null","null","null","","arctic","swim","811.8000001907349","","T","null","77","77","1","swim-dual-task","","T","uppercase","696000","0","5","d469ee750990cbbd70cf00c4f539f091da13ecff01b1afc571b4a47aefd1fcba","696001.7999999523","811.8000001907349","77","1","swim","","","","",""
"dual-task","null","null","null","","arctic","swim","868.3999998569489","","g","null","88","88","1","swim-dual-task","","g","lowercase","702000","0","5","d469ee750990cbbd70cf00c4f539f091da13ecff01b1afc571b4a47aefd1fcba","702015.7999999523","868.3999998569489","88","1","swim","","","","",""
"dual-task","null","null","null","","arctic","swim","744.3999998569489","","t","null","88","88","1","swim-dual-task","","t","lowercase","716000","0","5","d469ee750990cbbd70cf00c4f539f091da13ecff01b1afc571b4a47aefd1fcba","716004.100000143","744.3999998569489","88","1","swim","","","","",""
"dual-task","null","null","null","","arctic","swim","950.9000000953674","","D","null","77","77","1","swim-dual-task","","D","uppercase","726000","0","5","d469ee750990cbbd70cf00c4f539f091da13ecff01b1afc571b4a47aefd1fcba","726014.2999999523","950.9000000953674","77","1","swim","","","","",""
"dual-task","null","null","null","","arctic","swim","806.2999999523163","","H","null","77","77","1","swim-dual-task","","H","uppercase","732000","0","5","d469ee750990cbbd70cf00c4f539f091da13ecff01b1afc571b4a47aefd1fcba","732004","806.2999999523163","77","1","swim","","","","",""
"dual-task","null","null","null","","arctic","swim","913.1000001430511","","R","null","77","77","1","swim-dual-task","","R","uppercase","740000","0","5","d469ee750990cbbd70cf00c4f539f091da13ecff01b1afc571b4a47aefd1fcba","740015","913.1000001430511","77","1","swim","","","","",""
"dual-task","null","null","null","","arctic","swim","960.3999998569489","","Q","null","77","77","1","swim-dual-task","","Q","uppercase","752000","0","5","d469ee750990cbbd70cf00c4f539f091da13ecff01b1afc571b4a47aefd1fcba","752015.7999999523","960.3999998569489","77","1","swim","","","","",""
"dual-task","null","null","null","","arctic","swim","845.5999999046326","","D","null","77","77","1","swim-dual-task","","D","uppercase","764000","0","5","d469ee750990cbbd70cf00c4f539f091da13ecff01b1afc571b4a47aefd1fcba","764005.4000000954","845.5999999046326","77","1","swim","","","","",""
"dual-task","null","null","null","","arctic","swim","1249.5","","B","null","77","77","1","swim-dual-task","","B","uppercase","776000","0","5","d469ee750990cbbd70cf00c4f539f091da13ecff01b1afc571b4a47aefd1fcba","776007.4000000954","1249.5","77","1","swim","","","","",""
"dual-task","null","null","null","","arctic","swim","1000.5","","D","null","77","77","1","swim-dual-task","","D","uppercase","786000","0","5","d469ee750990cbbd70cf00c4f539f091da13ecff01b1afc571b4a47aefd1fcba","786012","1000.5","77","1","swim","","","","",""
"dual-task","null","null","null","","arctic","swim","878.3999998569489","","q","null","88","88","1","swim-dual-task","","q","lowercase","798000","0","5","d469ee750990cbbd70cf00c4f539f091da13ecff01b1afc571b4a47aefd1fcba","798015.600000143","878.3999998569489","88","1","swim","","","","",""
"audio-keyboard-response","62","2362165","0.0-6.0-2.0-1.0","d469ee750990cbbd70cf00c4f539f091da13ecff01b1afc571b4a47aefd1fcba","arctic","swim","null","","audio/story_swim_scrambled.mp3","","null","","","","","","","","","","","","","","","","","","","",""
"html-button-response","63","2364501","0.0-6.0-2.0-2.0","d469ee750990cbbd70cf00c4f539f091da13ecff01b1afc571b4a47aefd1fcba","arctic","swim","2332","","<p>This concludes the story. Thank you for listening.</p><p>You will now answer some questions about the content of the story.</p>","0","","","","","","","","","","","","","","","","","","","","",""
"survey-multi-choice","64","2372431","0.0-6.0-2.0-3.0-0.0","d469ee750990cbbd70cf00c4f539f091da13ecff01b1afc571b4a47aefd1fcba","arctic","swim","7903","","<b>How many times did the astronaut candidates have to complete the final exercise to pass?</b>","","","","1","swim-comprehension","","","","","","","","","","","","","{""Q0"":""Two""}","","","",""
"survey-multi-choice","65","2383893","0.0-6.0-2.0-3.0-0.1","d469ee750990cbbd70cf00c4f539f091da13ecff01b1afc571b4a47aefd1fcba","arctic","swim","11192","","<b>What were the astronaut candidates trained to do at the naval air station?</b>","","","","1","swim-comprehension","","","","","","","","","","","","","{""Q0"":""Eject out of aircraft and survive in water long enough to be rescued""}","","","",""
"survey-multi-choice","66","2390083","0.0-6.0-2.0-3.0-0.2","d469ee750990cbbd70cf00c4f539f091da13ecff01b1afc571b4a47aefd1fcba","arctic","swim","5915","","<b>How did the narrator train for his swim test?</b>","","","","1","swim-comprehension","","","","","","","","","","","","","{""Q0"":""Took his kids to the pool every day""}","","","",""
"survey-multi-choice","67","2405048","0.0-6.0-2.0-3.0-0.3","d469ee750990cbbd70cf00c4f539f091da13ecff01b1afc571b4a47aefd1fcba","arctic","swim","14692","","<b>What gave the narrator his greatest feeling of accomplishment?</b>","","","","0","swim-comprehension","","","","","","","","","","","","","{""Q0"":""Completing his PhD at MIT""}","","","",""
"survey-multi-choice","68","2409868","0.0-6.0-2.0-3.0-0.4","d469ee750990cbbd70cf00c4f539f091da13ecff01b1afc571b4a47aefd1fcba","arctic","swim","4550","","<b>Where is the home of naval aviation?</b>","","","","1","swim-comprehension","","","","","","","","","","","","","{""Q0"":""Pensacola""}","","","",""
"survey-multi-choice","69","2414096","0.0-6.0-2.0-3.0-0.5","d469ee750990cbbd70cf00c4f539f091da13ecff01b1afc571b4a47aefd1fcba","arctic","swim","3963","","<b>What is the narrator afraid of, aside from the water?</b>","","","","1","swim-comprehension","","","","","","","","","","","","","{""Q0"":""Heights""}","","","",""
"survey-multi-choice","70","2422612","0.0-6.0-2.0-3.0-0.6","d469ee750990cbbd70cf00c4f539f091da13ecff01b1afc571b4a47aefd1fcba","arctic","swim","8246","","<b>What was the final step of the first swim test in the pool?</b>","","","","1","swim-comprehension","","","","","","","","","","","","","{""Q0"":""Tread water with hands above the water""}","","","",""
"survey-multi-choice","71","2426968","0.0-6.0-2.0-3.0-0.7","d469ee750990cbbd70cf00c4f539f091da13ecff01b1afc571b4a47aefd1fcba","arctic","swim","4074","","<b>How many astronaut candidates reported for duty at the Johnson Space Center?</b>","","","","1","swim-comprehension","","","","","","","","","","","","","{""Q0"":""Forty-four""}","","","",""
"survey-multi-choice","72","2444602","0.0-6.0-2.0-3.0-0.8","d469ee750990cbbd70cf00c4f539f091da13ecff01b1afc571b4a47aefd1fcba","arctic","swim","17381","","<b>How many astronaut candidates passed the first swim test?</b>","","","","1","swim-comprehension","","","","","","","","","","","","","{""Q0"":""All of them""}","","","",""
"survey-multi-choice","73","2458688","0.0-6.0-2.0-3.0-0.9","d469ee750990cbbd70cf00c4f539f091da13ecff01b1afc571b4a47aefd1fcba","arctic","swim","13831","","<b>How often does the narrator swim, now that he is a good swimmer?</b>","","","","0","swim-comprehension","","","","","","","","","","","","","{""Q0"":""Every weekend with his kids""}","","","",""
"html-button-response","74","2460421","0.0-6.0-2.0-4.0","d469ee750990cbbd70cf00c4f539f091da13ecff01b1afc571b4a47aefd1fcba","arctic","swim","1480","","<p>Thank you for your responses.</p><p>You will now answer some questions about your impressions of the story.</p>","0","","","","","","","","","","","","","","","","","","","","",""
"html-button-response","75","2463008","0.0-6.0-2.0-5.0-0.0","d469ee750990cbbd70cf00c4f539f091da13ecff01b1afc571b4a47aefd1fcba","arctic","swim","2585","","A4","3","","","","swim-engagement","","","","","","","","","","","","","","4","absorption","",""
"html-button-response","76","2465608","0.0-6.0-2.0-5.0-0.1","d469ee750990cbbd70cf00c4f539f091da13ecff01b1afc571b4a47aefd1fcba","arctic","swim","2346","","A1","3","","","","swim-engagement","","","","","","","","","","","","","","4","absorption","",""
"html-button-response","77","2468370","0.0-6.0-2.0-5.0-0.2","d469ee750990cbbd70cf00c4f539f091da13ecff01b1afc571b4a47aefd1fcba","arctic","swim","2509","","EE1","4","","","","swim-engagement","","","","","","","","","","","","","","5","emo-engage","",""
"html-button-response","78","2470704","0.0-6.0-2.0-5.0-0.3","d469ee750990cbbd70cf00c4f539f091da13ecff01b1afc571b4a47aefd1fcba","arctic","swim","2080","","MS2","4","","","","swim-engagement","","","","","","","","","","","","","","5","mental-sim","",""
"html-button-response","79","2472784","0.0-6.0-2.0-5.0-0.4","d469ee750990cbbd70cf00c4f539f091da13ecff01b1afc571b4a47aefd1fcba","arctic","swim","1827","","E8","4","","","","swim-engagement","","","","","","","","","","","","","","5","enjoyment","",""
"html-button-response","80","2474087","0.0-6.0-2.0-5.0-0.5","d469ee750990cbbd70cf00c4f539f091da13ecff01b1afc571b4a47aefd1fcba","arctic","swim","1049","","E10","4","","","","swim-engagement","","","","","","","","","","","","","","5","enjoyment","",""
"html-button-response","81","2476159","0.0-6.0-2.0-5.0-0.6","d469ee750990cbbd70cf00c4f539f091da13ecff01b1afc571b4a47aefd1fcba","arctic","swim","1818","","EE4","4","","","","swim-engagement","","","","","","","","","","","","","","5","emo-engage","",""
"html-button-response","82","2478552","0.0-6.0-2.0-5.0-0.7","d469ee750990cbbd70cf00c4f539f091da13ecff01b1afc571b4a47aefd1fcba","arctic","swim","2138","","E7","3","","","","swim-engagement","","","","","","","","","","","","","","4","enjoyment","",""
"html-button-response","83","2481372","0.0-6.0-2.0-5.0-0.8","d469ee750990cbbd70cf00c4f539f091da13ecff01b1afc571b4a47aefd1fcba","arctic","swim","2565","","EE2","2","","","","swim-engagement","","","","","","","","","","","","","","3","emo-engage","",""
"html-button-response","84","2483832","0.0-6.0-2.0-5.0-0.9","d469ee750990cbbd70cf00c4f539f091da13ecff01b1afc571b4a47aefd1fcba","arctic","swim","2207","","EE5","2","","","","swim-engagement","","","","","","","","","","","","","","3","emo-engage","",""
"html-button-response","85","2487931","0.0-6.0-2.0-5.0-0.10","d469ee750990cbbd70cf00c4f539f091da13ecff01b1afc571b4a47aefd1fcba","arctic","swim","3840","","A2","4","","","","swim-engagement","","","","","","","","","","","","","","5","absorption","",""
"html-button-response","86","2490016","0.0-6.0-2.0-5.0-0.11","d469ee750990cbbd70cf00c4f539f091da13ecff01b1afc571b4a47aefd1fcba","arctic","swim","1830","","E6","3","","","","swim-engagement","","","","","","","","","","","","","","4","enjoyment","",""
"html-button-response","87","2493221","0.0-6.0-2.0-5.0-0.12","d469ee750990cbbd70cf00c4f539f091da13ecff01b1afc571b4a47aefd1fcba","arctic","swim","2950","","MS1","4","","","","swim-engagement","","","","","","","","","","","","","","5","mental-sim","",""
"html-button-response","88","2495922","0.0-6.0-2.0-5.0-0.13","d469ee750990cbbd70cf00c4f539f091da13ecff01b1afc571b4a47aefd1fcba","arctic","swim","2447","","A5","2","","","","swim-engagement","","","","","","","","","","","","","","3","absorption","",""
"html-button-response","89","2498652","0.0-6.0-2.0-5.0-0.14","d469ee750990cbbd70cf00c4f539f091da13ecff01b1afc571b4a47aefd1fcba","arctic","swim","2477","","EE3","4","","","","swim-engagement","","","","","","","","","","","","","","5","emo-engage","",""
"html-button-response","90","2500942","0.0-6.0-2.0-5.0-0.15","d469ee750990cbbd70cf00c4f539f091da13ecff01b1afc571b4a47aefd1fcba","arctic","swim","2037","","E1","4","","","","swim-engagement","","","","","","","","","","","","","","5","enjoyment","",""
"html-button-response","91","2503019","0.0-6.0-2.0-5.0-0.16","d469ee750990cbbd70cf00c4f539f091da13ecff01b1afc571b4a47aefd1fcba","arctic","swim","1822","","A3","3","","","","swim-engagement","","","","","","","","","","","","","","4","absorption","",""
"html-button-response","92","2505913","0.0-6.0-2.0-5.0-0.17","d469ee750990cbbd70cf00c4f539f091da13ecff01b1afc571b4a47aefd1fcba","arctic","swim","2641","","MS3","4","","","","swim-engagement","","","","","","","","","","","","","","5","mental-sim","",""
"html-button-response","93","2508067","0.0-8.0","d469ee750990cbbd70cf00c4f539f091da13ecff01b1afc571b4a47aefd1fcba","arctic","swim","1903","","<p>Thank you for your responses.</p><p>You will now answer some demographic, hearing, and general health questions.</p>","0","","","","","","","","","","","","","","","","","","","","",""
"survey-multi-choice","94","2512244","0.0-9.0-0.0","d469ee750990cbbd70cf00c4f539f091da13ecff01b1afc571b4a47aefd1fcba","arctic","swim","4173","","","","","","","survey","","","","","","","","","","","","","{""Q0"":""Chrome""}","","","browser",""
"survey-text","95","2516760","0.0-9.0-1.0","d469ee750990cbbd70cf00c4f539f091da13ecff01b1afc571b4a47aefd1fcba","arctic","swim","4233.699999809265","","","","","","","survey","","","","","","","","","","","","","{""AGE"":""28""}","","","age","28"
"survey-multi-choice","96","2519858","0.0-9.0-2.0","d469ee750990cbbd70cf00c4f539f091da13ecff01b1afc571b4a47aefd1fcba","arctic","swim","2836","","","","","","","survey","","","","","","","","","","","","","{""Q0"":""Female""}","","","gender","Female"
"survey-multi-choice","97","2523046","0.0-9.0-4.0","d469ee750990cbbd70cf00c4f539f091da13ecff01b1afc571b4a47aefd1fcba","arctic","swim","2931","","","","","","","survey","","","","","","","","","","","","","{""Q0"":""Right""}","","","handedness","Right"
"survey-multi-choice","98","2526204","0.0-9.0-5.0","d469ee750990cbbd70cf00c4f539f091da13ecff01b1afc571b4a47aefd1fcba","arctic","swim","2864","","","","","","","survey","","","","","","","","","","","","","{""Q0"":""Bachelor's Degree""}","","","education","Bachelor's Degree"
"survey-text","99","2530488","0.0-10.0-0.0","d469ee750990cbbd70cf00c4f539f091da13ecff01b1afc571b4a47aefd1fcba","arctic","swim","4027.7000000476837","","","","","","","survey","","","","","","","","","","","","","{""L1"":""english""}","","","first-language","english"
"survey-text","100","2546174","0.0-10.0-1.0","d469ee750990cbbd70cf00c4f539f091da13ecff01b1afc571b4a47aefd1fcba","arctic","swim","15423.399999856949","","","","","","","survey","","","","","","","","","","","","","{""L2name"":""french"",""L2fluency"":""4"",""L3name"":"""",""L3fluency"":"""",""L4name"":"""",""L4fluency"":""""}","","","additional-languages","{""L2name"":""french"",""L2fluency"":""4"",""L3name"":"""",""L3fluency"":"""",""L4name"":"""",""L4fluency"":""""}"
"survey-multi-choice","101","2550455","0.0-10.0-2.0","d469ee750990cbbd70cf00c4f539f091da13ecff01b1afc571b4a47aefd1fcba","arctic","swim","4020","","","","","","","survey","","","","","","","","","","","","","{""Q0"":""No""}","","","hearing-aid","No"
"survey-multi-choice","102","2554470","0.0-10.0-3.0","d469ee750990cbbd70cf00c4f539f091da13ecff01b1afc571b4a47aefd1fcba","arctic","swim","3760","","","","","","","survey","","","","","","","","","","","","","{""Q0"":""Never""}","","","ringing-ears","Never"
"survey-multi-choice","103","2557511","0.0-10.0-5.0","d469ee750990cbbd70cf00c4f539f091da13ecff01b1afc571b4a47aefd1fcba","arctic","swim","2785","","","","","","","survey","","","","","","","","","","","","","{""Q0"":""No""}","","","neuro-disease","No"
"survey-multi-choice","104","2564489","0.0-10.0-7.0","d469ee750990cbbd70cf00c4f539f091da13ecff01b1afc571b4a47aefd1fcba","arctic","swim","6723","","","","","","","survey","","","","","","","","","","","","","{""Q0"":""No""}","","","take-meds","No"
"survey-text","105","2566897","0.0-10.0-9.0","d469ee750990cbbd70cf00c4f539f091da13ecff01b1afc571b4a47aefd1fcba","arctic","swim","1954.1999998092651","","","","","","","survey","","","","","","","","","","","","","{""HC"":""""}","","","health-concerns",""
"html-button-response","106","2569934","0.0-11.0-0.0","d469ee750990cbbd70cf00c4f539f091da13ecff01b1afc571b4a47aefd1fcba","arctic","swim","2784","","<p>How would you describe your musical skills/experiences?</p>","3","","","","survey","","","","","","","","","","","","","","","","music-skill","4"
"survey-multi-choice","107","2573084","0.0-11.0-1.0","d469ee750990cbbd70cf00c4f539f091da13ecff01b1afc571b4a47aefd1fcba","arctic","swim","2877","","","","","","","survey","","","","","","","","","","","","","{""Q0"":""Yes""}","","","music-instrument","Yes"
"survey-text","108","2578590","0.0-11.0-2.0-0.0","d469ee750990cbbd70cf00c4f539f091da13ecff01b1afc571b4a47aefd1fcba","arctic","swim","5250.200000047684","","","","","","","survey","","","","","","","","","","","","","{""MEXP"":""2""}","","","music-training-yrs","2"
"html-button-response","109","2581972","0.0-12.0-0.0","d469ee750990cbbd70cf00c4f539f091da13ecff01b1afc571b4a47aefd1fcba","arctic","swim","3128","","<p>How would you describe your general hearing abilities?</p>","4","","","","survey","","","","","","","","","","","","","","","","ssq-01","5"
"html-button-response","110","2585775","0.0-12.0-1.0","d469ee750990cbbd70cf00c4f539f091da13ecff01b1afc571b4a47aefd1fcba","arctic","swim","3535","","<p>When you talk with someone at a place that strongly reverberates/echoes (e.g., in a church or train station),</br>can you understand what the person says?</p>","7","","","","survey","","","","","","","","","","","","","","","","ssq-02","7"
"html-button-response","111","2588302","0.0-12.0-2.0","d469ee750990cbbd70cf00c4f539f091da13ecff01b1afc571b4a47aefd1fcba","arctic","swim","2271","","<p>When you are with a group (~5 people) in a lively restaurant, can you follow the group's conversation?</p>","7","","","","survey","","","","","","","","","","","","","","","","ssq-03","7"
"html-button-response","112","2590859","0.0-12.0-3.0","d469ee750990cbbd70cf00c4f539f091da13ecff01b1afc571b4a47aefd1fcba","arctic","swim","2303","","<p>Based on the sound of a bus or truck, can you tell whether it is moving towards or away from you?</p>","7","","","","survey","","","","","","","","","","","","","","","","ssq-04","7"
"html-button-response","113","2594595","0.0-12.0-4.0","d469ee750990cbbd70cf00c4f539f091da13ecff01b1afc571b4a47aefd1fcba","arctic","swim","3483","","<p>When you are in an unknown environment, can you tell from which direction a brief sound originates?</p>","8","","","","survey","","","","","","","","","","","","","","","","ssq-05","8"
"html-button-response","114","2597178","0.0-12.0-5.0","d469ee750990cbbd70cf00c4f539f091da13ecff01b1afc571b4a47aefd1fcba","arctic","swim","2328","","<p>Are you able to ignore distracting sounds when you concentrate on a specific aspect of your acoustic surrounding?</p>","8","","","","survey","","","","","","","","","","","","","","","","ssq-06","8"
"fullscreen","115","2598440","0.0-13.0","d469ee750990cbbd70cf00c4f539f091da13ecff01b1afc571b4a47aefd1fcba","arctic","swim","","","","","","","","","true","","","","","","","","","","","","","","","",""
