"trial_type","trial_index","time_elapsed","internal_node_id","ParticipantID","firstStory","scramStory","rt","url","stimulus","button_pressed","key_press","correctRESP","correct","designation","success","letterStim","letterType","ONSET","TIMEOUT","CONDITION","Participant","ONSET_ACTUAL","RT","RESP","ACC","STORY","responses","response","type","surveyQuestion","QRESP"
"pavlovia","0","16","0.0-0.0","93a35953cc54efe82bc2ec30f1aaef06ce66e27c3941999787b5225697b6ccdf","arctic","swim","","","","","","","","","","","","","","","","","","","","","","","","",""
"external-html","1","19675","0.0-1.0","93a35953cc54efe82bc2ec30f1aaef06ce66e27c3941999787b5225697b6ccdf","arctic","swim","19176","consent/consent_updated.html","","","","","","","","","","","","","","","","","","","","","","",""
"html-button-response","2","37593","0.0-2.0-0.0","93a35953cc54efe82bc2ec30f1aaef06ce66e27c3941999787b5225697b6ccdf","arctic","swim","17916","","<p>Before we begin the main task, you will complete a short volume calibration and headphone check.</p><p>Please make sure you are in a quiet listening environment, that you are wearing headphones, and that your computer's volume is turned on.<p></p>","0","","","","","","","","","","","","","","","","","","","","",""
"html-button-response","3","44690","0.0-2.0-1.0","93a35953cc54efe82bc2ec30f1aaef06ce66e27c3941999787b5225697b6ccdf","arctic","swim","6845","","<p>The volume calibration will be first.</p><p>You will hear a thirty-second noise. Please adjust your computer's volume so that this noise is being presented at a comfortable level.<p></p>","0","","","","","","","","","","","","","","","","","","","","",""
"audio-button-response","4","65479","0.0-2.0-2.0","93a35953cc54efe82bc2ec30f1aaef06ce66e27c3941999787b5225697b6ccdf","arctic","swim","20536","","audio/volumetest.mp3","0","","","","","","","","","","","","","","","","","","","","",""
"html-keyboard-response","5","89229","0.0-3.0-0.0","93a35953cc54efe82bc2ec30f1aaef06ce66e27c3941999787b5225697b6ccdf","arctic","swim","23748","","<p>You will now complete a short headphone check.</p><p>On each trial, you will hear three tones. One of these tones will be quieter than the others. Your task is to identify whether the quiet tone occurred first, second, or third.</p><p>There are six trials in total.<p></p><p></p>(Press SPACEBAR to begin)","","32","","","","","","","","","","","","","","","","","","","",""
"html-keyboard-response","6","89980","0.0-3.0-1.0-0.0","93a35953cc54efe82bc2ec30f1aaef06ce66e27c3941999787b5225697b6ccdf","arctic","swim","null","","<div style=""font-size:60px;"">+</div>","","null","","","","","","","","","","","","","","","","","","","",""
"audio-button-response","7","102115","0.0-3.0-1.0-1.0","93a35953cc54efe82bc2ec30f1aaef06ce66e27c3941999787b5225697b6ccdf","arctic","swim","12133","","audio/t2_2.mp3","2","","1","0","headphone-test","","","","","","","","","","","","","","","","",""
"html-keyboard-response","8","102618","0.0-3.0-1.0-2.0","93a35953cc54efe82bc2ec30f1aaef06ce66e27c3941999787b5225697b6ccdf","arctic","swim","null","","<p>Incorrect</p>","","null","","","","","","","","","","","","","","","","","","","",""
"html-keyboard-response","9","103119","0.0-3.0-1.0-0.1","93a35953cc54efe82bc2ec30f1aaef06ce66e27c3941999787b5225697b6ccdf","arctic","swim","null","","<div style=""font-size:60px;"">+</div>","","null","","","","","","","","","","","","","","","","","","","",""
"audio-button-response","10","108038","0.0-3.0-1.0-1.1","93a35953cc54efe82bc2ec30f1aaef06ce66e27c3941999787b5225697b6ccdf","arctic","swim","4917","","audio/t3_2.mp3","1","","2","0","headphone-test","","","","","","","","","","","","","","","","",""
"html-keyboard-response","11","108539","0.0-3.0-1.0-2.1","93a35953cc54efe82bc2ec30f1aaef06ce66e27c3941999787b5225697b6ccdf","arctic","swim","null","","<p>Incorrect</p>","","null","","","","","","","","","","","","","","","","","","","",""
"html-keyboard-response","12","109040","0.0-3.0-1.0-0.2","93a35953cc54efe82bc2ec30f1aaef06ce66e27c3941999787b5225697b6ccdf","arctic","swim","null","","<div style=""font-size:60px;"">+</div>","","null","","","","","","","","","","","","","","","","","","","",""
"audio-button-response","13","114784","0.0-3.0-1.0-1.2","93a35953cc54efe82bc2ec30f1aaef06ce66e27c3941999787b5225697b6ccdf","arctic","swim","5742","","audio/t3_1.mp3","0","","2","0","headphone-test","","","","","","","","","","","","","","","","",""
"html-keyboard-response","14","115286","0.0-3.0-1.0-2.2","93a35953cc54efe82bc2ec30f1aaef06ce66e27c3941999787b5225697b6ccdf","arctic","swim","null","","<p>Incorrect</p>","","null","","","","","","","","","","","","","","","","","","","",""
"html-keyboard-response","15","115787","0.0-3.0-1.0-0.3","93a35953cc54efe82bc2ec30f1aaef06ce66e27c3941999787b5225697b6ccdf","arctic","swim","null","","<div style=""font-size:60px;"">+</div>","","null","","","","","","","","","","","","","","","","","","","",""
"audio-button-response","16","121658","0.0-3.0-1.0-1.3","93a35953cc54efe82bc2ec30f1aaef06ce66e27c3941999787b5225697b6ccdf","arctic","swim","5869","","audio/t2_1.mp3","0","","1","0","headphone-test","","","","","","","","","","","","","","","","",""
"html-keyboard-response","17","122159","0.0-3.0-1.0-2.3","93a35953cc54efe82bc2ec30f1aaef06ce66e27c3941999787b5225697b6ccdf","arctic","swim","null","","<p>Incorrect</p>","","null","","","","","","","","","","","","","","","","","","","",""
"html-keyboard-response","18","122660","0.0-3.0-1.0-0.4","93a35953cc54efe82bc2ec30f1aaef06ce66e27c3941999787b5225697b6ccdf","arctic","swim","null","","<div style=""font-size:60px;"">+</div>","","null","","","","","","","","","","","","","","","","","","","",""
"audio-button-response","19","127379","0.0-3.0-1.0-1.4","93a35953cc54efe82bc2ec30f1aaef06ce66e27c3941999787b5225697b6ccdf","arctic","swim","4718","","audio/t1_1.mp3","1","","0","0","headphone-test","","","","","","","","","","","","","","","","",""
"html-keyboard-response","20","127881","0.0-3.0-1.0-2.4","93a35953cc54efe82bc2ec30f1aaef06ce66e27c3941999787b5225697b6ccdf","arctic","swim","null","","<p>Incorrect</p>","","null","","","","","","","","","","","","","","","","","","","",""
"html-keyboard-response","21","128382","0.0-3.0-1.0-0.5","93a35953cc54efe82bc2ec30f1aaef06ce66e27c3941999787b5225697b6ccdf","arctic","swim","null","","<div style=""font-size:60px;"">+</div>","","null","","","","","","","","","","","","","","","","","","","",""
"audio-button-response","22","134149","0.0-3.0-1.0-1.5","93a35953cc54efe82bc2ec30f1aaef06ce66e27c3941999787b5225697b6ccdf","arctic","swim","5765","","audio/t1_2.mp3","2","","0","0","headphone-test","","","","","","","","","","","","","","","","",""
"html-keyboard-response","23","134650","0.0-3.0-1.0-2.5","93a35953cc54efe82bc2ec30f1aaef06ce66e27c3941999787b5225697b6ccdf","arctic","swim","null","","<p>Incorrect</p>","","null","","","","","","","","","","","","","","","","","","","",""
"fullscreen","24","138363","0.0-4.0","93a35953cc54efe82bc2ec30f1aaef06ce66e27c3941999787b5225697b6ccdf","arctic","swim","","","","","","","","","true","","","","","","","","","","","","","","","",""
"html-button-response","25","153013","0.0-5.0-0.0","93a35953cc54efe82bc2ec30f1aaef06ce66e27c3941999787b5225697b6ccdf","arctic","swim","14647","","<p>There are two blocks to this experiment.</p><p>In each block, you will hear a ~13.5 minute story. One of the stories will be scrambled. Please listen carefully to both stories and understand them as best you can.</p><p>After each story, you will be asked some questions to assess your comprehension.</p>","0","","","","","","","","","","","","","","","","","","","","",""
"html-button-response","26","183574","0.0-5.0-1.0","93a35953cc54efe82bc2ec30f1aaef06ce66e27c3941999787b5225697b6ccdf","arctic","swim","30560","","<p>During each story, there will be an additional task.</p><p>A letter will occasionally appear on the screen.</br>Your job is to - as quickly as you can - decide whether the letter is lowercase or uppercase and press one of two keys on the keyboard:</p><p>If the letter is <b>lowercase</b>, press key &lt;<b>x</b>&gt;.</p><p>If the letter is <b>uppercase</b>, press key &lt;<b>m</b>&gt;.</p>","0","","","","","","","","","","","","","","","","","","","","",""
"html-keyboard-response","27","195999","0.0-5.0-2.0","93a35953cc54efe82bc2ec30f1aaef06ce66e27c3941999787b5225697b6ccdf","arctic","swim","12424","","<p>Because we want your responses to be as quick as possible, please keep your index fingers over the keys while listening.</p><p>Each block lasts about 20 minutes.</p><p><b>Press &lt;x&gt; or &lt;m&gt; to start the first block!</b></p>","","88","","","","","","","","","","","","","","","","","","","",""
"html-keyboard-response","28","196500","0.0-6.0-0.0-0.0","93a35953cc54efe82bc2ec30f1aaef06ce66e27c3941999787b5225697b6ccdf","arctic","swim","null","","<div style=""font-size:60px;"" tabindex=""0"">+</div>","","null","","","","","","","","","","","","","","","","","","","",""
"dual-task","null","null","null","","arctic","swim","1095","","F","null","77","77","1","arctic-dual-task","","F","uppercase","16000","0","4","93a35953cc54efe82bc2ec30f1aaef06ce66e27c3941999787b5225697b6ccdf","15999.299999999814","1095","77","1","arctic","","","","",""
"dual-task","null","null","null","","arctic","swim","447.90000000037253","","d","null","88","88","1","arctic-dual-task","","d","lowercase","22000","0","4","93a35953cc54efe82bc2ec30f1aaef06ce66e27c3941999787b5225697b6ccdf","21999.299999999814","447.90000000037253","88","1","arctic","","","","",""
"dual-task","null","null","null","","arctic","swim","481","","B","null","77","77","1","arctic-dual-task","","B","uppercase","30000","0","4","93a35953cc54efe82bc2ec30f1aaef06ce66e27c3941999787b5225697b6ccdf","29999.200000000186","481","77","1","arctic","","","","",""
"dual-task","null","null","null","","arctic","swim","638.9000000003725","","h","null","88","88","1","arctic-dual-task","","h","lowercase","40000","0","4","93a35953cc54efe82bc2ec30f1aaef06ce66e27c3941999787b5225697b6ccdf","39999.5","638.9000000003725","88","1","arctic","","","","",""
"dual-task","null","null","null","","arctic","swim","676.7000000001863","","h","null","88","88","1","arctic-dual-task","","h","lowercase","52000","0","4","93a35953cc54efe82bc2ec30f1aaef06ce66e27c3941999787b5225697b6ccdf","51999.200000000186","676.7000000001863","88","1","arctic","","","","",""
"dual-task","null","null","null","","arctic","swim","587","","R","null","77","77","1","arctic-dual-task","","R","uppercase","60000","0","4","93a35953cc54efe82bc2ec30f1aaef06ce66e27c3941999787b5225697b6ccdf","59999.200000000186","587","77","1","arctic","","","","",""
"dual-task","null","null","null","","arctic","swim","488.29999999981374","","G","null","77","77","1","arctic-dual-task","","G","uppercase","66000","0","4","93a35953cc54efe82bc2ec30f1aaef06ce66e27c3941999787b5225697b6ccdf","65999.20000000019","488.29999999981374","77","1","arctic","","","","",""
"dual-task","null","null","null","","arctic","swim","452.79999999981374","","D","null","88","77","0","arctic-dual-task","","D","uppercase","74000","0","4","93a35953cc54efe82bc2ec30f1aaef06ce66e27c3941999787b5225697b6ccdf","73999.5","452.79999999981374","88","0","arctic","","","","",""
"dual-task","null","null","null","","arctic","swim","1132.2999999998137","","n","null","88","88","1","arctic-dual-task","","n","lowercase","80000","0","4","93a35953cc54efe82bc2ec30f1aaef06ce66e27c3941999787b5225697b6ccdf","79999.59999999963","1132.2999999998137","88","1","arctic","","","","",""
"dual-task","null","null","null","","arctic","swim","625.2000000001863","","D","null","77","77","1","arctic-dual-task","","D","uppercase","94000","0","4","93a35953cc54efe82bc2ec30f1aaef06ce66e27c3941999787b5225697b6ccdf","93999.39999999944","625.2000000001863","77","1","arctic","","","","",""
"dual-task","null","null","null","","arctic","swim","602.8000000007451","","G","null","77","77","1","arctic-dual-task","","G","uppercase","106000","0","4","93a35953cc54efe82bc2ec30f1aaef06ce66e27c3941999787b5225697b6ccdf","105999.39999999944","602.8000000007451","77","1","arctic","","","","",""
"dual-task","null","null","null","","arctic","swim","707.2000000001863","","g","null","88","88","1","arctic-dual-task","","g","lowercase","118000","0","4","93a35953cc54efe82bc2ec30f1aaef06ce66e27c3941999787b5225697b6ccdf","117999.5","707.2000000001863","88","1","arctic","","","","",""
"dual-task","null","null","null","","arctic","swim","562.7000000001863","","t","null","88","88","1","arctic-dual-task","","t","lowercase","130000","0","4","93a35953cc54efe82bc2ec30f1aaef06ce66e27c3941999787b5225697b6ccdf","129999.70000000019","562.7000000001863","88","1","arctic","","","","",""
"dual-task","null","null","null","","arctic","swim","646.2000000001863","","R","null","77","77","1","arctic-dual-task","","R","uppercase","142000","0","4","93a35953cc54efe82bc2ec30f1aaef06ce66e27c3941999787b5225697b6ccdf","141999.2999999998","646.2000000001863","77","1","arctic","","","","",""
"dual-task","null","null","null","","arctic","swim","695.2999999998137","","h","null","88","88","1","arctic-dual-task","","h","lowercase","156000","0","4","93a35953cc54efe82bc2ec30f1aaef06ce66e27c3941999787b5225697b6ccdf","155999.39999999944","695.2999999998137","88","1","arctic","","","","",""
"dual-task","null","null","null","","arctic","swim","793.6000000005588","","d","null","88","88","1","arctic-dual-task","","d","lowercase","162000","0","4","93a35953cc54efe82bc2ec30f1aaef06ce66e27c3941999787b5225697b6ccdf","161999.5","793.6000000005588","88","1","arctic","","","","",""
"dual-task","null","null","null","","arctic","swim","661.2999999998137","","T","null","77","77","1","arctic-dual-task","","T","uppercase","176000","0","4","93a35953cc54efe82bc2ec30f1aaef06ce66e27c3941999787b5225697b6ccdf","175999.5","661.2999999998137","77","1","arctic","","","","",""
"dual-task","null","null","null","","arctic","swim","748.3999999994412","","Q","null","88","77","0","arctic-dual-task","","Q","uppercase","184000","0","4","93a35953cc54efe82bc2ec30f1aaef06ce66e27c3941999787b5225697b6ccdf","183999.39999999944","748.3999999994412","88","0","arctic","","","","",""
"dual-task","null","null","null","","arctic","swim","624.3999999994412","","t","null","88","88","1","arctic-dual-task","","t","lowercase","192000","0","4","93a35953cc54efe82bc2ec30f1aaef06ce66e27c3941999787b5225697b6ccdf","191999.5","624.3999999994412","88","1","arctic","","","","",""
"dual-task","null","null","null","","arctic","swim","627.7999999998137","","q","null","88","88","1","arctic-dual-task","","q","lowercase","206000","0","4","93a35953cc54efe82bc2ec30f1aaef06ce66e27c3941999787b5225697b6ccdf","205999.5","627.7999999998137","88","1","arctic","","","","",""
"dual-task","null","null","null","","arctic","swim","623.2000000001863","","D","null","77","77","1","arctic-dual-task","","D","uppercase","216000","0","4","93a35953cc54efe82bc2ec30f1aaef06ce66e27c3941999787b5225697b6ccdf","215999.7000000002","623.2000000001863","77","1","arctic","","","","",""
"dual-task","null","null","null","","arctic","swim","568.5999999996275","","H","null","77","77","1","arctic-dual-task","","H","uppercase","226000","0","4","93a35953cc54efe82bc2ec30f1aaef06ce66e27c3941999787b5225697b6ccdf","226000","568.5999999996275","77","1","arctic","","","","",""
"dual-task","null","null","null","","arctic","swim","611.7999999998137","","r","null","88","88","1","arctic-dual-task","","r","lowercase","238000","0","4","93a35953cc54efe82bc2ec30f1aaef06ce66e27c3941999787b5225697b6ccdf","237999.59999999963","611.7999999998137","88","1","arctic","","","","",""
"dual-task","null","null","null","","arctic","swim","608.2999999998137","","N","null","77","77","1","arctic-dual-task","","N","uppercase","252000","0","4","93a35953cc54efe82bc2ec30f1aaef06ce66e27c3941999787b5225697b6ccdf","251999.5","608.2999999998137","77","1","arctic","","","","",""
"dual-task","null","null","null","","arctic","swim","564.7999999998137","","B","null","77","77","1","arctic-dual-task","","B","uppercase","262000","0","4","93a35953cc54efe82bc2ec30f1aaef06ce66e27c3941999787b5225697b6ccdf","261999.59999999963","564.7999999998137","77","1","arctic","","","","",""
"dual-task","null","null","null","","arctic","swim","579.2000000001863","","T","null","77","77","1","arctic-dual-task","","T","uppercase","272000","0","4","93a35953cc54efe82bc2ec30f1aaef06ce66e27c3941999787b5225697b6ccdf","271999.7000000002","579.2000000001863","77","1","arctic","","","","",""
"dual-task","null","null","null","","arctic","swim","792.2999999998137","","Q","null","77","77","1","arctic-dual-task","","Q","uppercase","280000","0","4","93a35953cc54efe82bc2ec30f1aaef06ce66e27c3941999787b5225697b6ccdf","279999.7999999998","792.2999999998137","77","1","arctic","","","","",""
"dual-task","null","null","null","","arctic","swim","629.0999999996275","","r","null","88","88","1","arctic-dual-task","","r","lowercase","288000","0","4","93a35953cc54efe82bc2ec30f1aaef06ce66e27c3941999787b5225697b6ccdf","287999.7000000002","629.0999999996275","88","1","arctic","","","","",""
"dual-task","null","null","null","","arctic","swim","496.40000000037253","","b","null","88","88","1","arctic-dual-task","","b","lowercase","294000","0","4","93a35953cc54efe82bc2ec30f1aaef06ce66e27c3941999787b5225697b6ccdf","293999.5999999996","496.40000000037253","88","1","arctic","","","","",""
"dual-task","null","null","null","","arctic","swim","538.5999999996275","","r","null","88","88","1","arctic-dual-task","","r","lowercase","302000","0","4","93a35953cc54efe82bc2ec30f1aaef06ce66e27c3941999787b5225697b6ccdf","301999.5999999996","538.5999999996275","88","1","arctic","","","","",""
"dual-task","null","null","null","","arctic","swim","649.0999999996275","","F","null","77","77","1","arctic-dual-task","","F","uppercase","308000","0","4","93a35953cc54efe82bc2ec30f1aaef06ce66e27c3941999787b5225697b6ccdf","307999.7000000002","649.0999999996275","77","1","arctic","","","","",""
"dual-task","null","null","null","","arctic","swim","512.6999999992549","","t","null","88","88","1","arctic-dual-task","","t","lowercase","318000","0","4","93a35953cc54efe82bc2ec30f1aaef06ce66e27c3941999787b5225697b6ccdf","317999.5999999996","512.6999999992549","88","1","arctic","","","","",""
"dual-task","null","null","null","","arctic","swim","510","","n","null","88","88","1","arctic-dual-task","","n","lowercase","324000","0","4","93a35953cc54efe82bc2ec30f1aaef06ce66e27c3941999787b5225697b6ccdf","323999.5999999996","510","88","1","arctic","","","","",""
"dual-task","null","null","null","","arctic","swim","610.2000000001863","","a","null","88","88","1","arctic-dual-task","","a","lowercase","330000","0","4","93a35953cc54efe82bc2ec30f1aaef06ce66e27c3941999787b5225697b6ccdf","329999.7999999998","610.2000000001863","88","1","arctic","","","","",""
"dual-task","null","null","null","","arctic","swim","750.6000000005588","","E","null","77","77","1","arctic-dual-task","","E","uppercase","338000","0","4","93a35953cc54efe82bc2ec30f1aaef06ce66e27c3941999787b5225697b6ccdf","338000","750.6000000005588","77","1","arctic","","","","",""
"dual-task","null","null","null","","arctic","swim","643.1000000005588","","b","null","88","88","1","arctic-dual-task","","b","lowercase","348000","0","4","93a35953cc54efe82bc2ec30f1aaef06ce66e27c3941999787b5225697b6ccdf","347999.7000000002","643.1000000005588","88","1","arctic","","","","",""
"dual-task","null","null","null","","arctic","swim","560.7999999998137","","H","null","77","77","1","arctic-dual-task","","H","uppercase","362000","0","4","93a35953cc54efe82bc2ec30f1aaef06ce66e27c3941999787b5225697b6ccdf","361999.89999999944","560.7999999998137","77","1","arctic","","","","",""
"dual-task","null","null","null","","arctic","swim","630.5999999996275","","n","null","88","88","1","arctic-dual-task","","n","lowercase","374000","0","4","93a35953cc54efe82bc2ec30f1aaef06ce66e27c3941999787b5225697b6ccdf","374000","630.5999999996275","88","1","arctic","","","","",""
"dual-task","null","null","null","","arctic","swim","561","","T","null","77","77","1","arctic-dual-task","","T","uppercase","384000","0","4","93a35953cc54efe82bc2ec30f1aaef06ce66e27c3941999787b5225697b6ccdf","384000","561","77","1","arctic","","","","",""
"dual-task","null","null","null","","arctic","swim","695.6000000005588","","G","null","77","77","1","arctic-dual-task","","G","uppercase","390000","0","4","93a35953cc54efe82bc2ec30f1aaef06ce66e27c3941999787b5225697b6ccdf","390000","695.6000000005588","77","1","arctic","","","","",""
"dual-task","null","null","null","","arctic","swim","664.3000000007451","","f","null","88","88","1","arctic-dual-task","","f","lowercase","402000","0","4","93a35953cc54efe82bc2ec30f1aaef06ce66e27c3941999787b5225697b6ccdf","401999.7999999998","664.3000000007451","88","1","arctic","","","","",""
"dual-task","null","null","null","","arctic","swim","575.2000000001863","","A","null","77","77","1","arctic-dual-task","","A","uppercase","410000","0","4","93a35953cc54efe82bc2ec30f1aaef06ce66e27c3941999787b5225697b6ccdf","409999.89999999944","575.2000000001863","77","1","arctic","","","","",""
"dual-task","null","null","null","","arctic","swim","621.7999999998137","","G","null","77","77","1","arctic-dual-task","","G","uppercase","416000","0","4","93a35953cc54efe82bc2ec30f1aaef06ce66e27c3941999787b5225697b6ccdf","416000.0999999996","621.7999999998137","77","1","arctic","","","","",""
"dual-task","null","null","null","","arctic","swim","723.7000000001863","","r","null","88","88","1","arctic-dual-task","","r","lowercase","426000","0","4","93a35953cc54efe82bc2ec30f1aaef06ce66e27c3941999787b5225697b6ccdf","426000","723.7000000001863","88","1","arctic","","","","",""
"dual-task","null","null","null","","arctic","swim","424.09999999962747","","B","null","77","77","1","arctic-dual-task","","B","uppercase","434000","0","4","93a35953cc54efe82bc2ec30f1aaef06ce66e27c3941999787b5225697b6ccdf","433999.7000000002","424.09999999962747","77","1","arctic","","","","",""
"dual-task","null","null","null","","arctic","swim","622.9000000003725","","g","null","88","88","1","arctic-dual-task","","g","lowercase","444000","0","4","93a35953cc54efe82bc2ec30f1aaef06ce66e27c3941999787b5225697b6ccdf","444000.0999999996","622.9000000003725","88","1","arctic","","","","",""
"dual-task","null","null","null","","arctic","swim","545.5999999996275","","R","null","77","77","1","arctic-dual-task","","R","uppercase","458000","0","4","93a35953cc54efe82bc2ec30f1aaef06ce66e27c3941999787b5225697b6ccdf","458000","545.5999999996275","77","1","arctic","","","","",""
"dual-task","null","null","null","","arctic","swim","770.8000000007451","","b","null","88","88","1","arctic-dual-task","","b","lowercase","466000","0","4","93a35953cc54efe82bc2ec30f1aaef06ce66e27c3941999787b5225697b6ccdf","465999.89999999944","770.8000000007451","88","1","arctic","","","","",""
"dual-task","null","null","null","","arctic","swim","555.9000000003725","","T","null","77","77","1","arctic-dual-task","","T","uppercase","478000","0","4","93a35953cc54efe82bc2ec30f1aaef06ce66e27c3941999787b5225697b6ccdf","478000.0999999996","555.9000000003725","77","1","arctic","","","","",""
"dual-task","null","null","null","","arctic","swim","585.8000000007451","","e","null","88","88","1","arctic-dual-task","","e","lowercase","492000","0","4","93a35953cc54efe82bc2ec30f1aaef06ce66e27c3941999787b5225697b6ccdf","491999.7999999998","585.8000000007451","88","1","arctic","","","","",""
"dual-task","null","null","null","","arctic","swim","1019.0999999996275","","N","null","77","77","1","arctic-dual-task","","N","uppercase","506000","0","4","93a35953cc54efe82bc2ec30f1aaef06ce66e27c3941999787b5225697b6ccdf","505999.89999999944","1019.0999999996275","77","1","arctic","","","","",""
"dual-task","null","null","null","","arctic","swim","566.2000000001863","","H","null","77","77","1","arctic-dual-task","","H","uppercase","520000","0","4","93a35953cc54efe82bc2ec30f1aaef06ce66e27c3941999787b5225697b6ccdf","519999.7999999998","566.2000000001863","77","1","arctic","","","","",""
"dual-task","null","null","null","","arctic","swim","535","","F","null","77","77","1","arctic-dual-task","","F","uppercase","532000","0","4","93a35953cc54efe82bc2ec30f1aaef06ce66e27c3941999787b5225697b6ccdf","531999.8999999994","535","77","1","arctic","","","","",""
"dual-task","null","null","null","","arctic","swim","659.2999999998137","","B","null","77","77","1","arctic-dual-task","","B","uppercase","544000","0","4","93a35953cc54efe82bc2ec30f1aaef06ce66e27c3941999787b5225697b6ccdf","543999.8999999994","659.2999999998137","77","1","arctic","","","","",""
"dual-task","null","null","null","","arctic","swim","727.8999999994412","","d","null","88","88","1","arctic-dual-task","","d","lowercase","550000","0","4","93a35953cc54efe82bc2ec30f1aaef06ce66e27c3941999787b5225697b6ccdf","550000.0999999996","727.8999999994412","88","1","arctic","","","","",""
"dual-task","null","null","null","","arctic","swim","725.4000000003725","","f","null","88","88","1","arctic-dual-task","","f","lowercase","558000","0","4","93a35953cc54efe82bc2ec30f1aaef06ce66e27c3941999787b5225697b6ccdf","558000","725.4000000003725","88","1","arctic","","","","",""
"dual-task","null","null","null","","arctic","swim","639.5","","E","null","77","77","1","arctic-dual-task","","E","uppercase","566000","0","4","93a35953cc54efe82bc2ec30f1aaef06ce66e27c3941999787b5225697b6ccdf","566000.3999999994","639.5","77","1","arctic","","","","",""
"dual-task","null","null","null","","arctic","swim","696.2000000001863","","A","null","77","77","1","arctic-dual-task","","A","uppercase","580000","0","4","93a35953cc54efe82bc2ec30f1aaef06ce66e27c3941999787b5225697b6ccdf","579999.8999999994","696.2000000001863","77","1","arctic","","","","",""
"dual-task","null","null","null","","arctic","swim","601","","D","null","77","77","1","arctic-dual-task","","D","uppercase","588000","0","4","93a35953cc54efe82bc2ec30f1aaef06ce66e27c3941999787b5225697b6ccdf","588000","601","77","1","arctic","","","","",""
"dual-task","null","null","null","","arctic","swim","724.0999999996275","","E","null","77","77","1","arctic-dual-task","","E","uppercase","598000","0","4","93a35953cc54efe82bc2ec30f1aaef06ce66e27c3941999787b5225697b6ccdf","598000","724.0999999996275","77","1","arctic","","","","",""
"dual-task","null","null","null","","arctic","swim","696.3999999994412","","b","null","88","88","1","arctic-dual-task","","b","lowercase","606000","0","4","93a35953cc54efe82bc2ec30f1aaef06ce66e27c3941999787b5225697b6ccdf","606000.2000000002","696.3999999994412","88","1","arctic","","","","",""
"dual-task","null","null","null","","arctic","swim","572.5999999996275","","n","null","88","88","1","arctic-dual-task","","n","lowercase","616000","0","4","93a35953cc54efe82bc2ec30f1aaef06ce66e27c3941999787b5225697b6ccdf","616000.2000000002","572.5999999996275","88","1","arctic","","","","",""
"dual-task","null","null","null","","arctic","swim","586","","F","null","77","77","1","arctic-dual-task","","F","uppercase","630000","0","4","93a35953cc54efe82bc2ec30f1aaef06ce66e27c3941999787b5225697b6ccdf","630000","586","77","1","arctic","","","","",""
"dual-task","null","null","null","","arctic","swim","835.2999999998137","","g","null","88","88","1","arctic-dual-task","","g","lowercase","640000","0","4","93a35953cc54efe82bc2ec30f1aaef06ce66e27c3941999787b5225697b6ccdf","640000","835.2999999998137","88","1","arctic","","","","",""
"dual-task","null","null","null","","arctic","swim","617.9000000003725","","a","null","88","88","1","arctic-dual-task","","a","lowercase","652000","0","4","93a35953cc54efe82bc2ec30f1aaef06ce66e27c3941999787b5225697b6ccdf","652000.2000000002","617.9000000003725","88","1","arctic","","","","",""
"dual-task","null","null","null","","arctic","swim","579.6999999992549","","d","null","88","88","1","arctic-dual-task","","d","lowercase","666000","0","4","93a35953cc54efe82bc2ec30f1aaef06ce66e27c3941999787b5225697b6ccdf","666000.2000000002","579.6999999992549","88","1","arctic","","","","",""
"dual-task","null","null","null","","arctic","swim","550.7000000001863","","a","null","88","88","1","arctic-dual-task","","a","lowercase","676000","0","4","93a35953cc54efe82bc2ec30f1aaef06ce66e27c3941999787b5225697b6ccdf","676000.3999999994","550.7000000001863","88","1","arctic","","","","",""
"dual-task","null","null","null","","arctic","swim","874.3999999994412","","Q","null","77","77","1","arctic-dual-task","","Q","uppercase","684000","0","4","93a35953cc54efe82bc2ec30f1aaef06ce66e27c3941999787b5225697b6ccdf","684000.2000000002","874.3999999994412","77","1","arctic","","","","",""
"dual-task","null","null","null","","arctic","swim","1303.5","","e","null","88","88","1","arctic-dual-task","","e","lowercase","694000","0","4","93a35953cc54efe82bc2ec30f1aaef06ce66e27c3941999787b5225697b6ccdf","694000.5999999996","1303.5","88","1","arctic","","","","",""
"dual-task","null","null","null","","arctic","swim","785.0999999996275","","h","null","88","88","1","arctic-dual-task","","h","lowercase","706000","0","4","93a35953cc54efe82bc2ec30f1aaef06ce66e27c3941999787b5225697b6ccdf","706000.2000000002","785.0999999996275","88","1","arctic","","","","",""
"dual-task","null","null","null","","arctic","swim","729.2999999998137","","q","null","88","88","1","arctic-dual-task","","q","lowercase","714000","0","4","93a35953cc54efe82bc2ec30f1aaef06ce66e27c3941999787b5225697b6ccdf","714000.2000000002","729.2999999998137","88","1","arctic","","","","",""
"dual-task","null","null","null","","arctic","swim","587.0999999996275","","e","null","88","88","1","arctic-dual-task","","e","lowercase","728000","0","4","93a35953cc54efe82bc2ec30f1aaef06ce66e27c3941999787b5225697b6ccdf","728000.2999999998","587.0999999996275","88","1","arctic","","","","",""
"dual-task","null","null","null","","arctic","swim","846.1999999992549","","E","null","77","77","1","arctic-dual-task","","E","uppercase","742000","0","4","93a35953cc54efe82bc2ec30f1aaef06ce66e27c3941999787b5225697b6ccdf","742000.2000000002","846.1999999992549","77","1","arctic","","","","",""
"dual-task","null","null","null","","arctic","swim","665.5999999996275","","A","null","77","77","1","arctic-dual-task","","A","uppercase","756000","0","4","93a35953cc54efe82bc2ec30f1aaef06ce66e27c3941999787b5225697b6ccdf","756000.5","665.5999999996275","77","1","arctic","","","","",""
"dual-task","null","null","null","","arctic","swim","559.1000000005588","","A","null","77","77","1","arctic-dual-task","","A","uppercase","762000","0","4","93a35953cc54efe82bc2ec30f1aaef06ce66e27c3941999787b5225697b6ccdf","762000.5","559.1000000005588","77","1","arctic","","","","",""
"dual-task","null","null","null","","arctic","swim","782.2000000001863","","Q","null","77","77","1","arctic-dual-task","","Q","uppercase","770000","0","4","93a35953cc54efe82bc2ec30f1aaef06ce66e27c3941999787b5225697b6ccdf","770000.2000000002","782.2000000001863","77","1","arctic","","","","",""
"dual-task","null","null","null","","arctic","swim","617.8999999994412","","R","null","77","77","1","arctic-dual-task","","R","uppercase","776000","0","4","93a35953cc54efe82bc2ec30f1aaef06ce66e27c3941999787b5225697b6ccdf","776000.5","617.8999999994412","77","1","arctic","","","","",""
"dual-task","null","null","null","","arctic","swim","625.2000000001863","","e","null","88","88","1","arctic-dual-task","","e","lowercase","784000","0","4","93a35953cc54efe82bc2ec30f1aaef06ce66e27c3941999787b5225697b6ccdf","784000.5","625.2000000001863","88","1","arctic","","","","",""
"audio-keyboard-response","29","994611","0.0-6.0-0.0-1.0","93a35953cc54efe82bc2ec30f1aaef06ce66e27c3941999787b5225697b6ccdf","arctic","swim","null","","audio/story_arctic.mp3","","null","","","","","","","","","","","","","","","","","","","",""
"html-button-response","30","1006170","0.0-6.0-0.0-2.0","93a35953cc54efe82bc2ec30f1aaef06ce66e27c3941999787b5225697b6ccdf","arctic","swim","11558","","<p>This concludes the story. Thank you for listening.</p><p>You will now answer some questions about the content of the story.</p>","0","","","","","","","","","","","","","","","","","","","","",""
"survey-multi-choice","31","1013397","0.0-6.0-0.0-3.0-0.0","93a35953cc54efe82bc2ec30f1aaef06ce66e27c3941999787b5225697b6ccdf","arctic","swim","7223","","<b>How did the narrator&#39;s encounter with the polar bears end?</b>","","","","1","arctic-comprehension","","","","","","","","","","","","","{""Q0"":""The bears walked back to their den.""}","","","",""
"survey-multi-choice","32","1019398","0.0-6.0-0.0-3.0-0.1","93a35953cc54efe82bc2ec30f1aaef06ce66e27c3941999787b5225697b6ccdf","arctic","swim","5749","","<b>What is the name of the narrator&#39;s neighbour?</b>","","","","1","arctic-comprehension","","","","","","","","","","","","","{""Q0"":""Dave""}","","","",""
"survey-multi-choice","33","1027806","0.0-6.0-0.0-3.0-0.2","93a35953cc54efe82bc2ec30f1aaef06ce66e27c3941999787b5225697b6ccdf","arctic","swim","8154","","<b>How did the narrator prepare for her expedition?</b>","","","","1","arctic-comprehension","","","","","","","","","","","","","{""Q0"":""Trained in Alaska learning how to dogsled""}","","","",""
"survey-multi-choice","34","1032681","0.0-6.0-0.0-3.0-0.3","93a35953cc54efe82bc2ec30f1aaef06ce66e27c3941999787b5225697b6ccdf","arctic","swim","4621","","<b>What did the narrator do for leisure while in her tent?</b>","","","","1","arctic-comprehension","","","","","","","","","","","","","{""Q0"":""Read""}","","","",""
"survey-multi-choice","35","1038996","0.0-6.0-0.0-3.0-0.4","93a35953cc54efe82bc2ec30f1aaef06ce66e27c3941999787b5225697b6ccdf","arctic","swim","6060","","<b>How many sponsorships did the narrator receive to support her expedition?</b>","","","","1","arctic-comprehension","","","","","","","","","","","","","{""Q0"":""None""}","","","",""
"survey-multi-choice","36","1051688","0.0-6.0-0.0-3.0-0.5","93a35953cc54efe82bc2ec30f1aaef06ce66e27c3941999787b5225697b6ccdf","arctic","swim","12437","","<b>How did the narrator&#39;s neighbour respond when she told him about her expedition?</b>","","","","1","arctic-comprehension","","","","","","","","","","","","","{""Q0"":""He said she was going to fail.""}","","","",""
"survey-multi-choice","37","1057994","0.0-6.0-0.0-3.0-0.6","93a35953cc54efe82bc2ec30f1aaef06ce66e27c3941999787b5225697b6ccdf","arctic","swim","6053","","<b>How did the dogs respond when they saw the bears?</b>","","","","1","arctic-comprehension","","","","","","","","","","","","","{""Q0"":""Approached them""}","","","",""
"survey-multi-choice","38","1069503","0.0-6.0-0.0-3.0-0.7","93a35953cc54efe82bc2ec30f1aaef06ce66e27c3941999787b5225697b6ccdf","arctic","swim","11256","","<b>What were the weather conditions in the Arctic like the winter of the narrator&#39;s expedition?</b>","","","","1","arctic-comprehension","","","","","","","","","","","","","{""Q0"":""There were more storms than any other winter in recorded history.""}","","","",""
"survey-multi-choice","39","1082299","0.0-6.0-0.0-3.0-0.8","93a35953cc54efe82bc2ec30f1aaef06ce66e27c3941999787b5225697b6ccdf","arctic","swim","12541","","<b>What was the objective of the narrator&#39;s expedition?</b>","","","","1","arctic-comprehension","","","","","","","","","","","","","{""Q0"":""Dogsled across Arctic America""}","","","",""
"survey-multi-choice","40","1087981","0.0-6.0-0.0-3.0-0.9","93a35953cc54efe82bc2ec30f1aaef06ce66e27c3941999787b5225697b6ccdf","arctic","swim","5426","","<b>Which dog on the narrator&#39;s dog team never followed instructions?</b>","","","","1","arctic-comprehension","","","","","","","","","","","","","{""Q0"":""Robert""}","","","",""
"html-button-response","41","1091466","0.0-6.0-0.0-4.0","93a35953cc54efe82bc2ec30f1aaef06ce66e27c3941999787b5225697b6ccdf","arctic","swim","3232","","<p>Thank you for your responses.</p><p>You will now answer some questions about your impressions of the story.</p>","0","","","","","","","","","","","","","","","","","","","","",""
"html-button-response","42","1095750","0.0-6.0-0.0-5.0-0.0","93a35953cc54efe82bc2ec30f1aaef06ce66e27c3941999787b5225697b6ccdf","arctic","swim","4282","","EE4","6","","","","arctic-engagement","","","","","","","","","","","","","","7","emo-engage","",""
"html-button-response","43","1099092","0.0-6.0-0.0-5.0-0.1","93a35953cc54efe82bc2ec30f1aaef06ce66e27c3941999787b5225697b6ccdf","arctic","swim","3088","","EE3","6","","","","arctic-engagement","","","","","","","","","","","","","","7","emo-engage","",""
"html-button-response","44","1103159","0.0-6.0-0.0-5.0-0.2","93a35953cc54efe82bc2ec30f1aaef06ce66e27c3941999787b5225697b6ccdf","arctic","swim","3815","","A5","6","","","","arctic-engagement","","","","","","","","","","","","","","7","absorption","",""
"html-button-response","45","1105206","0.0-6.0-0.0-5.0-0.3","93a35953cc54efe82bc2ec30f1aaef06ce66e27c3941999787b5225697b6ccdf","arctic","swim","1793","","E1","6","","","","arctic-engagement","","","","","","","","","","","","","","7","enjoyment","",""
"html-button-response","46","1108930","0.0-6.0-0.0-5.0-0.4","93a35953cc54efe82bc2ec30f1aaef06ce66e27c3941999787b5225697b6ccdf","arctic","swim","3471","","MS1","6","","","","arctic-engagement","","","","","","","","","","","","","","7","mental-sim","",""
"html-button-response","47","1113182","0.0-6.0-0.0-5.0-0.5","93a35953cc54efe82bc2ec30f1aaef06ce66e27c3941999787b5225697b6ccdf","arctic","swim","3999","","MS2","6","","","","arctic-engagement","","","","","","","","","","","","","","7","mental-sim","",""
"html-button-response","48","1115044","0.0-6.0-0.0-5.0-0.6","93a35953cc54efe82bc2ec30f1aaef06ce66e27c3941999787b5225697b6ccdf","arctic","swim","1609","","E8","6","","","","arctic-engagement","","","","","","","","","","","","","","7","enjoyment","",""
"html-button-response","49","1117210","0.0-6.0-0.0-5.0-0.7","93a35953cc54efe82bc2ec30f1aaef06ce66e27c3941999787b5225697b6ccdf","arctic","swim","1913","","E10","6","","","","arctic-engagement","","","","","","","","","","","","","","7","enjoyment","",""
"html-button-response","50","1120063","0.0-6.0-0.0-5.0-0.8","93a35953cc54efe82bc2ec30f1aaef06ce66e27c3941999787b5225697b6ccdf","arctic","swim","2601","","E7","6","","","","arctic-engagement","","","","","","","","","","","","","","7","enjoyment","",""
"html-button-response","51","1123987","0.0-6.0-0.0-5.0-0.9","93a35953cc54efe82bc2ec30f1aaef06ce66e27c3941999787b5225697b6ccdf","arctic","swim","3671","","A1","6","","","","arctic-engagement","","","","","","","","","","","","","","7","absorption","",""
"html-button-response","52","1127657","0.0-6.0-0.0-5.0-0.10","93a35953cc54efe82bc2ec30f1aaef06ce66e27c3941999787b5225697b6ccdf","arctic","swim","3417","","EE1","6","","","","arctic-engagement","","","","","","","","","","","","","","7","emo-engage","",""
"html-button-response","53","1129846","0.0-6.0-0.0-5.0-0.11","93a35953cc54efe82bc2ec30f1aaef06ce66e27c3941999787b5225697b6ccdf","arctic","swim","1937","","EE5","6","","","","arctic-engagement","","","","","","","","","","","","","","7","emo-engage","",""
"html-button-response","54","1131725","0.0-6.0-0.0-5.0-0.12","93a35953cc54efe82bc2ec30f1aaef06ce66e27c3941999787b5225697b6ccdf","arctic","swim","1622","","EE2","6","","","","arctic-engagement","","","","","","","","","","","","","","7","emo-engage","",""
"html-button-response","55","1133419","0.0-6.0-0.0-5.0-0.13","93a35953cc54efe82bc2ec30f1aaef06ce66e27c3941999787b5225697b6ccdf","arctic","swim","1441","","A3","6","","","","arctic-engagement","","","","","","","","","","","","","","7","absorption","",""
"html-button-response","56","1135473","0.0-6.0-0.0-5.0-0.14","93a35953cc54efe82bc2ec30f1aaef06ce66e27c3941999787b5225697b6ccdf","arctic","swim","1801","","E6","6","","","","arctic-engagement","","","","","","","","","","","","","","7","enjoyment","",""
"html-button-response","57","1139692","0.0-6.0-0.0-5.0-0.15","93a35953cc54efe82bc2ec30f1aaef06ce66e27c3941999787b5225697b6ccdf","arctic","swim","3967","","A4","6","","","","arctic-engagement","","","","","","","","","","","","","","7","absorption","",""
"html-button-response","58","1142866","0.0-6.0-0.0-5.0-0.16","93a35953cc54efe82bc2ec30f1aaef06ce66e27c3941999787b5225697b6ccdf","arctic","swim","2921","","A2","6","","","","arctic-engagement","","","","","","","","","","","","","","7","absorption","",""
"html-button-response","59","1145920","0.0-6.0-0.0-5.0-0.17","93a35953cc54efe82bc2ec30f1aaef06ce66e27c3941999787b5225697b6ccdf","arctic","swim","2800","","MS3","6","","","","arctic-engagement","","","","","","","","","","","","","","7","mental-sim","",""
"html-keyboard-response","60","1161864","0.0-6.0-1.0","93a35953cc54efe82bc2ec30f1aaef06ce66e27c3941999787b5225697b6ccdf","arctic","swim","15692","","<p>Thank you for your responses. You will now listen to the second story.</p><p>Remember, as you listen to the story you will see letters appear on the screen.</br>As quickly as possible, press <b>&lt;x&gt;</b> if the letter is lowercase and <b>&lt;m&gt;</b> if the letter is uppercase.</p><p>Press <b>&lt;x&gt;</b> or <b>&lt;m&gt;</b> to begin listening!</p>","","77","","","","","","","","","","","","","","","","","","","",""
"html-keyboard-response","61","1162365","0.0-6.0-2.0-0.0","93a35953cc54efe82bc2ec30f1aaef06ce66e27c3941999787b5225697b6ccdf","arctic","swim","null","","<div style=""font-size:60px;"" tabindex=""0"">+</div>","","null","","","","","","","","","","","","","","","","","","","",""
"dual-task","null","null","null","","arctic","swim","748.5999999996275","","d","null","88","88","1","swim-dual-task","","d","lowercase","16000","0","4","93a35953cc54efe82bc2ec30f1aaef06ce66e27c3941999787b5225697b6ccdf","16000.299999999814","748.5999999996275","88","1","swim","","","","",""
"dual-task","null","null","null","","arctic","swim","657.8999999994412","","b","null","88","88","1","swim-dual-task","","b","lowercase","22000","0","4","93a35953cc54efe82bc2ec30f1aaef06ce66e27c3941999787b5225697b6ccdf","21999.699999999255","657.8999999994412","88","1","swim","","","","",""
"dual-task","null","null","null","","arctic","swim","576.7999999998137","","H","null","77","77","1","swim-dual-task","","H","uppercase","36000","0","4","93a35953cc54efe82bc2ec30f1aaef06ce66e27c3941999787b5225697b6ccdf","35999.699999999255","576.7999999998137","77","1","swim","","","","",""
"dual-task","null","null","null","","arctic","swim","NA","","n","null","NA","88","0","swim-dual-task","","n","lowercase","46000","1","4","93a35953cc54efe82bc2ec30f1aaef06ce66e27c3941999787b5225697b6ccdf","45999.799999999814","NA","NA","0","swim","","","","",""
"dual-task","null","null","null","","arctic","swim","508.8999999994412","","E","null","77","77","1","swim-dual-task","","E","uppercase","52000","0","4","93a35953cc54efe82bc2ec30f1aaef06ce66e27c3941999787b5225697b6ccdf","52000","508.8999999994412","77","1","swim","","","","",""
"dual-task","null","null","null","","arctic","swim","849.2999999998137","","h","null","88","88","1","swim-dual-task","","h","lowercase","60000","0","4","93a35953cc54efe82bc2ec30f1aaef06ce66e27c3941999787b5225697b6ccdf","59999.89999999944","849.2999999998137","88","1","swim","","","","",""
"dual-task","null","null","null","","arctic","swim","890.2000000001863","","G","null","77","77","1","swim-dual-task","","G","uppercase","70000","0","4","93a35953cc54efe82bc2ec30f1aaef06ce66e27c3941999787b5225697b6ccdf","69999.79999999981","890.2000000001863","77","1","swim","","","","",""
"dual-task","null","null","null","","arctic","swim","533.8999999994412","","g","null","88","88","1","swim-dual-task","","g","lowercase","84000","0","4","93a35953cc54efe82bc2ec30f1aaef06ce66e27c3941999787b5225697b6ccdf","84000.09999999963","533.8999999994412","88","1","swim","","","","",""
"dual-task","null","null","null","","arctic","swim","549.4000000003725","","A","null","77","77","1","swim-dual-task","","A","uppercase","90000","0","4","93a35953cc54efe82bc2ec30f1aaef06ce66e27c3941999787b5225697b6ccdf","90000","549.4000000003725","77","1","swim","","","","",""
"dual-task","null","null","null","","arctic","swim","650.1000000005588","","H","null","77","77","1","swim-dual-task","","H","uppercase","102000","0","4","93a35953cc54efe82bc2ec30f1aaef06ce66e27c3941999787b5225697b6ccdf","102000.19999999925","650.1000000005588","77","1","swim","","","","",""
"dual-task","null","null","null","","arctic","swim","585.8999999994412","","D","null","77","77","1","swim-dual-task","","D","uppercase","114000","0","4","93a35953cc54efe82bc2ec30f1aaef06ce66e27c3941999787b5225697b6ccdf","113999.89999999944","585.8999999994412","77","1","swim","","","","",""
"dual-task","null","null","null","","arctic","swim","609.8000000007451","","b","null","88","88","1","swim-dual-task","","b","lowercase","122000","0","4","93a35953cc54efe82bc2ec30f1aaef06ce66e27c3941999787b5225697b6ccdf","122000.09999999963","609.8000000007451","88","1","swim","","","","",""
"dual-task","null","null","null","","arctic","swim","548.2999999998137","","e","null","88","88","1","swim-dual-task","","e","lowercase","130000","0","4","93a35953cc54efe82bc2ec30f1aaef06ce66e27c3941999787b5225697b6ccdf","130000","548.2999999998137","88","1","swim","","","","",""
"dual-task","null","null","null","","arctic","swim","598.0999999996275","","h","null","88","88","1","swim-dual-task","","h","lowercase","142000","0","4","93a35953cc54efe82bc2ec30f1aaef06ce66e27c3941999787b5225697b6ccdf","142000","598.0999999996275","88","1","swim","","","","",""
"dual-task","null","null","null","","arctic","swim","573","","q","null","88","88","1","swim-dual-task","","q","lowercase","148000","0","4","93a35953cc54efe82bc2ec30f1aaef06ce66e27c3941999787b5225697b6ccdf","148000.09999999963","573","88","1","swim","","","","",""
"dual-task","null","null","null","","arctic","swim","625","","r","null","88","88","1","swim-dual-task","","r","lowercase","158000","0","4","93a35953cc54efe82bc2ec30f1aaef06ce66e27c3941999787b5225697b6ccdf","157999.89999999944","625","88","1","swim","","","","",""
"dual-task","null","null","null","","arctic","swim","510.59999999962747","","D","null","77","77","1","swim-dual-task","","D","uppercase","166000","0","4","93a35953cc54efe82bc2ec30f1aaef06ce66e27c3941999787b5225697b6ccdf","166000","510.59999999962747","77","1","swim","","","","",""
"dual-task","null","null","null","","arctic","swim","765.5","","G","null","77","77","1","swim-dual-task","","G","uppercase","180000","0","4","93a35953cc54efe82bc2ec30f1aaef06ce66e27c3941999787b5225697b6ccdf","180000.19999999925","765.5","77","1","swim","","","","",""
"dual-task","null","null","null","","arctic","swim","570.5999999996275","","F","null","77","77","1","swim-dual-task","","F","uppercase","192000","0","4","93a35953cc54efe82bc2ec30f1aaef06ce66e27c3941999787b5225697b6ccdf","192000","570.5999999996275","77","1","swim","","","","",""
"dual-task","null","null","null","","arctic","swim","671.7999999998137","","R","null","77","77","1","swim-dual-task","","R","uppercase","200000","0","4","93a35953cc54efe82bc2ec30f1aaef06ce66e27c3941999787b5225697b6ccdf","200000.09999999963","671.7999999998137","77","1","swim","","","","",""
"dual-task","null","null","null","","arctic","swim","512.8999999994412","","F","null","77","77","1","swim-dual-task","","F","uppercase","206000","0","4","93a35953cc54efe82bc2ec30f1aaef06ce66e27c3941999787b5225697b6ccdf","206000","512.8999999994412","77","1","swim","","","","",""
"dual-task","null","null","null","","arctic","swim","769.9000000003725","","d","null","88","88","1","swim-dual-task","","d","lowercase","216000","0","4","93a35953cc54efe82bc2ec30f1aaef06ce66e27c3941999787b5225697b6ccdf","216000.09999999963","769.9000000003725","88","1","swim","","","","",""
"dual-task","null","null","null","","arctic","swim","688.7999999998137","","T","null","77","77","1","swim-dual-task","","T","uppercase","222000","0","4","93a35953cc54efe82bc2ec30f1aaef06ce66e27c3941999787b5225697b6ccdf","221999.89999999944","688.7999999998137","77","1","swim","","","","",""
"dual-task","null","null","null","","arctic","swim","680.2000000001863","","t","null","88","88","1","swim-dual-task","","t","lowercase","232000","0","4","93a35953cc54efe82bc2ec30f1aaef06ce66e27c3941999787b5225697b6ccdf","232000","680.2000000001863","88","1","swim","","","","",""
"dual-task","null","null","null","","arctic","swim","538.9000000003725","","D","null","77","77","1","swim-dual-task","","D","uppercase","244000","0","4","93a35953cc54efe82bc2ec30f1aaef06ce66e27c3941999787b5225697b6ccdf","244000","538.9000000003725","77","1","swim","","","","",""
"dual-task","null","null","null","","arctic","swim","738.1000000005588","","N","null","77","77","1","swim-dual-task","","N","uppercase","250000","0","4","93a35953cc54efe82bc2ec30f1aaef06ce66e27c3941999787b5225697b6ccdf","250000.09999999963","738.1000000005588","77","1","swim","","","","",""
"dual-task","null","null","null","","arctic","swim","724.1000000005588","","E","null","77","77","1","swim-dual-task","","E","uppercase","262000","0","4","93a35953cc54efe82bc2ec30f1aaef06ce66e27c3941999787b5225697b6ccdf","261999.89999999944","724.1000000005588","77","1","swim","","","","",""
"dual-task","null","null","null","","arctic","swim","507.79999999981374","","B","null","77","77","1","swim-dual-task","","B","uppercase","272000","0","4","93a35953cc54efe82bc2ec30f1aaef06ce66e27c3941999787b5225697b6ccdf","271999.89999999944","507.79999999981374","77","1","swim","","","","",""
"dual-task","null","null","null","","arctic","swim","617.5","","e","null","88","88","1","swim-dual-task","","e","lowercase","278000","0","4","93a35953cc54efe82bc2ec30f1aaef06ce66e27c3941999787b5225697b6ccdf","278000.0999999996","617.5","88","1","swim","","","","",""
"dual-task","null","null","null","","arctic","swim","1112","","G","null","77","77","1","swim-dual-task","","G","uppercase","292000","0","4","93a35953cc54efe82bc2ec30f1aaef06ce66e27c3941999787b5225697b6ccdf","292000.19999999925","1112","77","1","swim","","","","",""
"dual-task","null","null","null","","arctic","swim","581","","D","null","77","77","1","swim-dual-task","","D","uppercase","304000","0","4","93a35953cc54efe82bc2ec30f1aaef06ce66e27c3941999787b5225697b6ccdf","304000","581","77","1","swim","","","","",""
"dual-task","null","null","null","","arctic","swim","600.5","","f","null","88","88","1","swim-dual-task","","f","lowercase","316000","0","4","93a35953cc54efe82bc2ec30f1aaef06ce66e27c3941999787b5225697b6ccdf","316000.0999999996","600.5","88","1","swim","","","","",""
"dual-task","null","null","null","","arctic","swim","516","","e","null","88","88","1","swim-dual-task","","e","lowercase","324000","0","4","93a35953cc54efe82bc2ec30f1aaef06ce66e27c3941999787b5225697b6ccdf","324000.0999999996","516","88","1","swim","","","","",""
"dual-task","null","null","null","","arctic","swim","601.2000000001863","","Q","null","77","77","1","swim-dual-task","","Q","uppercase","336000","0","4","93a35953cc54efe82bc2ec30f1aaef06ce66e27c3941999787b5225697b6ccdf","336000","601.2000000001863","77","1","swim","","","","",""
"dual-task","null","null","null","","arctic","swim","672.5999999996275","","h","null","88","88","1","swim-dual-task","","h","lowercase","346000","0","4","93a35953cc54efe82bc2ec30f1aaef06ce66e27c3941999787b5225697b6ccdf","346000.0999999996","672.5999999996275","88","1","swim","","","","",""
"dual-task","null","null","null","","arctic","swim","753.5","","Q","null","77","77","1","swim-dual-task","","Q","uppercase","360000","0","4","93a35953cc54efe82bc2ec30f1aaef06ce66e27c3941999787b5225697b6ccdf","360000.19999999925","753.5","77","1","swim","","","","",""
"dual-task","null","null","null","","arctic","swim","556.0999999996275","","E","null","77","77","1","swim-dual-task","","E","uppercase","368000","0","4","93a35953cc54efe82bc2ec30f1aaef06ce66e27c3941999787b5225697b6ccdf","368000.39999999944","556.0999999996275","77","1","swim","","","","",""
"dual-task","null","null","null","","arctic","swim","758.7999999998137","","Q","null","77","77","1","swim-dual-task","","Q","uppercase","378000","0","4","93a35953cc54efe82bc2ec30f1aaef06ce66e27c3941999787b5225697b6ccdf","378000.39999999944","758.7999999998137","77","1","swim","","","","",""
"dual-task","null","null","null","","arctic","swim","738.9000000003725","","e","null","88","88","1","swim-dual-task","","e","lowercase","386000","0","4","93a35953cc54efe82bc2ec30f1aaef06ce66e27c3941999787b5225697b6ccdf","386000.0999999996","738.9000000003725","88","1","swim","","","","",""
"dual-task","null","null","null","","arctic","swim","578","","N","null","77","77","1","swim-dual-task","","N","uppercase","398000","0","4","93a35953cc54efe82bc2ec30f1aaef06ce66e27c3941999787b5225697b6ccdf","398000.2999999998","578","77","1","swim","","","","",""
"dual-task","null","null","null","","arctic","swim","623","","N","null","77","77","1","swim-dual-task","","N","uppercase","408000","0","4","93a35953cc54efe82bc2ec30f1aaef06ce66e27c3941999787b5225697b6ccdf","408000.5","623","77","1","swim","","","","",""
"dual-task","null","null","null","","arctic","swim","766.8999999994412","","g","null","88","88","1","swim-dual-task","","g","lowercase","418000","0","4","93a35953cc54efe82bc2ec30f1aaef06ce66e27c3941999787b5225697b6ccdf","418000.39999999944","766.8999999994412","88","1","swim","","","","",""
"dual-task","null","null","null","","arctic","swim","587.5999999996275","","n","null","88","88","1","swim-dual-task","","n","lowercase","426000","0","4","93a35953cc54efe82bc2ec30f1aaef06ce66e27c3941999787b5225697b6ccdf","426000.39999999944","587.5999999996275","88","1","swim","","","","",""
"dual-task","null","null","null","","arctic","swim","593.0999999996275","","d","null","88","88","1","swim-dual-task","","d","lowercase","432000","0","4","93a35953cc54efe82bc2ec30f1aaef06ce66e27c3941999787b5225697b6ccdf","432000.19999999925","593.0999999996275","88","1","swim","","","","",""
"dual-task","null","null","null","","arctic","swim","595","","R","null","77","77","1","swim-dual-task","","R","uppercase","440000","0","4","93a35953cc54efe82bc2ec30f1aaef06ce66e27c3941999787b5225697b6ccdf","440000.39999999944","595","77","1","swim","","","","",""
"dual-task","null","null","null","","arctic","swim","770.2999999998137","","H","null","77","77","1","swim-dual-task","","H","uppercase","448000","0","4","93a35953cc54efe82bc2ec30f1aaef06ce66e27c3941999787b5225697b6ccdf","448000.39999999944","770.2999999998137","77","1","swim","","","","",""
"dual-task","null","null","null","","arctic","swim","900.1999999992549","","h","null","88","88","1","swim-dual-task","","h","lowercase","458000","0","4","93a35953cc54efe82bc2ec30f1aaef06ce66e27c3941999787b5225697b6ccdf","458000.5","900.1999999992549","88","1","swim","","","","",""
"dual-task","null","null","null","","arctic","swim","535.5999999996275","","B","null","77","77","1","swim-dual-task","","B","uppercase","472000","0","4","93a35953cc54efe82bc2ec30f1aaef06ce66e27c3941999787b5225697b6ccdf","472000.2999999998","535.5999999996275","77","1","swim","","","","",""
"dual-task","null","null","null","","arctic","swim","616.6999999992549","","N","null","77","77","1","swim-dual-task","","N","uppercase","484000","0","4","93a35953cc54efe82bc2ec30f1aaef06ce66e27c3941999787b5225697b6ccdf","484000.5","616.6999999992549","77","1","swim","","","","",""
"dual-task","null","null","null","","arctic","swim","574.5999999996275","","A","null","77","77","1","swim-dual-task","","A","uppercase","492000","0","4","93a35953cc54efe82bc2ec30f1aaef06ce66e27c3941999787b5225697b6ccdf","492000.5999999996","574.5999999996275","77","1","swim","","","","",""
"dual-task","null","null","null","","arctic","swim","605.1000000005588","","n","null","88","88","1","swim-dual-task","","n","lowercase","502000","0","4","93a35953cc54efe82bc2ec30f1aaef06ce66e27c3941999787b5225697b6ccdf","502000.2999999998","605.1000000005588","88","1","swim","","","","",""
"dual-task","null","null","null","","arctic","swim","600.5","","G","null","77","77","1","swim-dual-task","","G","uppercase","514000","0","4","93a35953cc54efe82bc2ec30f1aaef06ce66e27c3941999787b5225697b6ccdf","514000.5","600.5","77","1","swim","","","","",""
"dual-task","null","null","null","","arctic","swim","770.3999999994412","","B","null","77","77","1","swim-dual-task","","B","uppercase","526000","0","4","93a35953cc54efe82bc2ec30f1aaef06ce66e27c3941999787b5225697b6ccdf","526001","770.3999999994412","77","1","swim","","","","",""
"dual-task","null","null","null","","arctic","swim","584","","Q","null","77","77","1","swim-dual-task","","Q","uppercase","538000","0","4","93a35953cc54efe82bc2ec30f1aaef06ce66e27c3941999787b5225697b6ccdf","538000.6999999993","584","77","1","swim","","","","",""
"dual-task","null","null","null","","arctic","swim","523.4000000003725","","R","null","77","77","1","swim-dual-task","","R","uppercase","548000","0","4","93a35953cc54efe82bc2ec30f1aaef06ce66e27c3941999787b5225697b6ccdf","548000.6999999993","523.4000000003725","77","1","swim","","","","",""
"dual-task","null","null","null","","arctic","swim","741.1000000005588","","T","null","77","77","1","swim-dual-task","","T","uppercase","560000","0","4","93a35953cc54efe82bc2ec30f1aaef06ce66e27c3941999787b5225697b6ccdf","560000.5","741.1000000005588","77","1","swim","","","","",""
"dual-task","null","null","null","","arctic","swim","591.6000000005588","","n","null","88","88","1","swim-dual-task","","n","lowercase","570000","0","4","93a35953cc54efe82bc2ec30f1aaef06ce66e27c3941999787b5225697b6ccdf","570001.2999999998","591.6000000005588","88","1","swim","","","","",""
"dual-task","null","null","null","","arctic","swim","580.7000000001863","","r","null","88","88","1","swim-dual-task","","r","lowercase","576000","0","4","93a35953cc54efe82bc2ec30f1aaef06ce66e27c3941999787b5225697b6ccdf","576000.5999999996","580.7000000001863","88","1","swim","","","","",""
"dual-task","null","null","null","","arctic","swim","658.4000000003725","","q","null","88","88","1","swim-dual-task","","q","lowercase","584000","0","4","93a35953cc54efe82bc2ec30f1aaef06ce66e27c3941999787b5225697b6ccdf","584001","658.4000000003725","88","1","swim","","","","",""
"dual-task","null","null","null","","arctic","swim","710","","a","null","88","88","1","swim-dual-task","","a","lowercase","596000","0","4","93a35953cc54efe82bc2ec30f1aaef06ce66e27c3941999787b5225697b6ccdf","596000.5999999996","710","88","1","swim","","","","",""
"dual-task","null","null","null","","arctic","swim","699.2999999998137","","a","null","88","88","1","swim-dual-task","","a","lowercase","608000","0","4","93a35953cc54efe82bc2ec30f1aaef06ce66e27c3941999787b5225697b6ccdf","608000.6999999993","699.2999999998137","88","1","swim","","","","",""
"dual-task","null","null","null","","arctic","swim","586.1000000005588","","t","null","88","88","1","swim-dual-task","","t","lowercase","618000","0","4","93a35953cc54efe82bc2ec30f1aaef06ce66e27c3941999787b5225697b6ccdf","618001","586.1000000005588","88","1","swim","","","","",""
"dual-task","null","null","null","","arctic","swim","591.6000000005588","","f","null","88","88","1","swim-dual-task","","f","lowercase","626000","0","4","93a35953cc54efe82bc2ec30f1aaef06ce66e27c3941999787b5225697b6ccdf","626000.8999999994","591.6000000005588","88","1","swim","","","","",""
"dual-task","null","null","null","","arctic","swim","562","","r","null","88","88","1","swim-dual-task","","r","lowercase","638000","0","4","93a35953cc54efe82bc2ec30f1aaef06ce66e27c3941999787b5225697b6ccdf","638001","562","88","1","swim","","","","",""
"dual-task","null","null","null","","arctic","swim","459.6000000005588","","b","null","88","88","1","swim-dual-task","","b","lowercase","644000","0","4","93a35953cc54efe82bc2ec30f1aaef06ce66e27c3941999787b5225697b6ccdf","644000.7999999998","459.6000000005588","88","1","swim","","","","",""
"dual-task","null","null","null","","arctic","swim","529.2999999998137","","f","null","88","88","1","swim-dual-task","","f","lowercase","658000","0","4","93a35953cc54efe82bc2ec30f1aaef06ce66e27c3941999787b5225697b6ccdf","658001.3999999994","529.2999999998137","88","1","swim","","","","",""
"dual-task","null","null","null","","arctic","swim","552.7000000001863","","a","null","88","88","1","swim-dual-task","","a","lowercase","668000","0","4","93a35953cc54efe82bc2ec30f1aaef06ce66e27c3941999787b5225697b6ccdf","668000.7999999998","552.7000000001863","88","1","swim","","","","",""
"dual-task","null","null","null","","arctic","swim","617.1000000005588","","F","null","77","77","1","swim-dual-task","","F","uppercase","678000","0","4","93a35953cc54efe82bc2ec30f1aaef06ce66e27c3941999787b5225697b6ccdf","678000.7999999998","617.1000000005588","77","1","swim","","","","",""
"dual-task","null","null","null","","arctic","swim","739.4000000003725","","d","null","88","88","1","swim-dual-task","","d","lowercase","686000","0","4","93a35953cc54efe82bc2ec30f1aaef06ce66e27c3941999787b5225697b6ccdf","686000.8999999994","739.4000000003725","88","1","swim","","","","",""
"dual-task","null","null","null","","arctic","swim","954.1000000005588","","B","null","77","77","1","swim-dual-task","","B","uppercase","698000","0","4","93a35953cc54efe82bc2ec30f1aaef06ce66e27c3941999787b5225697b6ccdf","698000.8999999994","954.1000000005588","77","1","swim","","","","",""
"dual-task","null","null","null","","arctic","swim","557","","b","null","88","88","1","swim-dual-task","","b","lowercase","706000","0","4","93a35953cc54efe82bc2ec30f1aaef06ce66e27c3941999787b5225697b6ccdf","706000.8999999994","557","88","1","swim","","","","",""
"dual-task","null","null","null","","arctic","swim","941.7999999998137","","T","null","77","77","1","swim-dual-task","","T","uppercase","714000","0","4","93a35953cc54efe82bc2ec30f1aaef06ce66e27c3941999787b5225697b6ccdf","714001","941.7999999998137","77","1","swim","","","","",""
"dual-task","null","null","null","","arctic","swim","489.8999999994412","","H","null","77","77","1","swim-dual-task","","H","uppercase","728000","0","4","93a35953cc54efe82bc2ec30f1aaef06ce66e27c3941999787b5225697b6ccdf","728000.6999999993","489.8999999994412","77","1","swim","","","","",""
"dual-task","null","null","null","","arctic","swim","596.2999999998137","","g","null","88","88","1","swim-dual-task","","g","lowercase","738000","0","4","93a35953cc54efe82bc2ec30f1aaef06ce66e27c3941999787b5225697b6ccdf","738000.7999999998","596.2999999998137","88","1","swim","","","","",""
"dual-task","null","null","null","","arctic","swim","517.8000000007451","","F","null","77","77","1","swim-dual-task","","F","uppercase","750000","0","4","93a35953cc54efe82bc2ec30f1aaef06ce66e27c3941999787b5225697b6ccdf","750001.0999999996","517.8000000007451","77","1","swim","","","","",""
"dual-task","null","null","null","","arctic","swim","614.5","","t","null","88","88","1","swim-dual-task","","t","lowercase","758000","0","4","93a35953cc54efe82bc2ec30f1aaef06ce66e27c3941999787b5225697b6ccdf","758001.1999999993","614.5","88","1","swim","","","","",""
"dual-task","null","null","null","","arctic","swim","569.1999999992549","","R","null","77","77","1","swim-dual-task","","R","uppercase","764000","0","4","93a35953cc54efe82bc2ec30f1aaef06ce66e27c3941999787b5225697b6ccdf","764001","569.1999999992549","77","1","swim","","","","",""
"dual-task","null","null","null","","arctic","swim","641","","t","null","88","88","1","swim-dual-task","","t","lowercase","774000","0","4","93a35953cc54efe82bc2ec30f1aaef06ce66e27c3941999787b5225697b6ccdf","774001.1999999993","641","88","1","swim","","","","",""
"dual-task","null","null","null","","arctic","swim","503.69999999925494","","g","null","88","88","1","swim-dual-task","","g","lowercase","780000","0","4","93a35953cc54efe82bc2ec30f1aaef06ce66e27c3941999787b5225697b6ccdf","780001","503.69999999925494","88","1","swim","","","","",""
"dual-task","null","null","null","","arctic","swim","522","","q","null","88","88","1","swim-dual-task","","q","lowercase","786000","0","4","93a35953cc54efe82bc2ec30f1aaef06ce66e27c3941999787b5225697b6ccdf","786001.2999999998","522","88","1","swim","","","","",""
"dual-task","null","null","null","","arctic","swim","639.2000000001863","","T","null","77","77","1","swim-dual-task","","T","uppercase","796000","0","4","93a35953cc54efe82bc2ec30f1aaef06ce66e27c3941999787b5225697b6ccdf","796001.1999999993","639.2000000001863","77","1","swim","","","","",""
"audio-keyboard-response","62","1972389","0.0-6.0-2.0-1.0","93a35953cc54efe82bc2ec30f1aaef06ce66e27c3941999787b5225697b6ccdf","arctic","swim","null","","audio/story_swim_scrambled.mp3","","null","","","","","","","","","","","","","","","","","","","",""
"html-button-response","63","1977291","0.0-6.0-2.0-2.0","93a35953cc54efe82bc2ec30f1aaef06ce66e27c3941999787b5225697b6ccdf","arctic","swim","4901","","<p>This concludes the story. Thank you for listening.</p><p>You will now answer some questions about the content of the story.</p>","0","","","","","","","","","","","","","","","","","","","","",""
"survey-multi-choice","64","1988305","0.0-6.0-2.0-3.0-0.0","93a35953cc54efe82bc2ec30f1aaef06ce66e27c3941999787b5225697b6ccdf","arctic","swim","11007","","<b>How did the narrator train for his swim test?</b>","","","","0","swim-comprehension","","","","","","","","","","","","","{""Q0"":""Signed up for a swim class""}","","","",""
"survey-multi-choice","65","1992525","0.0-6.0-2.0-3.0-0.1","93a35953cc54efe82bc2ec30f1aaef06ce66e27c3941999787b5225697b6ccdf","arctic","swim","3961","","<b>What is the narrator afraid of, aside from the water?</b>","","","","1","swim-comprehension","","","","","","","","","","","","","{""Q0"":""Heights""}","","","",""
"survey-multi-choice","66","2001844","0.0-6.0-2.0-3.0-0.2","93a35953cc54efe82bc2ec30f1aaef06ce66e27c3941999787b5225697b6ccdf","arctic","swim","9060","","<b>How often does the narrator swim, now that he is a good swimmer?</b>","","","","1","swim-comprehension","","","","","","","","","","","","","{""Q0"":""Never swam again in his life""}","","","",""
"survey-multi-choice","67","2010299","0.0-6.0-2.0-3.0-0.3","93a35953cc54efe82bc2ec30f1aaef06ce66e27c3941999787b5225697b6ccdf","arctic","swim","8201","","<b>What gave the narrator his greatest feeling of accomplishment?</b>","","","","0","swim-comprehension","","","","","","","","","","","","","{""Q0"":""Completing his PhD at MIT""}","","","",""
"survey-multi-choice","68","2016766","0.0-6.0-2.0-3.0-0.4","93a35953cc54efe82bc2ec30f1aaef06ce66e27c3941999787b5225697b6ccdf","arctic","swim","6214","","<b>How many times did the astronaut candidates have to complete the final exercise to pass?</b>","","","","1","swim-comprehension","","","","","","","","","","","","","{""Q0"":""Two""}","","","",""
"survey-multi-choice","69","2020986","0.0-6.0-2.0-3.0-0.5","93a35953cc54efe82bc2ec30f1aaef06ce66e27c3941999787b5225697b6ccdf","arctic","swim","3965","","<b>Where is the home of naval aviation?</b>","","","","1","swim-comprehension","","","","","","","","","","","","","{""Q0"":""Pensacola""}","","","",""
"survey-multi-choice","70","2032870","0.0-6.0-2.0-3.0-0.6","93a35953cc54efe82bc2ec30f1aaef06ce66e27c3941999787b5225697b6ccdf","arctic","swim","11630","","<b>What was the final step of the first swim test in the pool?</b>","","","","1","swim-comprehension","","","","","","","","","","","","","{""Q0"":""Tread water with hands above the water""}","","","",""
"survey-multi-choice","71","2039001","0.0-6.0-2.0-3.0-0.7","93a35953cc54efe82bc2ec30f1aaef06ce66e27c3941999787b5225697b6ccdf","arctic","swim","5875","","<b>How many astronaut candidates passed the first swim test?</b>","","","","1","swim-comprehension","","","","","","","","","","","","","{""Q0"":""All of them""}","","","",""
"survey-multi-choice","72","2044803","0.0-6.0-2.0-3.0-0.8","93a35953cc54efe82bc2ec30f1aaef06ce66e27c3941999787b5225697b6ccdf","arctic","swim","5546","","<b>How many astronaut candidates reported for duty at the Johnson Space Center?</b>","","","","1","swim-comprehension","","","","","","","","","","","","","{""Q0"":""Forty-four""}","","","",""
"survey-multi-choice","73","2053643","0.0-6.0-2.0-3.0-0.9","93a35953cc54efe82bc2ec30f1aaef06ce66e27c3941999787b5225697b6ccdf","arctic","swim","8583","","<b>What were the astronaut candidates trained to do at the naval air station?</b>","","","","1","swim-comprehension","","","","","","","","","","","","","{""Q0"":""Eject out of aircraft and survive in water long enough to be rescued""}","","","",""
"html-button-response","74","2055281","0.0-6.0-2.0-4.0","93a35953cc54efe82bc2ec30f1aaef06ce66e27c3941999787b5225697b6ccdf","arctic","swim","1385","","<p>Thank you for your responses.</p><p>You will now answer some questions about your impressions of the story.</p>","0","","","","","","","","","","","","","","","","","","","","",""
"html-button-response","75","2059183","0.0-6.0-2.0-5.0-0.0","93a35953cc54efe82bc2ec30f1aaef06ce66e27c3941999787b5225697b6ccdf","arctic","swim","3899","","A2","6","","","","swim-engagement","","","","","","","","","","","","","","7","absorption","",""
"html-button-response","76","2062931","0.0-6.0-2.0-5.0-0.1","93a35953cc54efe82bc2ec30f1aaef06ce66e27c3941999787b5225697b6ccdf","arctic","swim","3495","","A5","6","","","","swim-engagement","","","","","","","","","","","","","","7","absorption","",""
"html-button-response","77","2065648","0.0-6.0-2.0-5.0-0.2","93a35953cc54efe82bc2ec30f1aaef06ce66e27c3941999787b5225697b6ccdf","arctic","swim","2464","","E6","4","","","","swim-engagement","","","","","","","","","","","","","","5","enjoyment","",""
"html-button-response","78","2071266","0.0-6.0-2.0-5.0-0.3","93a35953cc54efe82bc2ec30f1aaef06ce66e27c3941999787b5225697b6ccdf","arctic","swim","5365","","MS2","6","","","","swim-engagement","","","","","","","","","","","","","","7","mental-sim","",""
"html-button-response","79","2075024","0.0-6.0-2.0-5.0-0.4","93a35953cc54efe82bc2ec30f1aaef06ce66e27c3941999787b5225697b6ccdf","arctic","swim","3504","","EE1","6","","","","swim-engagement","","","","","","","","","","","","","","7","emo-engage","",""
"html-button-response","80","2076470","0.0-6.0-2.0-5.0-0.5","93a35953cc54efe82bc2ec30f1aaef06ce66e27c3941999787b5225697b6ccdf","arctic","swim","1193","","EE5","6","","","","swim-engagement","","","","","","","","","","","","","","7","emo-engage","",""
"html-button-response","81","2078892","0.0-6.0-2.0-5.0-0.6","93a35953cc54efe82bc2ec30f1aaef06ce66e27c3941999787b5225697b6ccdf","arctic","swim","2168","","MS1","6","","","","swim-engagement","","","","","","","","","","","","","","7","mental-sim","",""
"html-button-response","82","2080330","0.0-6.0-2.0-5.0-0.7","93a35953cc54efe82bc2ec30f1aaef06ce66e27c3941999787b5225697b6ccdf","arctic","swim","1185","","EE4","6","","","","swim-engagement","","","","","","","","","","","","","","7","emo-engage","",""
"html-button-response","83","2084134","0.0-6.0-2.0-5.0-0.8","93a35953cc54efe82bc2ec30f1aaef06ce66e27c3941999787b5225697b6ccdf","arctic","swim","3551","","E8","5","","","","swim-engagement","","","","","","","","","","","","","","6","enjoyment","",""
"html-button-response","84","2086045","0.0-6.0-2.0-5.0-0.9","93a35953cc54efe82bc2ec30f1aaef06ce66e27c3941999787b5225697b6ccdf","arctic","swim","1658","","A3","6","","","","swim-engagement","","","","","","","","","","","","","","7","absorption","",""
"html-button-response","85","2088762","0.0-6.0-2.0-5.0-0.10","93a35953cc54efe82bc2ec30f1aaef06ce66e27c3941999787b5225697b6ccdf","arctic","swim","2463","","E1","6","","","","swim-engagement","","","","","","","","","","","","","","7","enjoyment","",""
"html-button-response","86","2092599","0.0-6.0-2.0-5.0-0.11","93a35953cc54efe82bc2ec30f1aaef06ce66e27c3941999787b5225697b6ccdf","arctic","swim","3583","","A4","6","","","","swim-engagement","","","","","","","","","","","","","","7","absorption","",""
"html-button-response","87","2096459","0.0-6.0-2.0-5.0-0.12","93a35953cc54efe82bc2ec30f1aaef06ce66e27c3941999787b5225697b6ccdf","arctic","swim","3606","","MS3","6","","","","swim-engagement","","","","","","","","","","","","","","7","mental-sim","",""
"html-button-response","88","2098273","0.0-6.0-2.0-5.0-0.13","93a35953cc54efe82bc2ec30f1aaef06ce66e27c3941999787b5225697b6ccdf","arctic","swim","1560","","EE2","6","","","","swim-engagement","","","","","","","","","","","","","","7","emo-engage","",""
"html-button-response","89","2099953","0.0-6.0-2.0-5.0-0.14","93a35953cc54efe82bc2ec30f1aaef06ce66e27c3941999787b5225697b6ccdf","arctic","swim","1425","","E7","6","","","","swim-engagement","","","","","","","","","","","","","","7","enjoyment","",""
"html-button-response","90","2101646","0.0-6.0-2.0-5.0-0.15","93a35953cc54efe82bc2ec30f1aaef06ce66e27c3941999787b5225697b6ccdf","arctic","swim","1440","","E10","6","","","","swim-engagement","","","","","","","","","","","","","","7","enjoyment","",""
"html-button-response","91","2108734","0.0-6.0-2.0-5.0-0.16","93a35953cc54efe82bc2ec30f1aaef06ce66e27c3941999787b5225697b6ccdf","arctic","swim","6835","","A1","2","","","","swim-engagement","","","","","","","","","","","","","","3","absorption","",""
"html-button-response","92","2110766","0.0-6.0-2.0-5.0-0.17","93a35953cc54efe82bc2ec30f1aaef06ce66e27c3941999787b5225697b6ccdf","arctic","swim","1777","","EE3","6","","","","swim-engagement","","","","","","","","","","","","","","7","emo-engage","",""
"html-button-response","93","2115073","0.0-8.0","93a35953cc54efe82bc2ec30f1aaef06ce66e27c3941999787b5225697b6ccdf","arctic","swim","4055","","<p>Thank you for your responses.</p><p>You will now answer some demographic, hearing, and general health questions.</p>","0","","","","","","","","","","","","","","","","","","","","",""
"survey-multi-choice","94","2117838","0.0-9.0-0.0","93a35953cc54efe82bc2ec30f1aaef06ce66e27c3941999787b5225697b6ccdf","arctic","swim","2756","","","","","","","survey","","","","","","","","","","","","","{""Q0"":""Chrome""}","","","browser",""
"survey-text","95","2122019","0.0-9.0-1.0","93a35953cc54efe82bc2ec30f1aaef06ce66e27c3941999787b5225697b6ccdf","arctic","swim","3920.5","","","","","","","survey","","","","","","","","","","","","","{""AGE"":""25""}","","","age","25"
"survey-multi-choice","96","2125191","0.0-9.0-2.0","93a35953cc54efe82bc2ec30f1aaef06ce66e27c3941999787b5225697b6ccdf","arctic","swim","2919","","","","","","","survey","","","","","","","","","","","","","{""Q0"":""Female""}","","","gender","Female"
"survey-multi-choice","97","2128797","0.0-9.0-4.0","93a35953cc54efe82bc2ec30f1aaef06ce66e27c3941999787b5225697b6ccdf","arctic","swim","3353","","","","","","","survey","","","","","","","","","","","","","{""Q0"":""Right""}","","","handedness","Right"
"survey-multi-choice","98","2133679","0.0-9.0-5.0","93a35953cc54efe82bc2ec30f1aaef06ce66e27c3941999787b5225697b6ccdf","arctic","swim","4627","","","","","","","survey","","","","","","","","","","","","","{""Q0"":""Some university undergraduate schooling""}","","","education","Some university undergraduate schooling"
"survey-text","99","2143622","0.0-10.0-0.0","93a35953cc54efe82bc2ec30f1aaef06ce66e27c3941999787b5225697b6ccdf","arctic","swim","9689.100000000559","","","","","","","survey","","","","","","","","","","","","","{""L1"":""English""}","","","first-language","English"
"survey-text","100","2148554","0.0-10.0-1.0","93a35953cc54efe82bc2ec30f1aaef06ce66e27c3941999787b5225697b6ccdf","arctic","swim","4669.5","","","","","","","survey","","","","","","","","","","","","","{""L2name"":"""",""L2fluency"":"""",""L3name"":"""",""L3fluency"":"""",""L4name"":"""",""L4fluency"":""""}","","","additional-languages","{""L2name"":"""",""L2fluency"":"""",""L3name"":"""",""L3fluency"":"""",""L4name"":"""",""L4fluency"":""""}"
"survey-multi-choice","101","2151854","0.0-10.0-2.0","93a35953cc54efe82bc2ec30f1aaef06ce66e27c3941999787b5225697b6ccdf","arctic","swim","3046","","","","","","","survey","","","","","","","","","","","","","{""Q0"":""No""}","","","hearing-aid","No"
"survey-multi-choice","102","2156186","0.0-10.0-3.0","93a35953cc54efe82bc2ec30f1aaef06ce66e27c3941999787b5225697b6ccdf","arctic","swim","4078","","","","","","","survey","","","","","","","","","","","","","{""Q0"":""Never""}","","","ringing-ears","Never"
"survey-multi-choice","103","2159487","0.0-10.0-5.0","93a35953cc54efe82bc2ec30f1aaef06ce66e27c3941999787b5225697b6ccdf","arctic","swim","3047","","","","","","","survey","","","","","","","","","","","","","{""Q0"":""No""}","","","neuro-disease","No"
"survey-multi-choice","104","2164043","0.0-10.0-7.0","93a35953cc54efe82bc2ec30f1aaef06ce66e27c3941999787b5225697b6ccdf","arctic","swim","4302","","","","","","","survey","","","","","","","","","","","","","{""Q0"":""No""}","","","take-meds","No"
"survey-text","105","2168911","0.0-10.0-9.0","93a35953cc54efe82bc2ec30f1aaef06ce66e27c3941999787b5225697b6ccdf","arctic","swim","4600.4000000003725","","","","","","","survey","","","","","","","","","","","","","{""HC"":""""}","","","health-concerns",""
"html-button-response","106","2173058","0.0-11.0-0.0","93a35953cc54efe82bc2ec30f1aaef06ce66e27c3941999787b5225697b6ccdf","arctic","swim","3895","","<p>How would you describe your musical skills/experiences?</p>","2","","","","survey","","","","","","","","","","","","","","","","music-skill","3"
"survey-multi-choice","107","2176846","0.0-11.0-1.0","93a35953cc54efe82bc2ec30f1aaef06ce66e27c3941999787b5225697b6ccdf","arctic","swim","3533","","","","","","","survey","","","","","","","","","","","","","{""Q0"":""Yes""}","","","music-instrument","Yes"
"survey-text","108","2181371","0.0-11.0-2.0-0.0","93a35953cc54efe82bc2ec30f1aaef06ce66e27c3941999787b5225697b6ccdf","arctic","swim","4270.300000000745","","","","","","","survey","","","","","","","","","","","","","{""MEXP"":""1""}","","","music-training-yrs","1"
"html-button-response","109","2184064","0.0-12.0-0.0","93a35953cc54efe82bc2ec30f1aaef06ce66e27c3941999787b5225697b6ccdf","arctic","swim","2440","","<p>How would you describe your general hearing abilities?</p>","5","","","","survey","","","","","","","","","","","","","","","","ssq-01","6"
"html-button-response","110","2192408","0.0-12.0-1.0","93a35953cc54efe82bc2ec30f1aaef06ce66e27c3941999787b5225697b6ccdf","arctic","swim","8091","","<p>When you talk with someone at a place that strongly reverberates/echoes (e.g., in a church or train station),</br>can you understand what the person says?</p>","10","","","","survey","","","","","","","","","","","","","","","","ssq-02","10"
"html-button-response","111","2197980","0.0-12.0-2.0","93a35953cc54efe82bc2ec30f1aaef06ce66e27c3941999787b5225697b6ccdf","arctic","swim","5318","","<p>When you are with a group (~5 people) in a lively restaurant, can you follow the group's conversation?</p>","10","","","","survey","","","","","","","","","","","","","","","","ssq-03","10"
"html-button-response","112","2202886","0.0-12.0-3.0","93a35953cc54efe82bc2ec30f1aaef06ce66e27c3941999787b5225697b6ccdf","arctic","swim","4653","","<p>Based on the sound of a bus or truck, can you tell whether it is moving towards or away from you?</p>","10","","","","survey","","","","","","","","","","","","","","","","ssq-04","10"
"html-button-response","113","2208345","0.0-12.0-4.0","93a35953cc54efe82bc2ec30f1aaef06ce66e27c3941999787b5225697b6ccdf","arctic","swim","5206","","<p>When you are in an unknown environment, can you tell from which direction a brief sound originates?</p>","9","","","","survey","","","","","","","","","","","","","","","","ssq-05","9"
"html-button-response","114","2213021","0.0-12.0-5.0","93a35953cc54efe82bc2ec30f1aaef06ce66e27c3941999787b5225697b6ccdf","arctic","swim","4422","","<p>Are you able to ignore distracting sounds when you concentrate on a specific aspect of your acoustic surrounding?</p>","10","","","","survey","","","","","","","","","","","","","","","","ssq-06","10"
"fullscreen","115","2214272","0.0-13.0","93a35953cc54efe82bc2ec30f1aaef06ce66e27c3941999787b5225697b6ccdf","arctic","swim","","","","","","","","","true","","","","","","","","","","","","","","","",""
