"trial_type","trial_index","time_elapsed","internal_node_id","ParticipantID","firstStory","scramStory","rt","url","stimulus","button_pressed","key_press","correctRESP","correct","designation","success","letterStim","letterType","ONSET","TIMEOUT","CONDITION","Participant","ONSET_ACTUAL","RT","RESP","ACC","STORY","responses","response","type","surveyQuestion","QRESP"
"pavlovia","0","5","0.0-0.0","7cb2eba017d6bea56dabfa08718be554220743231a21ed12daa2e979aaabbbe3","arctic","arctic","","","","","","","","","","","","","","","","","","","","","","","","",""
"external-html","1","3745","0.0-1.0","7cb2eba017d6bea56dabfa08718be554220743231a21ed12daa2e979aaabbbe3","arctic","arctic","3608","consent/consent_updated.html","","","","","","","","","","","","","","","","","","","","","","",""
"html-button-response","2","7373","0.0-2.0-0.0","7cb2eba017d6bea56dabfa08718be554220743231a21ed12daa2e979aaabbbe3","arctic","arctic","3627","","<p>Before we begin the main task, you will complete a short volume calibration and headphone check.</p><p>Please make sure you are in a quiet listening environment, that you are wearing headphones, and that your computer's volume is turned on.<p></p>","0","","","","","","","","","","","","","","","","","","","","",""
"html-button-response","3","10490","0.0-2.0-1.0","7cb2eba017d6bea56dabfa08718be554220743231a21ed12daa2e979aaabbbe3","arctic","arctic","2862","","<p>The volume calibration will be first.</p><p>You will hear a thirty-second noise. Please adjust your computer's volume so that this noise is being presented at a comfortable level.<p></p>","0","","","","","","","","","","","","","","","","","","","","",""
"audio-button-response","4","15587","0.0-2.0-2.0","7cb2eba017d6bea56dabfa08718be554220743231a21ed12daa2e979aaabbbe3","arctic","arctic","4841","","audio/volumetest.mp3","0","","","","","","","","","","","","","","","","","","","","",""
"html-keyboard-response","5","33810","0.0-3.0-0.0","7cb2eba017d6bea56dabfa08718be554220743231a21ed12daa2e979aaabbbe3","arctic","arctic","18222","","<p>You will now complete a short headphone check.</p><p>On each trial, you will hear three tones. One of these tones will be quieter than the others. Your task is to identify whether the quiet tone occurred first, second, or third.</p><p>There are six trials in total.<p></p><p></p>(Press SPACEBAR to begin)","","32","","","","","","","","","","","","","","","","","","","",""
"html-keyboard-response","6","34570","0.0-3.0-1.0-0.0","7cb2eba017d6bea56dabfa08718be554220743231a21ed12daa2e979aaabbbe3","arctic","arctic","null","","<div style=""font-size:60px;"">+</div>","","null","","","","","","","","","","","","","","","","","","","",""
"audio-button-response","7","38799","0.0-3.0-1.0-1.0","7cb2eba017d6bea56dabfa08718be554220743231a21ed12daa2e979aaabbbe3","arctic","arctic","4228","","audio/t3_1.mp3","2","","2","1","headphone-test","","","","","","","","","","","","","","","","",""
"html-keyboard-response","8","39301","0.0-3.0-1.0-2.0","7cb2eba017d6bea56dabfa08718be554220743231a21ed12daa2e979aaabbbe3","arctic","arctic","null","","<p>Correct</p>","","null","","","","","","","","","","","","","","","","","","","",""
"html-keyboard-response","9","39806","0.0-3.0-1.0-0.1","7cb2eba017d6bea56dabfa08718be554220743231a21ed12daa2e979aaabbbe3","arctic","arctic","null","","<div style=""font-size:60px;"">+</div>","","null","","","","","","","","","","","","","","","","","","","",""
"audio-button-response","10","44005","0.0-3.0-1.0-1.1","7cb2eba017d6bea56dabfa08718be554220743231a21ed12daa2e979aaabbbe3","arctic","arctic","4198","","audio/t1_1.mp3","0","","0","1","headphone-test","","","","","","","","","","","","","","","","",""
"html-keyboard-response","11","44508","0.0-3.0-1.0-2.1","7cb2eba017d6bea56dabfa08718be554220743231a21ed12daa2e979aaabbbe3","arctic","arctic","null","","<p>Correct</p>","","null","","","","","","","","","","","","","","","","","","","",""
"html-keyboard-response","12","45011","0.0-3.0-1.0-0.2","7cb2eba017d6bea56dabfa08718be554220743231a21ed12daa2e979aaabbbe3","arctic","arctic","null","","<div style=""font-size:60px;"">+</div>","","null","","","","","","","","","","","","","","","","","","","",""
"audio-button-response","13","49215","0.0-3.0-1.0-1.2","7cb2eba017d6bea56dabfa08718be554220743231a21ed12daa2e979aaabbbe3","arctic","arctic","4204","","audio/t1_2.mp3","0","","0","1","headphone-test","","","","","","","","","","","","","","","","",""
"html-keyboard-response","14","49718","0.0-3.0-1.0-2.2","7cb2eba017d6bea56dabfa08718be554220743231a21ed12daa2e979aaabbbe3","arctic","arctic","null","","<p>Correct</p>","","null","","","","","","","","","","","","","","","","","","","",""
"html-keyboard-response","15","50224","0.0-3.0-1.0-0.3","7cb2eba017d6bea56dabfa08718be554220743231a21ed12daa2e979aaabbbe3","arctic","arctic","null","","<div style=""font-size:60px;"">+</div>","","null","","","","","","","","","","","","","","","","","","","",""
"audio-button-response","16","54325","0.0-3.0-1.0-1.3","7cb2eba017d6bea56dabfa08718be554220743231a21ed12daa2e979aaabbbe3","arctic","arctic","4101","","audio/t2_2.mp3","1","","1","1","headphone-test","","","","","","","","","","","","","","","","",""
"html-keyboard-response","17","54827","0.0-3.0-1.0-2.3","7cb2eba017d6bea56dabfa08718be554220743231a21ed12daa2e979aaabbbe3","arctic","arctic","null","","<p>Correct</p>","","null","","","","","","","","","","","","","","","","","","","",""
"html-keyboard-response","18","55331","0.0-3.0-1.0-0.4","7cb2eba017d6bea56dabfa08718be554220743231a21ed12daa2e979aaabbbe3","arctic","arctic","null","","<div style=""font-size:60px;"">+</div>","","null","","","","","","","","","","","","","","","","","","","",""
"audio-button-response","19","59473","0.0-3.0-1.0-1.4","7cb2eba017d6bea56dabfa08718be554220743231a21ed12daa2e979aaabbbe3","arctic","arctic","4140","","audio/t3_2.mp3","2","","2","1","headphone-test","","","","","","","","","","","","","","","","",""
"html-keyboard-response","20","59975","0.0-3.0-1.0-2.4","7cb2eba017d6bea56dabfa08718be554220743231a21ed12daa2e979aaabbbe3","arctic","arctic","null","","<p>Correct</p>","","null","","","","","","","","","","","","","","","","","","","",""
"html-keyboard-response","21","60475","0.0-3.0-1.0-0.5","7cb2eba017d6bea56dabfa08718be554220743231a21ed12daa2e979aaabbbe3","arctic","arctic","null","","<div style=""font-size:60px;"">+</div>","","null","","","","","","","","","","","","","","","","","","","",""
"audio-button-response","22","64557","0.0-3.0-1.0-1.5","7cb2eba017d6bea56dabfa08718be554220743231a21ed12daa2e979aaabbbe3","arctic","arctic","4080","","audio/t2_1.mp3","1","","1","1","headphone-test","","","","","","","","","","","","","","","","",""
"html-keyboard-response","23","65059","0.0-3.0-1.0-2.5","7cb2eba017d6bea56dabfa08718be554220743231a21ed12daa2e979aaabbbe3","arctic","arctic","null","","<p>Correct</p>","","null","","","","","","","","","","","","","","","","","","","",""
"fullscreen","24","71581","0.0-4.0","7cb2eba017d6bea56dabfa08718be554220743231a21ed12daa2e979aaabbbe3","arctic","arctic","","","","","","","","","true","","","","","","","","","","","","","","","",""
"html-button-response","25","77491","0.0-5.0-0.0","7cb2eba017d6bea56dabfa08718be554220743231a21ed12daa2e979aaabbbe3","arctic","arctic","5908","","<p>There are two blocks to this experiment.</p><p>In each block, you will hear a ~13.5 minute story. One of the stories will be scrambled. Please listen carefully to both stories and understand them as best you can.</p><p>After each story, you will be asked some questions to assess your comprehension.</p>","0","","","","","","","","","","","","","","","","","","","","",""
"html-button-response","26","87012","0.0-5.0-1.0","7cb2eba017d6bea56dabfa08718be554220743231a21ed12daa2e979aaabbbe3","arctic","arctic","9521","","<p>During each story, there will be an additional task.</p><p>A letter will occasionally appear on the screen.</br>Your job is to - as quickly as you can - decide whether the letter is lowercase or uppercase and press one of two keys on the keyboard:</p><p>If the letter is <b>lowercase</b>, press key &lt;<b>x</b>&gt;.</p><p>If the letter is <b>uppercase</b>, press key &lt;<b>m</b>&gt;.</p>","0","","","","","","","","","","","","","","","","","","","","",""
"html-keyboard-response","27","92373","0.0-5.0-2.0","7cb2eba017d6bea56dabfa08718be554220743231a21ed12daa2e979aaabbbe3","arctic","arctic","5360","","<p>Because we want your responses to be as quick as possible, please keep your index fingers over the keys while listening.</p><p>Each block lasts about 20 minutes.</p><p><b>Press &lt;x&gt; or &lt;m&gt; to start the first block!</b></p>","","77","","","","","","","","","","","","","","","","","","","",""
"html-keyboard-response","28","92878","0.0-6.0-0.0-0.0","7cb2eba017d6bea56dabfa08718be554220743231a21ed12daa2e979aaabbbe3","arctic","arctic","null","","<div style=""font-size:60px;"" tabindex=""0"">+</div>","","null","","","","","","","","","","","","","","","","","","","",""
"dual-task","null","null","null","","arctic","arctic","742","","Q","null","88","77","0","arctic-dual-task","","Q","uppercase","12000","0","2","7cb2eba017d6bea56dabfa08718be554220743231a21ed12daa2e979aaabbbe3","12001","742","88","0","arctic","","","","",""
"dual-task","null","null","null","","arctic","arctic","1227","","n","null","88","88","1","arctic-dual-task","","n","lowercase","20000","0","2","7cb2eba017d6bea56dabfa08718be554220743231a21ed12daa2e979aaabbbe3","20004","1227","88","1","arctic","","","","",""
"dual-task","null","null","null","","arctic","arctic","583","","H","null","77","77","1","arctic-dual-task","","H","uppercase","26000","0","2","7cb2eba017d6bea56dabfa08718be554220743231a21ed12daa2e979aaabbbe3","26002","583","77","1","arctic","","","","",""
"dual-task","null","null","null","","arctic","arctic","1071","","f","null","88","88","1","arctic-dual-task","","f","lowercase","36000","0","2","7cb2eba017d6bea56dabfa08718be554220743231a21ed12daa2e979aaabbbe3","36000","1071","88","1","arctic","","","","",""
"dual-task","null","null","null","","arctic","arctic","661","","f","null","88","88","1","arctic-dual-task","","f","lowercase","48000","0","2","7cb2eba017d6bea56dabfa08718be554220743231a21ed12daa2e979aaabbbe3","48002","661","88","1","arctic","","","","",""
"dual-task","null","null","null","","arctic","arctic","574","","D","null","77","77","1","arctic-dual-task","","D","uppercase","54000","0","2","7cb2eba017d6bea56dabfa08718be554220743231a21ed12daa2e979aaabbbe3","54001","574","77","1","arctic","","","","",""
"dual-task","null","null","null","","arctic","arctic","556","","D","null","77","77","1","arctic-dual-task","","D","uppercase","62000","0","2","7cb2eba017d6bea56dabfa08718be554220743231a21ed12daa2e979aaabbbe3","62003","556","77","1","arctic","","","","",""
"dual-task","null","null","null","","arctic","arctic","676","","b","null","88","88","1","arctic-dual-task","","b","lowercase","72000","0","2","7cb2eba017d6bea56dabfa08718be554220743231a21ed12daa2e979aaabbbe3","72003","676","88","1","arctic","","","","",""
"dual-task","null","null","null","","arctic","arctic","542","","F","null","77","77","1","arctic-dual-task","","F","uppercase","78000","0","2","7cb2eba017d6bea56dabfa08718be554220743231a21ed12daa2e979aaabbbe3","78002","542","77","1","arctic","","","","",""
"dual-task","null","null","null","","arctic","arctic","771","","q","null","88","88","1","arctic-dual-task","","q","lowercase","90000","0","2","7cb2eba017d6bea56dabfa08718be554220743231a21ed12daa2e979aaabbbe3","90004","771","88","1","arctic","","","","",""
"dual-task","null","null","null","","arctic","arctic","627","","d","null","88","88","1","arctic-dual-task","","d","lowercase","96000","0","2","7cb2eba017d6bea56dabfa08718be554220743231a21ed12daa2e979aaabbbe3","96004","627","88","1","arctic","","","","",""
"dual-task","null","null","null","","arctic","arctic","612","","h","null","88","88","1","arctic-dual-task","","h","lowercase","102000","0","2","7cb2eba017d6bea56dabfa08718be554220743231a21ed12daa2e979aaabbbe3","102003","612","88","1","arctic","","","","",""
"dual-task","null","null","null","","arctic","arctic","786","","h","null","88","88","1","arctic-dual-task","","h","lowercase","114000","0","2","7cb2eba017d6bea56dabfa08718be554220743231a21ed12daa2e979aaabbbe3","114005","786","88","1","arctic","","","","",""
"dual-task","null","null","null","","arctic","arctic","493","","B","null","77","77","1","arctic-dual-task","","B","uppercase","126000","0","2","7cb2eba017d6bea56dabfa08718be554220743231a21ed12daa2e979aaabbbe3","126003","493","77","1","arctic","","","","",""
"dual-task","null","null","null","","arctic","arctic","661","","d","null","88","88","1","arctic-dual-task","","d","lowercase","138000","0","2","7cb2eba017d6bea56dabfa08718be554220743231a21ed12daa2e979aaabbbe3","138002","661","88","1","arctic","","","","",""
"dual-task","null","null","null","","arctic","arctic","658","","T","null","77","77","1","arctic-dual-task","","T","uppercase","148000","0","2","7cb2eba017d6bea56dabfa08718be554220743231a21ed12daa2e979aaabbbe3","148005","658","77","1","arctic","","","","",""
"dual-task","null","null","null","","arctic","arctic","659","","a","null","88","88","1","arctic-dual-task","","a","lowercase","158000","0","2","7cb2eba017d6bea56dabfa08718be554220743231a21ed12daa2e979aaabbbe3","158003","659","88","1","arctic","","","","",""
"dual-task","null","null","null","","arctic","arctic","623","","q","null","88","88","1","arctic-dual-task","","q","lowercase","166000","0","2","7cb2eba017d6bea56dabfa08718be554220743231a21ed12daa2e979aaabbbe3","166001","623","88","1","arctic","","","","",""
"dual-task","null","null","null","","arctic","arctic","847","","N","null","77","77","1","arctic-dual-task","","N","uppercase","174000","0","2","7cb2eba017d6bea56dabfa08718be554220743231a21ed12daa2e979aaabbbe3","174003","847","77","1","arctic","","","","",""
"dual-task","null","null","null","","arctic","arctic","687","","D","null","77","77","1","arctic-dual-task","","D","uppercase","182000","0","2","7cb2eba017d6bea56dabfa08718be554220743231a21ed12daa2e979aaabbbe3","182004","687","77","1","arctic","","","","",""
"dual-task","null","null","null","","arctic","arctic","642","","A","null","77","77","1","arctic-dual-task","","A","uppercase","190000","0","2","7cb2eba017d6bea56dabfa08718be554220743231a21ed12daa2e979aaabbbe3","190004","642","77","1","arctic","","","","",""
"dual-task","null","null","null","","arctic","arctic","654","","Q","null","77","77","1","arctic-dual-task","","Q","uppercase","198000","0","2","7cb2eba017d6bea56dabfa08718be554220743231a21ed12daa2e979aaabbbe3","198003","654","77","1","arctic","","","","",""
"dual-task","null","null","null","","arctic","arctic","598","","a","null","88","88","1","arctic-dual-task","","a","lowercase","210000","0","2","7cb2eba017d6bea56dabfa08718be554220743231a21ed12daa2e979aaabbbe3","210004","598","88","1","arctic","","","","",""
"dual-task","null","null","null","","arctic","arctic","610","","q","null","88","88","1","arctic-dual-task","","q","lowercase","222000","0","2","7cb2eba017d6bea56dabfa08718be554220743231a21ed12daa2e979aaabbbe3","222000","610","88","1","arctic","","","","",""
"dual-task","null","null","null","","arctic","arctic","677","","t","null","88","88","1","arctic-dual-task","","t","lowercase","236000","0","2","7cb2eba017d6bea56dabfa08718be554220743231a21ed12daa2e979aaabbbe3","236003","677","88","1","arctic","","","","",""
"dual-task","null","null","null","","arctic","arctic","671","","G","null","77","77","1","arctic-dual-task","","G","uppercase","250000","0","2","7cb2eba017d6bea56dabfa08718be554220743231a21ed12daa2e979aaabbbe3","250001","671","77","1","arctic","","","","",""
"dual-task","null","null","null","","arctic","arctic","699","","r","null","88","88","1","arctic-dual-task","","r","lowercase","258000","0","2","7cb2eba017d6bea56dabfa08718be554220743231a21ed12daa2e979aaabbbe3","258003","699","88","1","arctic","","","","",""
"dual-task","null","null","null","","arctic","arctic","653","","r","null","88","88","1","arctic-dual-task","","r","lowercase","268000","0","2","7cb2eba017d6bea56dabfa08718be554220743231a21ed12daa2e979aaabbbe3","268003","653","88","1","arctic","","","","",""
"dual-task","null","null","null","","arctic","arctic","614","","n","null","88","88","1","arctic-dual-task","","n","lowercase","278000","0","2","7cb2eba017d6bea56dabfa08718be554220743231a21ed12daa2e979aaabbbe3","278004","614","88","1","arctic","","","","",""
"dual-task","null","null","null","","arctic","arctic","619","","G","null","77","77","1","arctic-dual-task","","G","uppercase","284000","0","2","7cb2eba017d6bea56dabfa08718be554220743231a21ed12daa2e979aaabbbe3","284004","619","77","1","arctic","","","","",""
"dual-task","null","null","null","","arctic","arctic","740","","e","null","88","88","1","arctic-dual-task","","e","lowercase","292000","0","2","7cb2eba017d6bea56dabfa08718be554220743231a21ed12daa2e979aaabbbe3","292003","740","88","1","arctic","","","","",""
"dual-task","null","null","null","","arctic","arctic","1013","","h","null","88","88","1","arctic-dual-task","","h","lowercase","304000","0","2","7cb2eba017d6bea56dabfa08718be554220743231a21ed12daa2e979aaabbbe3","304002","1013","88","1","arctic","","","","",""
"dual-task","null","null","null","","arctic","arctic","638","","a","null","88","88","1","arctic-dual-task","","a","lowercase","310000","0","2","7cb2eba017d6bea56dabfa08718be554220743231a21ed12daa2e979aaabbbe3","310002","638","88","1","arctic","","","","",""
"dual-task","null","null","null","","arctic","arctic","754","","R","null","77","77","1","arctic-dual-task","","R","uppercase","322000","0","2","7cb2eba017d6bea56dabfa08718be554220743231a21ed12daa2e979aaabbbe3","322000","754","77","1","arctic","","","","",""
"dual-task","null","null","null","","arctic","arctic","688","","Q","null","77","77","1","arctic-dual-task","","Q","uppercase","336000","0","2","7cb2eba017d6bea56dabfa08718be554220743231a21ed12daa2e979aaabbbe3","336002","688","77","1","arctic","","","","",""
"dual-task","null","null","null","","arctic","arctic","674","","E","null","77","77","1","arctic-dual-task","","E","uppercase","344000","0","2","7cb2eba017d6bea56dabfa08718be554220743231a21ed12daa2e979aaabbbe3","344001","674","77","1","arctic","","","","",""
"dual-task","null","null","null","","arctic","arctic","565","","B","null","77","77","1","arctic-dual-task","","B","uppercase","358000","0","2","7cb2eba017d6bea56dabfa08718be554220743231a21ed12daa2e979aaabbbe3","358003","565","77","1","arctic","","","","",""
"dual-task","null","null","null","","arctic","arctic","624","","e","null","88","88","1","arctic-dual-task","","e","lowercase","370000","0","2","7cb2eba017d6bea56dabfa08718be554220743231a21ed12daa2e979aaabbbe3","370005","624","88","1","arctic","","","","",""
"dual-task","null","null","null","","arctic","arctic","802","","q","null","88","88","1","arctic-dual-task","","q","lowercase","380000","0","2","7cb2eba017d6bea56dabfa08718be554220743231a21ed12daa2e979aaabbbe3","380001","802","88","1","arctic","","","","",""
"dual-task","null","null","null","","arctic","arctic","708","","H","null","77","77","1","arctic-dual-task","","H","uppercase","392000","0","2","7cb2eba017d6bea56dabfa08718be554220743231a21ed12daa2e979aaabbbe3","392003","708","77","1","arctic","","","","",""
"dual-task","null","null","null","","arctic","arctic","678","","H","null","77","77","1","arctic-dual-task","","H","uppercase","400000","0","2","7cb2eba017d6bea56dabfa08718be554220743231a21ed12daa2e979aaabbbe3","400000","678","77","1","arctic","","","","",""
"dual-task","null","null","null","","arctic","arctic","1040","","f","null","88","88","1","arctic-dual-task","","f","lowercase","408000","0","2","7cb2eba017d6bea56dabfa08718be554220743231a21ed12daa2e979aaabbbe3","408004","1040","88","1","arctic","","","","",""
"dual-task","null","null","null","","arctic","arctic","614","","d","null","88","88","1","arctic-dual-task","","d","lowercase","420000","0","2","7cb2eba017d6bea56dabfa08718be554220743231a21ed12daa2e979aaabbbe3","420003","614","88","1","arctic","","","","",""
"dual-task","null","null","null","","arctic","arctic","620","","B","null","77","77","1","arctic-dual-task","","B","uppercase","430000","0","2","7cb2eba017d6bea56dabfa08718be554220743231a21ed12daa2e979aaabbbe3","430002","620","77","1","arctic","","","","",""
"dual-task","null","null","null","","arctic","arctic","642","","R","null","77","77","1","arctic-dual-task","","R","uppercase","442000","0","2","7cb2eba017d6bea56dabfa08718be554220743231a21ed12daa2e979aaabbbe3","442004","642","77","1","arctic","","","","",""
"dual-task","null","null","null","","arctic","arctic","632","","e","null","88","88","1","arctic-dual-task","","e","lowercase","456000","0","2","7cb2eba017d6bea56dabfa08718be554220743231a21ed12daa2e979aaabbbe3","456002","632","88","1","arctic","","","","",""
"dual-task","null","null","null","","arctic","arctic","627","","A","null","77","77","1","arctic-dual-task","","A","uppercase","464000","0","2","7cb2eba017d6bea56dabfa08718be554220743231a21ed12daa2e979aaabbbe3","464002","627","77","1","arctic","","","","",""
"dual-task","null","null","null","","arctic","arctic","603","","R","null","77","77","1","arctic-dual-task","","R","uppercase","470000","0","2","7cb2eba017d6bea56dabfa08718be554220743231a21ed12daa2e979aaabbbe3","470001","603","77","1","arctic","","","","",""
"dual-task","null","null","null","","arctic","arctic","597","","A","null","77","77","1","arctic-dual-task","","A","uppercase","476000","0","2","7cb2eba017d6bea56dabfa08718be554220743231a21ed12daa2e979aaabbbe3","476001","597","77","1","arctic","","","","",""
"dual-task","null","null","null","","arctic","arctic","831","","R","null","77","77","1","arctic-dual-task","","R","uppercase","490000","0","2","7cb2eba017d6bea56dabfa08718be554220743231a21ed12daa2e979aaabbbe3","490005","831","77","1","arctic","","","","",""
"dual-task","null","null","null","","arctic","arctic","640","","N","null","77","77","1","arctic-dual-task","","N","uppercase","502000","0","2","7cb2eba017d6bea56dabfa08718be554220743231a21ed12daa2e979aaabbbe3","502002","640","77","1","arctic","","","","",""
"dual-task","null","null","null","","arctic","arctic","610","","T","null","77","77","1","arctic-dual-task","","T","uppercase","510000","0","2","7cb2eba017d6bea56dabfa08718be554220743231a21ed12daa2e979aaabbbe3","510003","610","77","1","arctic","","","","",""
"dual-task","null","null","null","","arctic","arctic","553","","r","null","77","88","0","arctic-dual-task","","r","lowercase","516000","0","2","7cb2eba017d6bea56dabfa08718be554220743231a21ed12daa2e979aaabbbe3","516003","553","77","0","arctic","","","","",""
"dual-task","null","null","null","","arctic","arctic","759","","r","null","88","88","1","arctic-dual-task","","r","lowercase","526000","0","2","7cb2eba017d6bea56dabfa08718be554220743231a21ed12daa2e979aaabbbe3","526005","759","88","1","arctic","","","","",""
"dual-task","null","null","null","","arctic","arctic","695","","D","null","77","77","1","arctic-dual-task","","D","uppercase","538000","0","2","7cb2eba017d6bea56dabfa08718be554220743231a21ed12daa2e979aaabbbe3","538004","695","77","1","arctic","","","","",""
"dual-task","null","null","null","","arctic","arctic","664","","n","null","88","88","1","arctic-dual-task","","n","lowercase","552000","0","2","7cb2eba017d6bea56dabfa08718be554220743231a21ed12daa2e979aaabbbe3","552003","664","88","1","arctic","","","","",""
"dual-task","null","null","null","","arctic","arctic","653","","a","null","88","88","1","arctic-dual-task","","a","lowercase","564000","0","2","7cb2eba017d6bea56dabfa08718be554220743231a21ed12daa2e979aaabbbe3","564004","653","88","1","arctic","","","","",""
"dual-task","null","null","null","","arctic","arctic","713","","b","null","88","88","1","arctic-dual-task","","b","lowercase","572000","0","2","7cb2eba017d6bea56dabfa08718be554220743231a21ed12daa2e979aaabbbe3","572004","713","88","1","arctic","","","","",""
"dual-task","null","null","null","","arctic","arctic","662","","b","null","88","88","1","arctic-dual-task","","b","lowercase","582000","0","2","7cb2eba017d6bea56dabfa08718be554220743231a21ed12daa2e979aaabbbe3","582003","662","88","1","arctic","","","","",""
"dual-task","null","null","null","","arctic","arctic","660","","e","null","88","88","1","arctic-dual-task","","e","lowercase","590000","0","2","7cb2eba017d6bea56dabfa08718be554220743231a21ed12daa2e979aaabbbe3","590005","660","88","1","arctic","","","","",""
"dual-task","null","null","null","","arctic","arctic","777","","G","null","77","77","1","arctic-dual-task","","G","uppercase","596000","0","2","7cb2eba017d6bea56dabfa08718be554220743231a21ed12daa2e979aaabbbe3","596002","777","77","1","arctic","","","","",""
"dual-task","null","null","null","","arctic","arctic","636","","b","null","88","88","1","arctic-dual-task","","b","lowercase","604000","0","2","7cb2eba017d6bea56dabfa08718be554220743231a21ed12daa2e979aaabbbe3","604004","636","88","1","arctic","","","","",""
"dual-task","null","null","null","","arctic","arctic","708","","E","null","77","77","1","arctic-dual-task","","E","uppercase","612000","0","2","7cb2eba017d6bea56dabfa08718be554220743231a21ed12daa2e979aaabbbe3","612003","708","77","1","arctic","","","","",""
"dual-task","null","null","null","","arctic","arctic","653","","g","null","88","88","1","arctic-dual-task","","g","lowercase","624000","0","2","7cb2eba017d6bea56dabfa08718be554220743231a21ed12daa2e979aaabbbe3","624005","653","88","1","arctic","","","","",""
"dual-task","null","null","null","","arctic","arctic","973","","t","null","88","88","1","arctic-dual-task","","t","lowercase","632000","0","2","7cb2eba017d6bea56dabfa08718be554220743231a21ed12daa2e979aaabbbe3","632004","973","88","1","arctic","","","","",""
"dual-task","null","null","null","","arctic","arctic","650","","H","null","77","77","1","arctic-dual-task","","H","uppercase","644000","0","2","7cb2eba017d6bea56dabfa08718be554220743231a21ed12daa2e979aaabbbe3","644003","650","77","1","arctic","","","","",""
"dual-task","null","null","null","","arctic","arctic","574","","g","null","88","88","1","arctic-dual-task","","g","lowercase","654000","0","2","7cb2eba017d6bea56dabfa08718be554220743231a21ed12daa2e979aaabbbe3","654002","574","88","1","arctic","","","","",""
"dual-task","null","null","null","","arctic","arctic","616","","g","null","88","88","1","arctic-dual-task","","g","lowercase","664000","0","2","7cb2eba017d6bea56dabfa08718be554220743231a21ed12daa2e979aaabbbe3","664001","616","88","1","arctic","","","","",""
"dual-task","null","null","null","","arctic","arctic","865","","T","null","77","77","1","arctic-dual-task","","T","uppercase","672000","0","2","7cb2eba017d6bea56dabfa08718be554220743231a21ed12daa2e979aaabbbe3","672001","865","77","1","arctic","","","","",""
"dual-task","null","null","null","","arctic","arctic","888","","F","null","77","77","1","arctic-dual-task","","F","uppercase","678000","0","2","7cb2eba017d6bea56dabfa08718be554220743231a21ed12daa2e979aaabbbe3","678003","888","77","1","arctic","","","","",""
"dual-task","null","null","null","","arctic","arctic","544","","N","null","77","77","1","arctic-dual-task","","N","uppercase","686000","0","2","7cb2eba017d6bea56dabfa08718be554220743231a21ed12daa2e979aaabbbe3","686002","544","77","1","arctic","","","","",""
"dual-task","null","null","null","","arctic","arctic","591","","Q","null","77","77","1","arctic-dual-task","","Q","uppercase","698000","0","2","7cb2eba017d6bea56dabfa08718be554220743231a21ed12daa2e979aaabbbe3","698004","591","77","1","arctic","","","","",""
"dual-task","null","null","null","","arctic","arctic","625","","t","null","88","88","1","arctic-dual-task","","t","lowercase","712000","0","2","7cb2eba017d6bea56dabfa08718be554220743231a21ed12daa2e979aaabbbe3","712002","625","88","1","arctic","","","","",""
"dual-task","null","null","null","","arctic","arctic","1041","","f","null","77","88","0","arctic-dual-task","","f","lowercase","718000","0","2","7cb2eba017d6bea56dabfa08718be554220743231a21ed12daa2e979aaabbbe3","718002","1041","77","0","arctic","","","","",""
"dual-task","null","null","null","","arctic","arctic","575","","h","null","88","88","1","arctic-dual-task","","h","lowercase","732000","0","2","7cb2eba017d6bea56dabfa08718be554220743231a21ed12daa2e979aaabbbe3","732003","575","88","1","arctic","","","","",""
"dual-task","null","null","null","","arctic","arctic","1672","","E","null","77","77","1","arctic-dual-task","","E","uppercase","738000","0","2","7cb2eba017d6bea56dabfa08718be554220743231a21ed12daa2e979aaabbbe3","738003","1672","77","1","arctic","","","","",""
"dual-task","null","null","null","","arctic","arctic","646","","T","null","77","77","1","arctic-dual-task","","T","uppercase","752000","0","2","7cb2eba017d6bea56dabfa08718be554220743231a21ed12daa2e979aaabbbe3","752005","646","77","1","arctic","","","","",""
"dual-task","null","null","null","","arctic","arctic","1114","","t","null","88","88","1","arctic-dual-task","","t","lowercase","760000","0","2","7cb2eba017d6bea56dabfa08718be554220743231a21ed12daa2e979aaabbbe3","760004","1114","88","1","arctic","","","","",""
"dual-task","null","null","null","","arctic","arctic","495","","g","null","88","88","1","arctic-dual-task","","g","lowercase","768000","0","2","7cb2eba017d6bea56dabfa08718be554220743231a21ed12daa2e979aaabbbe3","768004","495","88","1","arctic","","","","",""
"dual-task","null","null","null","","arctic","arctic","1029","","F","null","77","77","1","arctic-dual-task","","F","uppercase","780000","0","2","7cb2eba017d6bea56dabfa08718be554220743231a21ed12daa2e979aaabbbe3","780005","1029","77","1","arctic","","","","",""
"audio-keyboard-response","29","890912","0.0-6.0-0.0-1.0","7cb2eba017d6bea56dabfa08718be554220743231a21ed12daa2e979aaabbbe3","arctic","arctic","null","","audio/story_arctic_scrambled.mp3","","null","","","","","","","","","","","","","","","","","","","",""
"html-button-response","30","894201","0.0-6.0-0.0-2.0","7cb2eba017d6bea56dabfa08718be554220743231a21ed12daa2e979aaabbbe3","arctic","arctic","3288","","<p>This concludes the story. Thank you for listening.</p><p>You will now answer some questions about the content of the story.</p>","0","","","","","","","","","","","","","","","","","","","","",""
"survey-multi-choice","31","902135","0.0-6.0-0.0-3.0-0.0","7cb2eba017d6bea56dabfa08718be554220743231a21ed12daa2e979aaabbbe3","arctic","arctic","7930","","<b>How did the narrator&#39;s neighbour respond when she told him about her expedition?</b>","","","","1","arctic-comprehension","","","","","","","","","","","","","{""Q0"":""He said she was going to fail.""}","","","",""
"survey-multi-choice","32","907923","0.0-6.0-0.0-3.0-0.1","7cb2eba017d6bea56dabfa08718be554220743231a21ed12daa2e979aaabbbe3","arctic","arctic","5531","","<b>How many sponsorships did the narrator receive to support her expedition?</b>","","","","1","arctic-comprehension","","","","","","","","","","","","","{""Q0"":""None""}","","","",""
"survey-multi-choice","33","913297","0.0-6.0-0.0-3.0-0.2","7cb2eba017d6bea56dabfa08718be554220743231a21ed12daa2e979aaabbbe3","arctic","arctic","5120","","<b>What was the objective of the narrator&#39;s expedition?</b>","","","","1","arctic-comprehension","","","","","","","","","","","","","{""Q0"":""Dogsled across Arctic America""}","","","",""
"survey-multi-choice","34","918921","0.0-6.0-0.0-3.0-0.3","7cb2eba017d6bea56dabfa08718be554220743231a21ed12daa2e979aaabbbe3","arctic","arctic","5371","","<b>How did the dogs respond when they saw the bears?</b>","","","","1","arctic-comprehension","","","","","","","","","","","","","{""Q0"":""Approached them""}","","","",""
"survey-multi-choice","35","927713","0.0-6.0-0.0-3.0-0.4","7cb2eba017d6bea56dabfa08718be554220743231a21ed12daa2e979aaabbbe3","arctic","arctic","8538","","<b>What were the weather conditions in the Arctic like the winter of the narrator&#39;s expedition?</b>","","","","1","arctic-comprehension","","","","","","","","","","","","","{""Q0"":""There were more storms than any other winter in recorded history.""}","","","",""
"survey-multi-choice","36","934287","0.0-6.0-0.0-3.0-0.5","7cb2eba017d6bea56dabfa08718be554220743231a21ed12daa2e979aaabbbe3","arctic","arctic","6321","","<b>What is the name of the narrator&#39;s neighbour?</b>","","","","1","arctic-comprehension","","","","","","","","","","","","","{""Q0"":""Dave""}","","","",""
"survey-multi-choice","37","938815","0.0-6.0-0.0-3.0-0.6","7cb2eba017d6bea56dabfa08718be554220743231a21ed12daa2e979aaabbbe3","arctic","arctic","4276","","<b>Which dog on the narrator&#39;s dog team never followed instructions?</b>","","","","1","arctic-comprehension","","","","","","","","","","","","","{""Q0"":""Robert""}","","","",""
"survey-multi-choice","38","947622","0.0-6.0-0.0-3.0-0.7","7cb2eba017d6bea56dabfa08718be554220743231a21ed12daa2e979aaabbbe3","arctic","arctic","8551","","<b>How did the narrator prepare for her expedition?</b>","","","","1","arctic-comprehension","","","","","","","","","","","","","{""Q0"":""Trained in Alaska learning how to dogsled""}","","","",""
"survey-multi-choice","39","951172","0.0-6.0-0.0-3.0-0.8","7cb2eba017d6bea56dabfa08718be554220743231a21ed12daa2e979aaabbbe3","arctic","arctic","3297","","<b>What did the narrator do for leisure while in her tent?</b>","","","","1","arctic-comprehension","","","","","","","","","","","","","{""Q0"":""Read""}","","","",""
"survey-multi-choice","40","955195","0.0-6.0-0.0-3.0-0.9","7cb2eba017d6bea56dabfa08718be554220743231a21ed12daa2e979aaabbbe3","arctic","arctic","3765","","<b>How did the narrator&#39;s encounter with the polar bears end?</b>","","","","1","arctic-comprehension","","","","","","","","","","","","","{""Q0"":""The bears walked back to their den.""}","","","",""
"html-button-response","41","957011","0.0-6.0-0.0-4.0","7cb2eba017d6bea56dabfa08718be554220743231a21ed12daa2e979aaabbbe3","arctic","arctic","1565","","<p>Thank you for your responses.</p><p>You will now answer some questions about your impressions of the story.</p>","0","","","","","","","","","","","","","","","","","","","","",""
"html-button-response","42","960157","0.0-6.0-0.0-5.0-0.0","7cb2eba017d6bea56dabfa08718be554220743231a21ed12daa2e979aaabbbe3","arctic","arctic","3145","","MS1","4","","","","arctic-engagement","","","","","","","","","","","","","","5","mental-sim","",""
"html-button-response","43","962904","0.0-6.0-0.0-5.0-0.1","7cb2eba017d6bea56dabfa08718be554220743231a21ed12daa2e979aaabbbe3","arctic","arctic","2489","","EE5","2","","","","arctic-engagement","","","","","","","","","","","","","","3","emo-engage","",""
"html-button-response","44","964934","0.0-6.0-0.0-5.0-0.2","7cb2eba017d6bea56dabfa08718be554220743231a21ed12daa2e979aaabbbe3","arctic","arctic","1774","","E10","3","","","","arctic-engagement","","","","","","","","","","","","","","4","enjoyment","",""
"html-button-response","45","969240","0.0-6.0-0.0-5.0-0.3","7cb2eba017d6bea56dabfa08718be554220743231a21ed12daa2e979aaabbbe3","arctic","arctic","4055","","EE1","3","","","","arctic-engagement","","","","","","","","","","","","","","4","emo-engage","",""
"html-button-response","46","971266","0.0-6.0-0.0-5.0-0.4","7cb2eba017d6bea56dabfa08718be554220743231a21ed12daa2e979aaabbbe3","arctic","arctic","1773","","E8","1","","","","arctic-engagement","","","","","","","","","","","","","","2","enjoyment","",""
"html-button-response","47","973112","0.0-6.0-0.0-5.0-0.5","7cb2eba017d6bea56dabfa08718be554220743231a21ed12daa2e979aaabbbe3","arctic","arctic","1595","","E6","2","","","","arctic-engagement","","","","","","","","","","","","","","3","enjoyment","",""
"html-button-response","48","976530","0.0-6.0-0.0-5.0-0.6","7cb2eba017d6bea56dabfa08718be554220743231a21ed12daa2e979aaabbbe3","arctic","arctic","3163","","MS2","5","","","","arctic-engagement","","","","","","","","","","","","","","6","mental-sim","",""
"html-button-response","49","978804","0.0-6.0-0.0-5.0-0.7","7cb2eba017d6bea56dabfa08718be554220743231a21ed12daa2e979aaabbbe3","arctic","arctic","2020","","EE4","3","","","","arctic-engagement","","","","","","","","","","","","","","4","emo-engage","",""
"html-button-response","50","980532","0.0-6.0-0.0-5.0-0.8","7cb2eba017d6bea56dabfa08718be554220743231a21ed12daa2e979aaabbbe3","arctic","arctic","1476","","E1","2","","","","arctic-engagement","","","","","","","","","","","","","","3","enjoyment","",""
"html-button-response","51","983115","0.0-6.0-0.0-5.0-0.9","7cb2eba017d6bea56dabfa08718be554220743231a21ed12daa2e979aaabbbe3","arctic","arctic","2328","","A4","0","","","","arctic-engagement","","","","","","","","","","","","","","1","absorption","",""
"html-button-response","52","985213","0.0-6.0-0.0-5.0-0.10","7cb2eba017d6bea56dabfa08718be554220743231a21ed12daa2e979aaabbbe3","arctic","arctic","1845","","E7","3","","","","arctic-engagement","","","","","","","","","","","","","","4","enjoyment","",""
"html-button-response","53","988882","0.0-6.0-0.0-5.0-0.11","7cb2eba017d6bea56dabfa08718be554220743231a21ed12daa2e979aaabbbe3","arctic","arctic","3419","","A1","2","","","","arctic-engagement","","","","","","","","","","","","","","3","absorption","",""
"html-button-response","54","991844","0.0-6.0-0.0-5.0-0.12","7cb2eba017d6bea56dabfa08718be554220743231a21ed12daa2e979aaabbbe3","arctic","arctic","2710","","A2","5","","","","arctic-engagement","","","","","","","","","","","","","","6","absorption","",""
"html-button-response","55","996322","0.0-6.0-0.0-5.0-0.13","7cb2eba017d6bea56dabfa08718be554220743231a21ed12daa2e979aaabbbe3","arctic","arctic","4224","","MS3","4","","","","arctic-engagement","","","","","","","","","","","","","","5","mental-sim","",""
"html-button-response","56","998734","0.0-6.0-0.0-5.0-0.14","7cb2eba017d6bea56dabfa08718be554220743231a21ed12daa2e979aaabbbe3","arctic","arctic","2160","","EE2","2","","","","arctic-engagement","","","","","","","","","","","","","","3","emo-engage","",""
"html-button-response","57","1000464","0.0-6.0-0.0-5.0-0.15","7cb2eba017d6bea56dabfa08718be554220743231a21ed12daa2e979aaabbbe3","arctic","arctic","1476","","A3","2","","","","arctic-engagement","","","","","","","","","","","","","","3","absorption","",""
"html-button-response","58","1003659","0.0-6.0-0.0-5.0-0.16","7cb2eba017d6bea56dabfa08718be554220743231a21ed12daa2e979aaabbbe3","arctic","arctic","2940","","A5","1","","","","arctic-engagement","","","","","","","","","","","","","","2","absorption","",""
"html-button-response","59","1005757","0.0-6.0-0.0-5.0-0.17","7cb2eba017d6bea56dabfa08718be554220743231a21ed12daa2e979aaabbbe3","arctic","arctic","1846","","EE3","2","","","","arctic-engagement","","","","","","","","","","","","","","3","emo-engage","",""
"html-keyboard-response","60","1013214","0.0-6.0-1.0","7cb2eba017d6bea56dabfa08718be554220743231a21ed12daa2e979aaabbbe3","arctic","arctic","7204","","<p>Thank you for your responses. You will now listen to the second story.</p><p>Remember, as you listen to the story you will see letters appear on the screen.</br>As quickly as possible, press <b>&lt;x&gt;</b> if the letter is lowercase and <b>&lt;m&gt;</b> if the letter is uppercase.</p><p>Press <b>&lt;x&gt;</b> or <b>&lt;m&gt;</b> to begin listening!</p>","","88","","","","","","","","","","","","","","","","","","","",""
"html-keyboard-response","61","1013719","0.0-6.0-2.0-0.0","7cb2eba017d6bea56dabfa08718be554220743231a21ed12daa2e979aaabbbe3","arctic","arctic","null","","<div style=""font-size:60px;"" tabindex=""0"">+</div>","","null","","","","","","","","","","","","","","","","","","","",""
"dual-task","null","null","null","","arctic","arctic","922","","H","null","77","77","1","swim-dual-task","","H","uppercase","12000","0","2","7cb2eba017d6bea56dabfa08718be554220743231a21ed12daa2e979aaabbbe3","12001","922","77","1","swim","","","","",""
"dual-task","null","null","null","","arctic","arctic","807","","a","null","88","88","1","swim-dual-task","","a","lowercase","24000","0","2","7cb2eba017d6bea56dabfa08718be554220743231a21ed12daa2e979aaabbbe3","24004","807","88","1","swim","","","","",""
"dual-task","null","null","null","","arctic","arctic","953","","R","null","77","77","1","swim-dual-task","","R","uppercase","34000","0","2","7cb2eba017d6bea56dabfa08718be554220743231a21ed12daa2e979aaabbbe3","34002","953","77","1","swim","","","","",""
"dual-task","null","null","null","","arctic","arctic","1142","","H","null","77","77","1","swim-dual-task","","H","uppercase","42000","0","2","7cb2eba017d6bea56dabfa08718be554220743231a21ed12daa2e979aaabbbe3","42001","1142","77","1","swim","","","","",""
"dual-task","null","null","null","","arctic","arctic","1137","","G","null","77","77","1","swim-dual-task","","G","uppercase","50000","0","2","7cb2eba017d6bea56dabfa08718be554220743231a21ed12daa2e979aaabbbe3","50000","1137","77","1","swim","","","","",""
"dual-task","null","null","null","","arctic","arctic","1029","","a","null","88","88","1","swim-dual-task","","a","lowercase","58000","0","2","7cb2eba017d6bea56dabfa08718be554220743231a21ed12daa2e979aaabbbe3","58002","1029","88","1","swim","","","","",""
"dual-task","null","null","null","","arctic","arctic","1064","","A","null","77","77","1","swim-dual-task","","A","uppercase","68000","0","2","7cb2eba017d6bea56dabfa08718be554220743231a21ed12daa2e979aaabbbe3","68005","1064","77","1","swim","","","","",""
"dual-task","null","null","null","","arctic","arctic","880","","E","null","77","77","1","swim-dual-task","","E","uppercase","78000","0","2","7cb2eba017d6bea56dabfa08718be554220743231a21ed12daa2e979aaabbbe3","78000","880","77","1","swim","","","","",""
"dual-task","null","null","null","","arctic","arctic","939","","Q","null","77","77","1","swim-dual-task","","Q","uppercase","86000","0","2","7cb2eba017d6bea56dabfa08718be554220743231a21ed12daa2e979aaabbbe3","86000","939","77","1","swim","","","","",""
"dual-task","null","null","null","","arctic","arctic","1042","","G","null","77","77","1","swim-dual-task","","G","uppercase","98000","0","2","7cb2eba017d6bea56dabfa08718be554220743231a21ed12daa2e979aaabbbe3","98002","1042","77","1","swim","","","","",""
"dual-task","null","null","null","","arctic","arctic","1025","","t","null","88","88","1","swim-dual-task","","t","lowercase","110000","0","2","7cb2eba017d6bea56dabfa08718be554220743231a21ed12daa2e979aaabbbe3","110001","1025","88","1","swim","","","","",""
"dual-task","null","null","null","","arctic","arctic","989","","T","null","77","77","1","swim-dual-task","","T","uppercase","118000","0","2","7cb2eba017d6bea56dabfa08718be554220743231a21ed12daa2e979aaabbbe3","118003","989","77","1","swim","","","","",""
"dual-task","null","null","null","","arctic","arctic","1183","","h","null","88","88","1","swim-dual-task","","h","lowercase","132000","0","2","7cb2eba017d6bea56dabfa08718be554220743231a21ed12daa2e979aaabbbe3","132001","1183","88","1","swim","","","","",""
"dual-task","null","null","null","","arctic","arctic","1122","","N","null","77","77","1","swim-dual-task","","N","uppercase","146000","0","2","7cb2eba017d6bea56dabfa08718be554220743231a21ed12daa2e979aaabbbe3","146000","1122","77","1","swim","","","","",""
"dual-task","null","null","null","","arctic","arctic","885","","N","null","77","77","1","swim-dual-task","","N","uppercase","154000","0","2","7cb2eba017d6bea56dabfa08718be554220743231a21ed12daa2e979aaabbbe3","154002","885","77","1","swim","","","","",""
"dual-task","null","null","null","","arctic","arctic","902","","G","null","77","77","1","swim-dual-task","","G","uppercase","160000","0","2","7cb2eba017d6bea56dabfa08718be554220743231a21ed12daa2e979aaabbbe3","160003","902","77","1","swim","","","","",""
"dual-task","null","null","null","","arctic","arctic","1297","","B","null","77","77","1","swim-dual-task","","B","uppercase","170000","0","2","7cb2eba017d6bea56dabfa08718be554220743231a21ed12daa2e979aaabbbe3","170003","1297","77","1","swim","","","","",""
"dual-task","null","null","null","","arctic","arctic","1162","","B","null","77","77","1","swim-dual-task","","B","uppercase","182000","0","2","7cb2eba017d6bea56dabfa08718be554220743231a21ed12daa2e979aaabbbe3","182003","1162","77","1","swim","","","","",""
"dual-task","null","null","null","","arctic","arctic","1586","","t","null","88","88","1","swim-dual-task","","t","lowercase","190000","0","2","7cb2eba017d6bea56dabfa08718be554220743231a21ed12daa2e979aaabbbe3","190004","1586","88","1","swim","","","","",""
"dual-task","null","null","null","","arctic","arctic","1253","","h","null","88","88","1","swim-dual-task","","h","lowercase","202000","0","2","7cb2eba017d6bea56dabfa08718be554220743231a21ed12daa2e979aaabbbe3","202004","1253","88","1","swim","","","","",""
"dual-task","null","null","null","","arctic","arctic","1187","","q","null","88","88","1","swim-dual-task","","q","lowercase","214000","0","2","7cb2eba017d6bea56dabfa08718be554220743231a21ed12daa2e979aaabbbe3","214002","1187","88","1","swim","","","","",""
"dual-task","null","null","null","","arctic","arctic","875","","n","null","88","88","1","swim-dual-task","","n","lowercase","226000","0","2","7cb2eba017d6bea56dabfa08718be554220743231a21ed12daa2e979aaabbbe3","226001","875","88","1","swim","","","","",""
"dual-task","null","null","null","","arctic","arctic","1102","","F","null","77","77","1","swim-dual-task","","F","uppercase","234000","0","2","7cb2eba017d6bea56dabfa08718be554220743231a21ed12daa2e979aaabbbe3","234003","1102","77","1","swim","","","","",""
"dual-task","null","null","null","","arctic","arctic","1083","","A","null","77","77","1","swim-dual-task","","A","uppercase","242000","0","2","7cb2eba017d6bea56dabfa08718be554220743231a21ed12daa2e979aaabbbe3","242000","1083","77","1","swim","","","","",""
"dual-task","null","null","null","","arctic","arctic","1074","","N","null","77","77","1","swim-dual-task","","N","uppercase","248000","0","2","7cb2eba017d6bea56dabfa08718be554220743231a21ed12daa2e979aaabbbe3","248002","1074","77","1","swim","","","","",""
"dual-task","null","null","null","","arctic","arctic","944","","R","null","77","77","1","swim-dual-task","","R","uppercase","256000","0","2","7cb2eba017d6bea56dabfa08718be554220743231a21ed12daa2e979aaabbbe3","256002","944","77","1","swim","","","","",""
"dual-task","null","null","null","","arctic","arctic","997","","d","null","88","88","1","swim-dual-task","","d","lowercase","264000","0","2","7cb2eba017d6bea56dabfa08718be554220743231a21ed12daa2e979aaabbbe3","264001","997","88","1","swim","","","","",""
"dual-task","null","null","null","","arctic","arctic","979","","e","null","88","88","1","swim-dual-task","","e","lowercase","270000","0","2","7cb2eba017d6bea56dabfa08718be554220743231a21ed12daa2e979aaabbbe3","270000","979","88","1","swim","","","","",""
"dual-task","null","null","null","","arctic","arctic","1098","","h","null","88","88","1","swim-dual-task","","h","lowercase","280000","0","2","7cb2eba017d6bea56dabfa08718be554220743231a21ed12daa2e979aaabbbe3","280003","1098","88","1","swim","","","","",""
"dual-task","null","null","null","","arctic","arctic","1090","","E","null","77","77","1","swim-dual-task","","E","uppercase","286000","0","2","7cb2eba017d6bea56dabfa08718be554220743231a21ed12daa2e979aaabbbe3","286001","1090","77","1","swim","","","","",""
"dual-task","null","null","null","","arctic","arctic","999","","f","null","88","88","1","swim-dual-task","","f","lowercase","294000","0","2","7cb2eba017d6bea56dabfa08718be554220743231a21ed12daa2e979aaabbbe3","294005","999","88","1","swim","","","","",""
"dual-task","null","null","null","","arctic","arctic","1086","","F","null","77","77","1","swim-dual-task","","F","uppercase","306000","0","2","7cb2eba017d6bea56dabfa08718be554220743231a21ed12daa2e979aaabbbe3","306000","1086","77","1","swim","","","","",""
"dual-task","null","null","null","","arctic","arctic","1103","","H","null","77","77","1","swim-dual-task","","H","uppercase","314000","0","2","7cb2eba017d6bea56dabfa08718be554220743231a21ed12daa2e979aaabbbe3","314002","1103","77","1","swim","","","","",""
"dual-task","null","null","null","","arctic","arctic","1066","","B","null","77","77","1","swim-dual-task","","B","uppercase","326000","0","2","7cb2eba017d6bea56dabfa08718be554220743231a21ed12daa2e979aaabbbe3","326004","1066","77","1","swim","","","","",""
"dual-task","null","null","null","","arctic","arctic","1097","","E","null","77","77","1","swim-dual-task","","E","uppercase","338000","0","2","7cb2eba017d6bea56dabfa08718be554220743231a21ed12daa2e979aaabbbe3","338001","1097","77","1","swim","","","","",""
"dual-task","null","null","null","","arctic","arctic","1060","","D","null","77","77","1","swim-dual-task","","D","uppercase","348000","0","2","7cb2eba017d6bea56dabfa08718be554220743231a21ed12daa2e979aaabbbe3","348002","1060","77","1","swim","","","","",""
"dual-task","null","null","null","","arctic","arctic","951","","T","null","77","77","1","swim-dual-task","","T","uppercase","356000","0","2","7cb2eba017d6bea56dabfa08718be554220743231a21ed12daa2e979aaabbbe3","356004","951","77","1","swim","","","","",""
"dual-task","null","null","null","","arctic","arctic","846","","g","null","88","88","1","swim-dual-task","","g","lowercase","364000","0","2","7cb2eba017d6bea56dabfa08718be554220743231a21ed12daa2e979aaabbbe3","364004","846","88","1","swim","","","","",""
"dual-task","null","null","null","","arctic","arctic","1017","","Q","null","77","77","1","swim-dual-task","","Q","uppercase","376000","0","2","7cb2eba017d6bea56dabfa08718be554220743231a21ed12daa2e979aaabbbe3","375999","1017","77","1","swim","","","","",""
"dual-task","null","null","null","","arctic","arctic","1161","","d","null","88","88","1","swim-dual-task","","d","lowercase","384000","0","2","7cb2eba017d6bea56dabfa08718be554220743231a21ed12daa2e979aaabbbe3","384002","1161","88","1","swim","","","","",""
"dual-task","null","null","null","","arctic","arctic","1071","","T","null","77","77","1","swim-dual-task","","T","uppercase","394000","0","2","7cb2eba017d6bea56dabfa08718be554220743231a21ed12daa2e979aaabbbe3","394001","1071","77","1","swim","","","","",""
"dual-task","null","null","null","","arctic","arctic","967","","D","null","77","77","1","swim-dual-task","","D","uppercase","404000","0","2","7cb2eba017d6bea56dabfa08718be554220743231a21ed12daa2e979aaabbbe3","404000","967","77","1","swim","","","","",""
"dual-task","null","null","null","","arctic","arctic","1447","","Q","null","77","77","1","swim-dual-task","","Q","uppercase","410000","0","2","7cb2eba017d6bea56dabfa08718be554220743231a21ed12daa2e979aaabbbe3","410002","1447","77","1","swim","","","","",""
"dual-task","null","null","null","","arctic","arctic","921","","Q","null","77","77","1","swim-dual-task","","Q","uppercase","420000","0","2","7cb2eba017d6bea56dabfa08718be554220743231a21ed12daa2e979aaabbbe3","420004","921","77","1","swim","","","","",""
"dual-task","null","null","null","","arctic","arctic","998","","A","null","77","77","1","swim-dual-task","","A","uppercase","430000","0","2","7cb2eba017d6bea56dabfa08718be554220743231a21ed12daa2e979aaabbbe3","430000","998","77","1","swim","","","","",""
"dual-task","null","null","null","","arctic","arctic","1042","","b","null","88","88","1","swim-dual-task","","b","lowercase","436000","0","2","7cb2eba017d6bea56dabfa08718be554220743231a21ed12daa2e979aaabbbe3","436003","1042","88","1","swim","","","","",""
"dual-task","null","null","null","","arctic","arctic","1267","","G","null","77","77","1","swim-dual-task","","G","uppercase","442000","0","2","7cb2eba017d6bea56dabfa08718be554220743231a21ed12daa2e979aaabbbe3","442002","1267","77","1","swim","","","","",""
"dual-task","null","null","null","","arctic","arctic","1042","","b","null","88","88","1","swim-dual-task","","b","lowercase","454000","0","2","7cb2eba017d6bea56dabfa08718be554220743231a21ed12daa2e979aaabbbe3","454001","1042","88","1","swim","","","","",""
"dual-task","null","null","null","","arctic","arctic","973","","n","null","88","88","1","swim-dual-task","","n","lowercase","462000","0","2","7cb2eba017d6bea56dabfa08718be554220743231a21ed12daa2e979aaabbbe3","462001","973","88","1","swim","","","","",""
"dual-task","null","null","null","","arctic","arctic","911","","T","null","77","77","1","swim-dual-task","","T","uppercase","476000","0","2","7cb2eba017d6bea56dabfa08718be554220743231a21ed12daa2e979aaabbbe3","476002","911","77","1","swim","","","","",""
"dual-task","null","null","null","","arctic","arctic","879","","R","null","77","77","1","swim-dual-task","","R","uppercase","490000","0","2","7cb2eba017d6bea56dabfa08718be554220743231a21ed12daa2e979aaabbbe3","490001","879","77","1","swim","","","","",""
"dual-task","null","null","null","","arctic","arctic","NA","","n","null","NA","88","0","swim-dual-task","","n","lowercase","496000","1","2","7cb2eba017d6bea56dabfa08718be554220743231a21ed12daa2e979aaabbbe3","496003","NA","NA","0","swim","","","","",""
"dual-task","null","null","null","","arctic","arctic","945","","F","null","77","77","1","swim-dual-task","","F","uppercase","510000","0","2","7cb2eba017d6bea56dabfa08718be554220743231a21ed12daa2e979aaabbbe3","510002","945","77","1","swim","","","","",""
"dual-task","null","null","null","","arctic","arctic","1366","","g","null","88","88","1","swim-dual-task","","g","lowercase","520000","0","2","7cb2eba017d6bea56dabfa08718be554220743231a21ed12daa2e979aaabbbe3","520004","1366","88","1","swim","","","","",""
"dual-task","null","null","null","","arctic","arctic","1022","","E","null","77","77","1","swim-dual-task","","E","uppercase","528000","0","2","7cb2eba017d6bea56dabfa08718be554220743231a21ed12daa2e979aaabbbe3","528003","1022","77","1","swim","","","","",""
"dual-task","null","null","null","","arctic","arctic","1094","","b","null","88","88","1","swim-dual-task","","b","lowercase","540000","0","2","7cb2eba017d6bea56dabfa08718be554220743231a21ed12daa2e979aaabbbe3","540002","1094","88","1","swim","","","","",""
"dual-task","null","null","null","","arctic","arctic","883","","h","null","88","88","1","swim-dual-task","","h","lowercase","546000","0","2","7cb2eba017d6bea56dabfa08718be554220743231a21ed12daa2e979aaabbbe3","546001","883","88","1","swim","","","","",""
"dual-task","null","null","null","","arctic","arctic","857","","e","null","88","88","1","swim-dual-task","","e","lowercase","554000","0","2","7cb2eba017d6bea56dabfa08718be554220743231a21ed12daa2e979aaabbbe3","554003","857","88","1","swim","","","","",""
"dual-task","null","null","null","","arctic","arctic","1031","","B","null","77","77","1","swim-dual-task","","B","uppercase","566000","0","2","7cb2eba017d6bea56dabfa08718be554220743231a21ed12daa2e979aaabbbe3","566002","1031","77","1","swim","","","","",""
"dual-task","null","null","null","","arctic","arctic","933","","e","null","88","88","1","swim-dual-task","","e","lowercase","578000","0","2","7cb2eba017d6bea56dabfa08718be554220743231a21ed12daa2e979aaabbbe3","578005","933","88","1","swim","","","","",""
"dual-task","null","null","null","","arctic","arctic","930","","r","null","88","88","1","swim-dual-task","","r","lowercase","588000","0","2","7cb2eba017d6bea56dabfa08718be554220743231a21ed12daa2e979aaabbbe3","588004","930","88","1","swim","","","","",""
"dual-task","null","null","null","","arctic","arctic","1001","","a","null","88","88","1","swim-dual-task","","a","lowercase","600000","0","2","7cb2eba017d6bea56dabfa08718be554220743231a21ed12daa2e979aaabbbe3","600002","1001","88","1","swim","","","","",""
"dual-task","null","null","null","","arctic","arctic","1091","","D","null","77","77","1","swim-dual-task","","D","uppercase","610000","0","2","7cb2eba017d6bea56dabfa08718be554220743231a21ed12daa2e979aaabbbe3","610005","1091","77","1","swim","","","","",""
"dual-task","null","null","null","","arctic","arctic","1009","","b","null","88","88","1","swim-dual-task","","b","lowercase","622000","0","2","7cb2eba017d6bea56dabfa08718be554220743231a21ed12daa2e979aaabbbe3","622001","1009","88","1","swim","","","","",""
"dual-task","null","null","null","","arctic","arctic","854","","g","null","88","88","1","swim-dual-task","","g","lowercase","634000","0","2","7cb2eba017d6bea56dabfa08718be554220743231a21ed12daa2e979aaabbbe3","634003","854","88","1","swim","","","","",""
"dual-task","null","null","null","","arctic","arctic","838","","q","null","88","88","1","swim-dual-task","","q","lowercase","640000","0","2","7cb2eba017d6bea56dabfa08718be554220743231a21ed12daa2e979aaabbbe3","640004","838","88","1","swim","","","","",""
"dual-task","null","null","null","","arctic","arctic","914","","r","null","88","88","1","swim-dual-task","","r","lowercase","652000","0","2","7cb2eba017d6bea56dabfa08718be554220743231a21ed12daa2e979aaabbbe3","652001","914","88","1","swim","","","","",""
"dual-task","null","null","null","","arctic","arctic","849","","f","null","88","88","1","swim-dual-task","","f","lowercase","662000","0","2","7cb2eba017d6bea56dabfa08718be554220743231a21ed12daa2e979aaabbbe3","662002","849","88","1","swim","","","","",""
"dual-task","null","null","null","","arctic","arctic","1222","","A","null","77","77","1","swim-dual-task","","A","uppercase","672000","0","2","7cb2eba017d6bea56dabfa08718be554220743231a21ed12daa2e979aaabbbe3","672004","1222","77","1","swim","","","","",""
"dual-task","null","null","null","","arctic","arctic","1063","","H","null","77","77","1","swim-dual-task","","H","uppercase","682000","0","2","7cb2eba017d6bea56dabfa08718be554220743231a21ed12daa2e979aaabbbe3","682000","1063","77","1","swim","","","","",""
"dual-task","null","null","null","","arctic","arctic","852","","q","null","88","88","1","swim-dual-task","","q","lowercase","690000","0","2","7cb2eba017d6bea56dabfa08718be554220743231a21ed12daa2e979aaabbbe3","690000","852","88","1","swim","","","","",""
"dual-task","null","null","null","","arctic","arctic","970","","a","null","88","88","1","swim-dual-task","","a","lowercase","700000","0","2","7cb2eba017d6bea56dabfa08718be554220743231a21ed12daa2e979aaabbbe3","700003","970","88","1","swim","","","","",""
"dual-task","null","null","null","","arctic","arctic","921","","f","null","88","88","1","swim-dual-task","","f","lowercase","708000","0","2","7cb2eba017d6bea56dabfa08718be554220743231a21ed12daa2e979aaabbbe3","708001","921","88","1","swim","","","","",""
"dual-task","null","null","null","","arctic","arctic","960","","n","null","88","88","1","swim-dual-task","","n","lowercase","716000","0","2","7cb2eba017d6bea56dabfa08718be554220743231a21ed12daa2e979aaabbbe3","716001","960","88","1","swim","","","","",""
"dual-task","null","null","null","","arctic","arctic","849","","e","null","88","88","1","swim-dual-task","","e","lowercase","724000","0","2","7cb2eba017d6bea56dabfa08718be554220743231a21ed12daa2e979aaabbbe3","724003","849","88","1","swim","","","","",""
"dual-task","null","null","null","","arctic","arctic","862","","g","null","88","88","1","swim-dual-task","","g","lowercase","736000","0","2","7cb2eba017d6bea56dabfa08718be554220743231a21ed12daa2e979aaabbbe3","736002","862","88","1","swim","","","","",""
"dual-task","null","null","null","","arctic","arctic","878","","d","null","88","88","1","swim-dual-task","","d","lowercase","744000","0","2","7cb2eba017d6bea56dabfa08718be554220743231a21ed12daa2e979aaabbbe3","744004","878","88","1","swim","","","","",""
"dual-task","null","null","null","","arctic","arctic","992","","r","null","88","88","1","swim-dual-task","","r","lowercase","756000","0","2","7cb2eba017d6bea56dabfa08718be554220743231a21ed12daa2e979aaabbbe3","756000","992","88","1","swim","","","","",""
"dual-task","null","null","null","","arctic","arctic","911","","r","null","88","88","1","swim-dual-task","","r","lowercase","768000","0","2","7cb2eba017d6bea56dabfa08718be554220743231a21ed12daa2e979aaabbbe3","768005","911","88","1","swim","","","","",""
"dual-task","null","null","null","","arctic","arctic","1115","","F","null","77","77","1","swim-dual-task","","F","uppercase","782000","0","2","7cb2eba017d6bea56dabfa08718be554220743231a21ed12daa2e979aaabbbe3","782003","1115","77","1","swim","","","","",""
"dual-task","null","null","null","","arctic","arctic","1018","","D","null","77","77","1","swim-dual-task","","D","uppercase","790000","0","2","7cb2eba017d6bea56dabfa08718be554220743231a21ed12daa2e979aaabbbe3","790003","1018","77","1","swim","","","","",""
"audio-keyboard-response","62","1796773","0.0-6.0-2.0-1.0","7cb2eba017d6bea56dabfa08718be554220743231a21ed12daa2e979aaabbbe3","arctic","arctic","null","","audio/story_swim.mp3","","null","","","","","","","","","","","","","","","","","","","",""
"html-button-response","63","1799748","0.0-6.0-2.0-2.0","7cb2eba017d6bea56dabfa08718be554220743231a21ed12daa2e979aaabbbe3","arctic","arctic","2975","","<p>This concludes the story. Thank you for listening.</p><p>You will now answer some questions about the content of the story.</p>","0","","","","","","","","","","","","","","","","","","","","",""
"survey-multi-choice","64","1805108","0.0-6.0-2.0-3.0-0.0","7cb2eba017d6bea56dabfa08718be554220743231a21ed12daa2e979aaabbbe3","arctic","arctic","5359","","<b>How often does the narrator swim, now that he is a good swimmer?</b>","","","","1","swim-comprehension","","","","","","","","","","","","","{""Q0"":""Never swam again in his life""}","","","",""
"survey-multi-choice","65","1812927","0.0-6.0-2.0-3.0-0.1","7cb2eba017d6bea56dabfa08718be554220743231a21ed12daa2e979aaabbbe3","arctic","arctic","7566","","<b>What were the astronaut candidates trained to do at the naval air station?</b>","","","","1","swim-comprehension","","","","","","","","","","","","","{""Q0"":""Eject out of aircraft and survive in water long enough to be rescued""}","","","",""
"survey-multi-choice","66","1816521","0.0-6.0-2.0-3.0-0.2","7cb2eba017d6bea56dabfa08718be554220743231a21ed12daa2e979aaabbbe3","arctic","arctic","3339","","<b>How many times did the astronaut candidates have to complete the final exercise to pass?</b>","","","","1","swim-comprehension","","","","","","","","","","","","","{""Q0"":""Two""}","","","",""
"survey-multi-choice","67","1820810","0.0-6.0-2.0-3.0-0.3","7cb2eba017d6bea56dabfa08718be554220743231a21ed12daa2e979aaabbbe3","arctic","arctic","4035","","<b>What gave the narrator his greatest feeling of accomplishment?</b>","","","","1","swim-comprehension","","","","","","","","","","","","","{""Q0"":""Passing the water survival course""}","","","",""
"survey-multi-choice","68","1828778","0.0-6.0-2.0-3.0-0.4","7cb2eba017d6bea56dabfa08718be554220743231a21ed12daa2e979aaabbbe3","arctic","arctic","7716","","<b>How did the narrator train for his swim test?</b>","","","","0","swim-comprehension","","","","","","","","","","","","","{""Q0"":""Signed up for a swim class""}","","","",""
"survey-multi-choice","69","1833100","0.0-6.0-2.0-3.0-0.5","7cb2eba017d6bea56dabfa08718be554220743231a21ed12daa2e979aaabbbe3","arctic","arctic","4066","","<b>What was the final step of the first swim test in the pool?</b>","","","","1","swim-comprehension","","","","","","","","","","","","","{""Q0"":""Tread water with hands above the water""}","","","",""
"survey-multi-choice","70","1835911","0.0-6.0-2.0-3.0-0.6","7cb2eba017d6bea56dabfa08718be554220743231a21ed12daa2e979aaabbbe3","arctic","arctic","2559","","<b>How many astronaut candidates reported for duty at the Johnson Space Center?</b>","","","","1","swim-comprehension","","","","","","","","","","","","","{""Q0"":""Forty-four""}","","","",""
"survey-multi-choice","71","1840438","0.0-6.0-2.0-3.0-0.7","7cb2eba017d6bea56dabfa08718be554220743231a21ed12daa2e979aaabbbe3","arctic","arctic","4276","","<b>Where is the home of naval aviation?</b>","","","","1","swim-comprehension","","","","","","","","","","","","","{""Q0"":""Pensacola""}","","","",""
"survey-multi-choice","72","1844250","0.0-6.0-2.0-3.0-0.8","7cb2eba017d6bea56dabfa08718be554220743231a21ed12daa2e979aaabbbe3","arctic","arctic","3558","","<b>How many astronaut candidates passed the first swim test?</b>","","","","1","swim-comprehension","","","","","","","","","","","","","{""Q0"":""All of them""}","","","",""
"survey-multi-choice","73","1847456","0.0-6.0-2.0-3.0-0.9","7cb2eba017d6bea56dabfa08718be554220743231a21ed12daa2e979aaabbbe3","arctic","arctic","2949","","<b>What is the narrator afraid of, aside from the water?</b>","","","","1","swim-comprehension","","","","","","","","","","","","","{""Q0"":""Heights""}","","","",""
"html-button-response","74","1848754","0.0-6.0-2.0-4.0","7cb2eba017d6bea56dabfa08718be554220743231a21ed12daa2e979aaabbbe3","arctic","arctic","1047","","<p>Thank you for your responses.</p><p>You will now answer some questions about your impressions of the story.</p>","0","","","","","","","","","","","","","","","","","","","","",""
"html-button-response","75","1850762","0.0-6.0-2.0-5.0-0.0","7cb2eba017d6bea56dabfa08718be554220743231a21ed12daa2e979aaabbbe3","arctic","arctic","2008","","E8","3","","","","swim-engagement","","","","","","","","","","","","","","4","enjoyment","",""
"html-button-response","76","1853048","0.0-6.0-2.0-5.0-0.1","7cb2eba017d6bea56dabfa08718be554220743231a21ed12daa2e979aaabbbe3","arctic","arctic","2035","","A1","4","","","","swim-engagement","","","","","","","","","","","","","","5","absorption","",""
"html-button-response","77","1854592","0.0-6.0-2.0-5.0-0.2","7cb2eba017d6bea56dabfa08718be554220743231a21ed12daa2e979aaabbbe3","arctic","arctic","1290","","E1","4","","","","swim-engagement","","","","","","","","","","","","","","5","enjoyment","",""
"html-button-response","78","1856228","0.0-6.0-2.0-5.0-0.3","7cb2eba017d6bea56dabfa08718be554220743231a21ed12daa2e979aaabbbe3","arctic","arctic","1382","","E10","6","","","","swim-engagement","","","","","","","","","","","","","","7","enjoyment","",""
"html-button-response","79","1858018","0.0-6.0-2.0-5.0-0.4","7cb2eba017d6bea56dabfa08718be554220743231a21ed12daa2e979aaabbbe3","arctic","arctic","1537","","A2","6","","","","swim-engagement","","","","","","","","","","","","","","7","absorption","",""
"html-button-response","80","1861519","0.0-6.0-2.0-5.0-0.5","7cb2eba017d6bea56dabfa08718be554220743231a21ed12daa2e979aaabbbe3","arctic","arctic","3246","","A4","4","","","","swim-engagement","","","","","","","","","","","","","","5","absorption","",""
"html-button-response","81","1864387","0.0-6.0-2.0-5.0-0.6","7cb2eba017d6bea56dabfa08718be554220743231a21ed12daa2e979aaabbbe3","arctic","arctic","2616","","A5","4","","","","swim-engagement","","","","","","","","","","","","","","5","absorption","",""
"html-button-response","82","1865756","0.0-6.0-2.0-5.0-0.7","7cb2eba017d6bea56dabfa08718be554220743231a21ed12daa2e979aaabbbe3","arctic","arctic","1115","","A3","4","","","","swim-engagement","","","","","","","","","","","","","","5","absorption","",""
"html-button-response","83","1867416","0.0-6.0-2.0-5.0-0.8","7cb2eba017d6bea56dabfa08718be554220743231a21ed12daa2e979aaabbbe3","arctic","arctic","1405","","E6","5","","","","swim-engagement","","","","","","","","","","","","","","6","enjoyment","",""
"html-button-response","84","1870499","0.0-6.0-2.0-5.0-0.9","7cb2eba017d6bea56dabfa08718be554220743231a21ed12daa2e979aaabbbe3","arctic","arctic","2829","","EE1","4","","","","swim-engagement","","","","","","","","","","","","","","5","emo-engage","",""
"html-button-response","85","1872628","0.0-6.0-2.0-5.0-0.10","7cb2eba017d6bea56dabfa08718be554220743231a21ed12daa2e979aaabbbe3","arctic","arctic","1877","","EE2","5","","","","swim-engagement","","","","","","","","","","","","","","6","emo-engage","",""
"html-button-response","86","1874580","0.0-6.0-2.0-5.0-0.11","7cb2eba017d6bea56dabfa08718be554220743231a21ed12daa2e979aaabbbe3","arctic","arctic","1698","","EE3","3","","","","swim-engagement","","","","","","","","","","","","","","4","emo-engage","",""
"html-button-response","87","1876270","0.0-6.0-2.0-5.0-0.12","7cb2eba017d6bea56dabfa08718be554220743231a21ed12daa2e979aaabbbe3","arctic","arctic","1438","","EE4","3","","","","swim-engagement","","","","","","","","","","","","","","4","emo-engage","",""
"html-button-response","88","1878649","0.0-6.0-2.0-5.0-0.13","7cb2eba017d6bea56dabfa08718be554220743231a21ed12daa2e979aaabbbe3","arctic","arctic","2125","","MS3","5","","","","swim-engagement","","","","","","","","","","","","","","6","mental-sim","",""
"html-button-response","89","1881747","0.0-6.0-2.0-5.0-0.14","7cb2eba017d6bea56dabfa08718be554220743231a21ed12daa2e979aaabbbe3","arctic","arctic","2845","","MS2","6","","","","swim-engagement","","","","","","","","","","","","","","7","mental-sim","",""
"html-button-response","90","1884213","0.0-6.0-2.0-5.0-0.15","7cb2eba017d6bea56dabfa08718be554220743231a21ed12daa2e979aaabbbe3","arctic","arctic","2212","","EE5","5","","","","swim-engagement","","","","","","","","","","","","","","6","emo-engage","",""
"html-button-response","91","1885639","0.0-6.0-2.0-5.0-0.16","7cb2eba017d6bea56dabfa08718be554220743231a21ed12daa2e979aaabbbe3","arctic","arctic","1172","","E7","5","","","","swim-engagement","","","","","","","","","","","","","","6","enjoyment","",""
"html-button-response","92","1888065","0.0-6.0-2.0-5.0-0.17","7cb2eba017d6bea56dabfa08718be554220743231a21ed12daa2e979aaabbbe3","arctic","arctic","2171","","MS1","5","","","","swim-engagement","","","","","","","","","","","","","","6","mental-sim","",""
"html-button-response","93","1889585","0.0-8.0","7cb2eba017d6bea56dabfa08718be554220743231a21ed12daa2e979aaabbbe3","arctic","arctic","1265","","<p>Thank you for your responses.</p><p>You will now answer some demographic, hearing, and general health questions.</p>","0","","","","","","","","","","","","","","","","","","","","",""
"survey-multi-choice","94","1893093","0.0-9.0-0.0","7cb2eba017d6bea56dabfa08718be554220743231a21ed12daa2e979aaabbbe3","arctic","arctic","3507","","","","","","","survey","","","","","","","","","","","","","{""Q0"":""Firefox""}","","","browser",""
"survey-text","95","1897079","0.0-9.0-1.0","7cb2eba017d6bea56dabfa08718be554220743231a21ed12daa2e979aaabbbe3","arctic","arctic","3730","","","","","","","survey","","","","","","","","","","","","","{""AGE"":""39""}","","","age","39"
"survey-multi-choice","96","1899262","0.0-9.0-2.0","7cb2eba017d6bea56dabfa08718be554220743231a21ed12daa2e979aaabbbe3","arctic","arctic","1927","","","","","","","survey","","","","","","","","","","","","","{""Q0"":""Female""}","","","gender","Female"
"survey-multi-choice","97","1901946","0.0-9.0-4.0","7cb2eba017d6bea56dabfa08718be554220743231a21ed12daa2e979aaabbbe3","arctic","arctic","2430","","","","","","","survey","","","","","","","","","","","","","{""Q0"":""Right""}","","","handedness","Right"
"survey-multi-choice","98","1904293","0.0-9.0-5.0","7cb2eba017d6bea56dabfa08718be554220743231a21ed12daa2e979aaabbbe3","arctic","arctic","2090","","","","","","","survey","","","","","","","","","","","","","{""Q0"":""Postgraduate Degree""}","","","education","Postgraduate Degree"
"survey-text","99","1907811","0.0-10.0-0.0","7cb2eba017d6bea56dabfa08718be554220743231a21ed12daa2e979aaabbbe3","arctic","arctic","3264","","","","","","","survey","","","","","","","","","","","","","{""L1"":""english""}","","","first-language","english"
"survey-text","100","1912550","0.0-10.0-1.0","7cb2eba017d6bea56dabfa08718be554220743231a21ed12daa2e979aaabbbe3","arctic","arctic","4484","","","","","","","survey","","","","","","","","","","","","","{""L2name"":"""",""L2fluency"":"""",""L3name"":"""",""L3fluency"":"""",""L4name"":"""",""L4fluency"":""""}","","","additional-languages","{""L2name"":"""",""L2fluency"":"""",""L3name"":"""",""L3fluency"":"""",""L4name"":"""",""L4fluency"":""""}"
"survey-multi-choice","101","1915574","0.0-10.0-2.0","7cb2eba017d6bea56dabfa08718be554220743231a21ed12daa2e979aaabbbe3","arctic","arctic","2770","","","","","","","survey","","","","","","","","","","","","","{""Q0"":""No""}","","","hearing-aid","No"
"survey-multi-choice","102","1918841","0.0-10.0-3.0","7cb2eba017d6bea56dabfa08718be554220743231a21ed12daa2e979aaabbbe3","arctic","arctic","3016","","","","","","","survey","","","","","","","","","","","","","{""Q0"":""Sometimes""}","","","ringing-ears","Sometimes"
"survey-multi-choice","103","1921755","0.0-10.0-4.0-0.0","7cb2eba017d6bea56dabfa08718be554220743231a21ed12daa2e979aaabbbe3","arctic","arctic","2660","","","","","","","survey","","","","","","","","","","","","","{""Q0"":""Both Ears""}","","","ringing-ear-loc","Both Ears"
"survey-multi-choice","104","1924227","0.0-10.0-5.0","7cb2eba017d6bea56dabfa08718be554220743231a21ed12daa2e979aaabbbe3","arctic","arctic","2219","","","","","","","survey","","","","","","","","","","","","","{""Q0"":""No""}","","","neuro-disease","No"
"survey-multi-choice","105","1927365","0.0-10.0-7.0","7cb2eba017d6bea56dabfa08718be554220743231a21ed12daa2e979aaabbbe3","arctic","arctic","2884","","","","","","","survey","","","","","","","","","","","","","{""Q0"":""No""}","","","take-meds","No"
"survey-text","106","1931643","0.0-10.0-9.0","7cb2eba017d6bea56dabfa08718be554220743231a21ed12daa2e979aaabbbe3","arctic","arctic","4017","","","","","","","survey","","","","","","","","","","","","","{""HC"":""no""}","","","health-concerns","no"
"html-button-response","107","1933668","0.0-11.0-0.0","7cb2eba017d6bea56dabfa08718be554220743231a21ed12daa2e979aaabbbe3","arctic","arctic","1774","","<p>How would you describe your musical skills/experiences?</p>","1","","","","survey","","","","","","","","","","","","","","","","music-skill","2"
"survey-multi-choice","108","1936855","0.0-11.0-1.0","7cb2eba017d6bea56dabfa08718be554220743231a21ed12daa2e979aaabbbe3","arctic","arctic","2931","","","","","","","survey","","","","","","","","","","","","","{""Q0"":""Yes""}","","","music-instrument","Yes"
"survey-text","109","1939319","0.0-11.0-2.0-0.0","7cb2eba017d6bea56dabfa08718be554220743231a21ed12daa2e979aaabbbe3","arctic","arctic","2211","","","","","","","survey","","","","","","","","","","","","","{""MEXP"":""2""}","","","music-training-yrs","2"
"html-button-response","110","1941600","0.0-12.0-0.0","7cb2eba017d6bea56dabfa08718be554220743231a21ed12daa2e979aaabbbe3","arctic","arctic","2029","","<p>How would you describe your general hearing abilities?</p>","4","","","","survey","","","","","","","","","","","","","","","","ssq-01","5"
"html-button-response","111","1945290","0.0-12.0-1.0","7cb2eba017d6bea56dabfa08718be554220743231a21ed12daa2e979aaabbbe3","arctic","arctic","3438","","<p>When you talk with someone at a place that strongly reverberates/echoes (e.g., in a church or train station),</br>can you understand what the person says?</p>","6","","","","survey","","","","","","","","","","","","","","","","ssq-02","6"
"html-button-response","112","1948775","0.0-12.0-2.0","7cb2eba017d6bea56dabfa08718be554220743231a21ed12daa2e979aaabbbe3","arctic","arctic","3234","","<p>When you are with a group (~5 people) in a lively restaurant, can you follow the group's conversation?</p>","9","","","","survey","","","","","","","","","","","","","","","","ssq-03","9"
"html-button-response","113","1952457","0.0-12.0-3.0","7cb2eba017d6bea56dabfa08718be554220743231a21ed12daa2e979aaabbbe3","arctic","arctic","3428","","<p>Based on the sound of a bus or truck, can you tell whether it is moving towards or away from you?</p>","8","","","","survey","","","","","","","","","","","","","","","","ssq-04","8"
"html-button-response","114","1956637","0.0-12.0-4.0","7cb2eba017d6bea56dabfa08718be554220743231a21ed12daa2e979aaabbbe3","arctic","arctic","3925","","<p>When you are in an unknown environment, can you tell from which direction a brief sound originates?</p>","8","","","","survey","","","","","","","","","","","","","","","","ssq-05","8"
"html-button-response","115","1960745","0.0-12.0-5.0","7cb2eba017d6bea56dabfa08718be554220743231a21ed12daa2e979aaabbbe3","arctic","arctic","3855","","<p>Are you able to ignore distracting sounds when you concentrate on a specific aspect of your acoustic surrounding?</p>","5","","","","survey","","","","","","","","","","","","","","","","ssq-06","5"
"fullscreen","116","1962005","0.0-13.0","7cb2eba017d6bea56dabfa08718be554220743231a21ed12daa2e979aaabbbe3","arctic","arctic","","","","","","","","","true","","","","","","","","","","","","","","","",""
