"trial_type","trial_index","time_elapsed","internal_node_id","ParticipantID","firstStory","scramStory","rt","url","stimulus","button_pressed","key_press","correctRESP","correct","designation","success","letterStim","letterType","ONSET","TIMEOUT","CONDITION","Participant","ONSET_ACTUAL","RT","RESP","ACC","STORY","responses","response","type","surveyQuestion","QRESP"
"pavlovia","0","7","0.0-0.0","01d92d17ed0ea9d99d2bac6381808c7ee69318be66dd3daf29c6bf4568786f8d","arctic","swim","","","","","","","","","","","","","","","","","","","","","","","","",""
"external-html","1","14415","0.0-1.0","01d92d17ed0ea9d99d2bac6381808c7ee69318be66dd3daf29c6bf4568786f8d","arctic","swim","14257","consent/consent_updated.html","","","","","","","","","","","","","","","","","","","","","","",""
"html-button-response","2","27621","0.0-2.0-0.0","01d92d17ed0ea9d99d2bac6381808c7ee69318be66dd3daf29c6bf4568786f8d","arctic","swim","13204","","<p>Before we begin the main task, you will complete a short volume calibration and headphone check.</p><p>Please make sure you are in a quiet listening environment, that you are wearing headphones, and that your computer's volume is turned on.<p></p>","0","","","","","","","","","","","","","","","","","","","","",""
"html-button-response","3","30591","0.0-2.0-1.0","01d92d17ed0ea9d99d2bac6381808c7ee69318be66dd3daf29c6bf4568786f8d","arctic","swim","2718","","<p>The volume calibration will be first.</p><p>You will hear a thirty-second noise. Please adjust your computer's volume so that this noise is being presented at a comfortable level.<p></p>","0","","","","","","","","","","","","","","","","","","","","",""
"audio-button-response","4","34003","0.0-2.0-2.0","01d92d17ed0ea9d99d2bac6381808c7ee69318be66dd3daf29c6bf4568786f8d","arctic","swim","3153","","audio/volumetest.mp3","0","","","","","","","","","","","","","","","","","","","","",""
"html-keyboard-response","5","53220","0.0-3.0-0.0","01d92d17ed0ea9d99d2bac6381808c7ee69318be66dd3daf29c6bf4568786f8d","arctic","swim","19215","","<p>You will now complete a short headphone check.</p><p>On each trial, you will hear three tones. One of these tones will be quieter than the others. Your task is to identify whether the quiet tone occurred first, second, or third.</p><p>There are six trials in total.<p></p><p></p>(Press SPACEBAR to begin)","","32","","","","","","","","","","","","","","","","","","","",""
"html-keyboard-response","6","53972","0.0-3.0-1.0-0.0","01d92d17ed0ea9d99d2bac6381808c7ee69318be66dd3daf29c6bf4568786f8d","arctic","swim","null","","<div style=""font-size:60px;"">+</div>","","null","","","","","","","","","","","","","","","","","","","",""
"audio-button-response","7","60372","0.0-3.0-1.0-1.0","01d92d17ed0ea9d99d2bac6381808c7ee69318be66dd3daf29c6bf4568786f8d","arctic","swim","6398","","audio/t3_1.mp3","2","","2","1","headphone-test","","","","","","","","","","","","","","","","",""
"html-keyboard-response","8","60878","0.0-3.0-1.0-2.0","01d92d17ed0ea9d99d2bac6381808c7ee69318be66dd3daf29c6bf4568786f8d","arctic","swim","null","","<p>Correct</p>","","null","","","","","","","","","","","","","","","","","","","",""
"html-keyboard-response","9","61380","0.0-3.0-1.0-0.1","01d92d17ed0ea9d99d2bac6381808c7ee69318be66dd3daf29c6bf4568786f8d","arctic","swim","null","","<div style=""font-size:60px;"">+</div>","","null","","","","","","","","","","","","","","","","","","","",""
"audio-button-response","10","67472","0.0-3.0-1.0-1.1","01d92d17ed0ea9d99d2bac6381808c7ee69318be66dd3daf29c6bf4568786f8d","arctic","swim","6090","","audio/t1_1.mp3","0","","0","1","headphone-test","","","","","","","","","","","","","","","","",""
"html-keyboard-response","11","67974","0.0-3.0-1.0-2.1","01d92d17ed0ea9d99d2bac6381808c7ee69318be66dd3daf29c6bf4568786f8d","arctic","swim","null","","<p>Correct</p>","","null","","","","","","","","","","","","","","","","","","","",""
"html-keyboard-response","12","68473","0.0-3.0-1.0-0.2","01d92d17ed0ea9d99d2bac6381808c7ee69318be66dd3daf29c6bf4568786f8d","arctic","swim","null","","<div style=""font-size:60px;"">+</div>","","null","","","","","","","","","","","","","","","","","","","",""
"audio-button-response","13","74846","0.0-3.0-1.0-1.2","01d92d17ed0ea9d99d2bac6381808c7ee69318be66dd3daf29c6bf4568786f8d","arctic","swim","6370","","audio/t2_1.mp3","1","","1","1","headphone-test","","","","","","","","","","","","","","","","",""
"html-keyboard-response","14","75348","0.0-3.0-1.0-2.2","01d92d17ed0ea9d99d2bac6381808c7ee69318be66dd3daf29c6bf4568786f8d","arctic","swim","null","","<p>Correct</p>","","null","","","","","","","","","","","","","","","","","","","",""
"html-keyboard-response","15","75848","0.0-3.0-1.0-0.3","01d92d17ed0ea9d99d2bac6381808c7ee69318be66dd3daf29c6bf4568786f8d","arctic","swim","null","","<div style=""font-size:60px;"">+</div>","","null","","","","","","","","","","","","","","","","","","","",""
"audio-button-response","16","81988","0.0-3.0-1.0-1.3","01d92d17ed0ea9d99d2bac6381808c7ee69318be66dd3daf29c6bf4568786f8d","arctic","swim","6138","","audio/t3_2.mp3","2","","2","1","headphone-test","","","","","","","","","","","","","","","","",""
"html-keyboard-response","17","82490","0.0-3.0-1.0-2.3","01d92d17ed0ea9d99d2bac6381808c7ee69318be66dd3daf29c6bf4568786f8d","arctic","swim","null","","<p>Correct</p>","","null","","","","","","","","","","","","","","","","","","","",""
"html-keyboard-response","18","82991","0.0-3.0-1.0-0.4","01d92d17ed0ea9d99d2bac6381808c7ee69318be66dd3daf29c6bf4568786f8d","arctic","swim","null","","<div style=""font-size:60px;"">+</div>","","null","","","","","","","","","","","","","","","","","","","",""
"audio-button-response","19","87723","0.0-3.0-1.0-1.4","01d92d17ed0ea9d99d2bac6381808c7ee69318be66dd3daf29c6bf4568786f8d","arctic","swim","4731","","audio/t1_2.mp3","0","","0","1","headphone-test","","","","","","","","","","","","","","","","",""
"html-keyboard-response","20","88225","0.0-3.0-1.0-2.4","01d92d17ed0ea9d99d2bac6381808c7ee69318be66dd3daf29c6bf4568786f8d","arctic","swim","null","","<p>Correct</p>","","null","","","","","","","","","","","","","","","","","","","",""
"html-keyboard-response","21","88725","0.0-3.0-1.0-0.5","01d92d17ed0ea9d99d2bac6381808c7ee69318be66dd3daf29c6bf4568786f8d","arctic","swim","null","","<div style=""font-size:60px;"">+</div>","","null","","","","","","","","","","","","","","","","","","","",""
"audio-button-response","22","93666","0.0-3.0-1.0-1.5","01d92d17ed0ea9d99d2bac6381808c7ee69318be66dd3daf29c6bf4568786f8d","arctic","swim","4939","","audio/t2_2.mp3","1","","1","1","headphone-test","","","","","","","","","","","","","","","","",""
"html-keyboard-response","23","94167","0.0-3.0-1.0-2.5","01d92d17ed0ea9d99d2bac6381808c7ee69318be66dd3daf29c6bf4568786f8d","arctic","swim","null","","<p>Correct</p>","","null","","","","","","","","","","","","","","","","","","","",""
"fullscreen","24","97784","0.0-4.0","01d92d17ed0ea9d99d2bac6381808c7ee69318be66dd3daf29c6bf4568786f8d","arctic","swim","","","","","","","","","true","","","","","","","","","","","","","","","",""
"html-button-response","25","110405","0.0-5.0-0.0","01d92d17ed0ea9d99d2bac6381808c7ee69318be66dd3daf29c6bf4568786f8d","arctic","swim","12621","","<p>There are two blocks to this experiment.</p><p>In each block, you will hear a ~13.5 minute story. One of the stories will be scrambled. Please listen carefully to both stories and understand them as best you can.</p><p>After each story, you will be asked some questions to assess your comprehension.</p>","0","","","","","","","","","","","","","","","","","","","","",""
"html-button-response","26","293496","0.0-5.0-1.0","01d92d17ed0ea9d99d2bac6381808c7ee69318be66dd3daf29c6bf4568786f8d","arctic","swim","183091","","<p>During each story, there will be an additional task.</p><p>A letter will occasionally appear on the screen.</br>Your job is to - as quickly as you can - decide whether the letter is lowercase or uppercase and press one of two keys on the keyboard:</p><p>If the letter is <b>lowercase</b>, press key &lt;<b>x</b>&gt;.</p><p>If the letter is <b>uppercase</b>, press key &lt;<b>m</b>&gt;.</p>","0","","","","","","","","","","","","","","","","","","","","",""
"html-keyboard-response","27","1731009","0.0-5.0-2.0","01d92d17ed0ea9d99d2bac6381808c7ee69318be66dd3daf29c6bf4568786f8d","arctic","swim","1437513","","<p>Because we want your responses to be as quick as possible, please keep your index fingers over the keys while listening.</p><p>Each block lasts about 20 minutes.</p><p><b>Press &lt;x&gt; or &lt;m&gt; to start the first block!</b></p>","","88","","","","","","","","","","","","","","","","","","","",""
"html-keyboard-response","28","1731513","0.0-6.0-0.0-0.0","01d92d17ed0ea9d99d2bac6381808c7ee69318be66dd3daf29c6bf4568786f8d","arctic","swim","null","","<div style=""font-size:60px;"" tabindex=""0"">+</div>","","null","","","","","","","","","","","","","","","","","","","",""
"dual-task","null","null","null","","arctic","swim","917","","A","null","77","77","1","arctic-dual-task","","A","uppercase","14000","0","3","01d92d17ed0ea9d99d2bac6381808c7ee69318be66dd3daf29c6bf4568786f8d","13998","917","77","1","arctic","","","","",""
"dual-task","null","null","null","","arctic","swim","757","","d","null","88","88","1","arctic-dual-task","","d","lowercase","28000","0","3","01d92d17ed0ea9d99d2bac6381808c7ee69318be66dd3daf29c6bf4568786f8d","27998","757","88","1","arctic","","","","",""
"dual-task","null","null","null","","arctic","swim","1047","","t","null","88","88","1","arctic-dual-task","","t","lowercase","38000","0","3","01d92d17ed0ea9d99d2bac6381808c7ee69318be66dd3daf29c6bf4568786f8d","37998","1047","88","1","arctic","","","","",""
"dual-task","null","null","null","","arctic","swim","965","","g","null","88","88","1","arctic-dual-task","","g","lowercase","50000","0","3","01d92d17ed0ea9d99d2bac6381808c7ee69318be66dd3daf29c6bf4568786f8d","49998","965","88","1","arctic","","","","",""
"dual-task","null","null","null","","arctic","swim","723","","Q","null","77","77","1","arctic-dual-task","","Q","uppercase","58000","0","3","01d92d17ed0ea9d99d2bac6381808c7ee69318be66dd3daf29c6bf4568786f8d","57998","723","77","1","arctic","","","","",""
"dual-task","null","null","null","","arctic","swim","676","","f","null","88","88","1","arctic-dual-task","","f","lowercase","70000","0","3","01d92d17ed0ea9d99d2bac6381808c7ee69318be66dd3daf29c6bf4568786f8d","69999","676","88","1","arctic","","","","",""
"dual-task","null","null","null","","arctic","swim","692","","e","null","88","88","1","arctic-dual-task","","e","lowercase","84000","0","3","01d92d17ed0ea9d99d2bac6381808c7ee69318be66dd3daf29c6bf4568786f8d","83999","692","88","1","arctic","","","","",""
"dual-task","null","null","null","","arctic","swim","628","","A","null","77","77","1","arctic-dual-task","","A","uppercase","98000","0","3","01d92d17ed0ea9d99d2bac6381808c7ee69318be66dd3daf29c6bf4568786f8d","97998","628","77","1","arctic","","","","",""
"dual-task","null","null","null","","arctic","swim","789","","G","null","77","77","1","arctic-dual-task","","G","uppercase","112000","0","3","01d92d17ed0ea9d99d2bac6381808c7ee69318be66dd3daf29c6bf4568786f8d","111999","789","77","1","arctic","","","","",""
"dual-task","null","null","null","","arctic","swim","741","","G","null","77","77","1","arctic-dual-task","","G","uppercase","120000","0","3","01d92d17ed0ea9d99d2bac6381808c7ee69318be66dd3daf29c6bf4568786f8d","119998","741","77","1","arctic","","","","",""
"dual-task","null","null","null","","arctic","swim","676","","R","null","77","77","1","arctic-dual-task","","R","uppercase","132000","0","3","01d92d17ed0ea9d99d2bac6381808c7ee69318be66dd3daf29c6bf4568786f8d","131999","676","77","1","arctic","","","","",""
"dual-task","null","null","null","","arctic","swim","516","","q","null","88","88","1","arctic-dual-task","","q","lowercase","146000","0","3","01d92d17ed0ea9d99d2bac6381808c7ee69318be66dd3daf29c6bf4568786f8d","145999","516","88","1","arctic","","","","",""
"dual-task","null","null","null","","arctic","swim","644","","n","null","88","88","1","arctic-dual-task","","n","lowercase","154000","0","3","01d92d17ed0ea9d99d2bac6381808c7ee69318be66dd3daf29c6bf4568786f8d","153998","644","88","1","arctic","","","","",""
"dual-task","null","null","null","","arctic","swim","565","","h","null","88","88","1","arctic-dual-task","","h","lowercase","164000","0","3","01d92d17ed0ea9d99d2bac6381808c7ee69318be66dd3daf29c6bf4568786f8d","163998","565","88","1","arctic","","","","",""
"dual-task","null","null","null","","arctic","swim","565","","a","null","88","88","1","arctic-dual-task","","a","lowercase","178000","0","3","01d92d17ed0ea9d99d2bac6381808c7ee69318be66dd3daf29c6bf4568786f8d","177999","565","88","1","arctic","","","","",""
"dual-task","null","null","null","","arctic","swim","691","","t","null","88","88","1","arctic-dual-task","","t","lowercase","186000","0","3","01d92d17ed0ea9d99d2bac6381808c7ee69318be66dd3daf29c6bf4568786f8d","185999","691","88","1","arctic","","","","",""
"dual-task","null","null","null","","arctic","swim","581","","e","null","88","88","1","arctic-dual-task","","e","lowercase","200000","0","3","01d92d17ed0ea9d99d2bac6381808c7ee69318be66dd3daf29c6bf4568786f8d","199999","581","88","1","arctic","","","","",""
"dual-task","null","null","null","","arctic","swim","468","","g","null","88","88","1","arctic-dual-task","","g","lowercase","212000","0","3","01d92d17ed0ea9d99d2bac6381808c7ee69318be66dd3daf29c6bf4568786f8d","211998","468","88","1","arctic","","","","",""
"dual-task","null","null","null","","arctic","swim","484","","a","null","88","88","1","arctic-dual-task","","a","lowercase","220000","0","3","01d92d17ed0ea9d99d2bac6381808c7ee69318be66dd3daf29c6bf4568786f8d","219999","484","88","1","arctic","","","","",""
"dual-task","null","null","null","","arctic","swim","564","","r","null","88","88","1","arctic-dual-task","","r","lowercase","234000","0","3","01d92d17ed0ea9d99d2bac6381808c7ee69318be66dd3daf29c6bf4568786f8d","233999","564","88","1","arctic","","","","",""
"dual-task","null","null","null","","arctic","swim","565","","F","null","77","77","1","arctic-dual-task","","F","uppercase","246000","0","3","01d92d17ed0ea9d99d2bac6381808c7ee69318be66dd3daf29c6bf4568786f8d","245999","565","77","1","arctic","","","","",""
"dual-task","null","null","null","","arctic","swim","581","","f","null","88","88","1","arctic-dual-task","","f","lowercase","256000","0","3","01d92d17ed0ea9d99d2bac6381808c7ee69318be66dd3daf29c6bf4568786f8d","255999","581","88","1","arctic","","","","",""
"dual-task","null","null","null","","arctic","swim","580","","T","null","77","77","1","arctic-dual-task","","T","uppercase","264000","0","3","01d92d17ed0ea9d99d2bac6381808c7ee69318be66dd3daf29c6bf4568786f8d","263998","580","77","1","arctic","","","","",""
"dual-task","null","null","null","","arctic","swim","597","","t","null","88","88","1","arctic-dual-task","","t","lowercase","274000","0","3","01d92d17ed0ea9d99d2bac6381808c7ee69318be66dd3daf29c6bf4568786f8d","273999","597","88","1","arctic","","","","",""
"dual-task","null","null","null","","arctic","swim","532","","N","null","77","77","1","arctic-dual-task","","N","uppercase","286000","0","3","01d92d17ed0ea9d99d2bac6381808c7ee69318be66dd3daf29c6bf4568786f8d","285998","532","77","1","arctic","","","","",""
"dual-task","null","null","null","","arctic","swim","516","","B","null","77","77","1","arctic-dual-task","","B","uppercase","296000","0","3","01d92d17ed0ea9d99d2bac6381808c7ee69318be66dd3daf29c6bf4568786f8d","295999","516","77","1","arctic","","","","",""
"dual-task","null","null","null","","arctic","swim","582","","R","null","77","77","1","arctic-dual-task","","R","uppercase","306000","0","3","01d92d17ed0ea9d99d2bac6381808c7ee69318be66dd3daf29c6bf4568786f8d","305999","582","77","1","arctic","","","","",""
"dual-task","null","null","null","","arctic","swim","534","","H","null","77","77","1","arctic-dual-task","","H","uppercase","314000","0","3","01d92d17ed0ea9d99d2bac6381808c7ee69318be66dd3daf29c6bf4568786f8d","313999","534","77","1","arctic","","","","",""
"dual-task","null","null","null","","arctic","swim","564","","F","null","77","77","1","arctic-dual-task","","F","uppercase","326000","0","3","01d92d17ed0ea9d99d2bac6381808c7ee69318be66dd3daf29c6bf4568786f8d","325999","564","77","1","arctic","","","","",""
"dual-task","null","null","null","","arctic","swim","548","","e","null","88","88","1","arctic-dual-task","","e","lowercase","334000","0","3","01d92d17ed0ea9d99d2bac6381808c7ee69318be66dd3daf29c6bf4568786f8d","333998","548","88","1","arctic","","","","",""
"dual-task","null","null","null","","arctic","swim","500","","N","null","77","77","1","arctic-dual-task","","N","uppercase","346000","0","3","01d92d17ed0ea9d99d2bac6381808c7ee69318be66dd3daf29c6bf4568786f8d","345999","500","77","1","arctic","","","","",""
"dual-task","null","null","null","","arctic","swim","595","","H","null","77","77","1","arctic-dual-task","","H","uppercase","356000","0","3","01d92d17ed0ea9d99d2bac6381808c7ee69318be66dd3daf29c6bf4568786f8d","355999","595","77","1","arctic","","","","",""
"dual-task","null","null","null","","arctic","swim","661","","h","null","88","88","1","arctic-dual-task","","h","lowercase","366000","0","3","01d92d17ed0ea9d99d2bac6381808c7ee69318be66dd3daf29c6bf4568786f8d","365999","661","88","1","arctic","","","","",""
"dual-task","null","null","null","","arctic","swim","547","","q","null","88","88","1","arctic-dual-task","","q","lowercase","376000","0","3","01d92d17ed0ea9d99d2bac6381808c7ee69318be66dd3daf29c6bf4568786f8d","375999","547","88","1","arctic","","","","",""
"dual-task","null","null","null","","arctic","swim","516","","e","null","88","88","1","arctic-dual-task","","e","lowercase","386000","0","3","01d92d17ed0ea9d99d2bac6381808c7ee69318be66dd3daf29c6bf4568786f8d","385999","516","88","1","arctic","","","","",""
"dual-task","null","null","null","","arctic","swim","580","","q","null","88","88","1","arctic-dual-task","","q","lowercase","398000","0","3","01d92d17ed0ea9d99d2bac6381808c7ee69318be66dd3daf29c6bf4568786f8d","397999","580","88","1","arctic","","","","",""
"dual-task","null","null","null","","arctic","swim","564","","D","null","77","77","1","arctic-dual-task","","D","uppercase","404000","0","3","01d92d17ed0ea9d99d2bac6381808c7ee69318be66dd3daf29c6bf4568786f8d","403999","564","77","1","arctic","","","","",""
"dual-task","null","null","null","","arctic","swim","517","","H","null","77","77","1","arctic-dual-task","","H","uppercase","418000","0","3","01d92d17ed0ea9d99d2bac6381808c7ee69318be66dd3daf29c6bf4568786f8d","417999","517","77","1","arctic","","","","",""
"dual-task","null","null","null","","arctic","swim","532","","E","null","77","77","1","arctic-dual-task","","E","uppercase","424000","0","3","01d92d17ed0ea9d99d2bac6381808c7ee69318be66dd3daf29c6bf4568786f8d","423999","532","77","1","arctic","","","","",""
"dual-task","null","null","null","","arctic","swim","661","","Q","null","77","77","1","arctic-dual-task","","Q","uppercase","436000","0","3","01d92d17ed0ea9d99d2bac6381808c7ee69318be66dd3daf29c6bf4568786f8d","435999","661","77","1","arctic","","","","",""
"dual-task","null","null","null","","arctic","swim","581","","r","null","88","88","1","arctic-dual-task","","r","lowercase","446000","0","3","01d92d17ed0ea9d99d2bac6381808c7ee69318be66dd3daf29c6bf4568786f8d","445999","581","88","1","arctic","","","","",""
"dual-task","null","null","null","","arctic","swim","628","","t","null","88","88","1","arctic-dual-task","","t","lowercase","452000","0","3","01d92d17ed0ea9d99d2bac6381808c7ee69318be66dd3daf29c6bf4568786f8d","451998","628","88","1","arctic","","","","",""
"dual-task","null","null","null","","arctic","swim","565","","a","null","88","88","1","arctic-dual-task","","a","lowercase","460000","0","3","01d92d17ed0ea9d99d2bac6381808c7ee69318be66dd3daf29c6bf4568786f8d","459999","565","88","1","arctic","","","","",""
"dual-task","null","null","null","","arctic","swim","597","","h","null","88","88","1","arctic-dual-task","","h","lowercase","468000","0","3","01d92d17ed0ea9d99d2bac6381808c7ee69318be66dd3daf29c6bf4568786f8d","467999","597","88","1","arctic","","","","",""
"dual-task","null","null","null","","arctic","swim","532","","F","null","77","77","1","arctic-dual-task","","F","uppercase","474000","0","3","01d92d17ed0ea9d99d2bac6381808c7ee69318be66dd3daf29c6bf4568786f8d","473999","532","77","1","arctic","","","","",""
"dual-task","null","null","null","","arctic","swim","532","","b","null","88","88","1","arctic-dual-task","","b","lowercase","484000","0","3","01d92d17ed0ea9d99d2bac6381808c7ee69318be66dd3daf29c6bf4568786f8d","483999","532","88","1","arctic","","","","",""
"dual-task","null","null","null","","arctic","swim","564","","r","null","88","88","1","arctic-dual-task","","r","lowercase","498000","0","3","01d92d17ed0ea9d99d2bac6381808c7ee69318be66dd3daf29c6bf4568786f8d","497999","564","88","1","arctic","","","","",""
"dual-task","null","null","null","","arctic","swim","1474","","f","null","88","88","1","arctic-dual-task","","f","lowercase","504000","0","3","01d92d17ed0ea9d99d2bac6381808c7ee69318be66dd3daf29c6bf4568786f8d","503999","1474","88","1","arctic","","","","",""
"dual-task","null","null","null","","arctic","swim","531","","d","null","88","88","1","arctic-dual-task","","d","lowercase","512000","0","3","01d92d17ed0ea9d99d2bac6381808c7ee69318be66dd3daf29c6bf4568786f8d","511999","531","88","1","arctic","","","","",""
"dual-task","null","null","null","","arctic","swim","804","","E","null","77","77","1","arctic-dual-task","","E","uppercase","518000","0","3","01d92d17ed0ea9d99d2bac6381808c7ee69318be66dd3daf29c6bf4568786f8d","517999","804","77","1","arctic","","","","",""
"dual-task","null","null","null","","arctic","swim","548","","F","null","77","77","1","arctic-dual-task","","F","uppercase","528000","0","3","01d92d17ed0ea9d99d2bac6381808c7ee69318be66dd3daf29c6bf4568786f8d","527999","548","77","1","arctic","","","","",""
"dual-task","null","null","null","","arctic","swim","596","","b","null","88","88","1","arctic-dual-task","","b","lowercase","536000","0","3","01d92d17ed0ea9d99d2bac6381808c7ee69318be66dd3daf29c6bf4568786f8d","535999","596","88","1","arctic","","","","",""
"dual-task","null","null","null","","arctic","swim","595","","D","null","77","77","1","arctic-dual-task","","D","uppercase","548000","0","3","01d92d17ed0ea9d99d2bac6381808c7ee69318be66dd3daf29c6bf4568786f8d","547999","595","77","1","arctic","","","","",""
"dual-task","null","null","null","","arctic","swim","692","","d","null","88","88","1","arctic-dual-task","","d","lowercase","556000","0","3","01d92d17ed0ea9d99d2bac6381808c7ee69318be66dd3daf29c6bf4568786f8d","555999","692","88","1","arctic","","","","",""
"dual-task","null","null","null","","arctic","swim","580","","T","null","77","77","1","arctic-dual-task","","T","uppercase","568000","0","3","01d92d17ed0ea9d99d2bac6381808c7ee69318be66dd3daf29c6bf4568786f8d","567999","580","77","1","arctic","","","","",""
"dual-task","null","null","null","","arctic","swim","628","","H","null","77","77","1","arctic-dual-task","","H","uppercase","576000","0","3","01d92d17ed0ea9d99d2bac6381808c7ee69318be66dd3daf29c6bf4568786f8d","576000","628","77","1","arctic","","","","",""
"dual-task","null","null","null","","arctic","swim","724","","E","null","77","77","1","arctic-dual-task","","E","uppercase","584000","0","3","01d92d17ed0ea9d99d2bac6381808c7ee69318be66dd3daf29c6bf4568786f8d","583999","724","77","1","arctic","","","","",""
"dual-task","null","null","null","","arctic","swim","565","","G","null","77","77","1","arctic-dual-task","","G","uppercase","592000","0","3","01d92d17ed0ea9d99d2bac6381808c7ee69318be66dd3daf29c6bf4568786f8d","591999","565","77","1","arctic","","","","",""
"dual-task","null","null","null","","arctic","swim","563","","b","null","88","88","1","arctic-dual-task","","b","lowercase","600000","0","3","01d92d17ed0ea9d99d2bac6381808c7ee69318be66dd3daf29c6bf4568786f8d","599999","563","88","1","arctic","","","","",""
"dual-task","null","null","null","","arctic","swim","595","","g","null","88","88","1","arctic-dual-task","","g","lowercase","614000","0","3","01d92d17ed0ea9d99d2bac6381808c7ee69318be66dd3daf29c6bf4568786f8d","613999","595","88","1","arctic","","","","",""
"dual-task","null","null","null","","arctic","swim","692","","A","null","77","77","1","arctic-dual-task","","A","uppercase","622000","0","3","01d92d17ed0ea9d99d2bac6381808c7ee69318be66dd3daf29c6bf4568786f8d","621999","692","77","1","arctic","","","","",""
"dual-task","null","null","null","","arctic","swim","500","","B","null","77","77","1","arctic-dual-task","","B","uppercase","628000","0","3","01d92d17ed0ea9d99d2bac6381808c7ee69318be66dd3daf29c6bf4568786f8d","627999","500","77","1","arctic","","","","",""
"dual-task","null","null","null","","arctic","swim","579","","r","null","88","88","1","arctic-dual-task","","r","lowercase","636000","0","3","01d92d17ed0ea9d99d2bac6381808c7ee69318be66dd3daf29c6bf4568786f8d","636000","579","88","1","arctic","","","","",""
"dual-task","null","null","null","","arctic","swim","532","","R","null","77","77","1","arctic-dual-task","","R","uppercase","642000","0","3","01d92d17ed0ea9d99d2bac6381808c7ee69318be66dd3daf29c6bf4568786f8d","641999","532","77","1","arctic","","","","",""
"dual-task","null","null","null","","arctic","swim","501","","q","null","88","88","1","arctic-dual-task","","q","lowercase","650000","0","3","01d92d17ed0ea9d99d2bac6381808c7ee69318be66dd3daf29c6bf4568786f8d","649999","501","88","1","arctic","","","","",""
"dual-task","null","null","null","","arctic","swim","565","","N","null","77","77","1","arctic-dual-task","","N","uppercase","662000","0","3","01d92d17ed0ea9d99d2bac6381808c7ee69318be66dd3daf29c6bf4568786f8d","661999","565","77","1","arctic","","","","",""
"dual-task","null","null","null","","arctic","swim","515","","G","null","77","77","1","arctic-dual-task","","G","uppercase","668000","0","3","01d92d17ed0ea9d99d2bac6381808c7ee69318be66dd3daf29c6bf4568786f8d","667999","515","77","1","arctic","","","","",""
"dual-task","null","null","null","","arctic","swim","516","","Q","null","77","77","1","arctic-dual-task","","Q","uppercase","674000","0","3","01d92d17ed0ea9d99d2bac6381808c7ee69318be66dd3daf29c6bf4568786f8d","673999","516","77","1","arctic","","","","",""
"dual-task","null","null","null","","arctic","swim","564","","T","null","77","77","1","arctic-dual-task","","T","uppercase","682000","0","3","01d92d17ed0ea9d99d2bac6381808c7ee69318be66dd3daf29c6bf4568786f8d","681999","564","77","1","arctic","","","","",""
"dual-task","null","null","null","","arctic","swim","533","","B","null","77","77","1","arctic-dual-task","","B","uppercase","696000","0","3","01d92d17ed0ea9d99d2bac6381808c7ee69318be66dd3daf29c6bf4568786f8d","695999","533","77","1","arctic","","","","",""
"dual-task","null","null","null","","arctic","swim","596","","D","null","77","77","1","arctic-dual-task","","D","uppercase","704000","0","3","01d92d17ed0ea9d99d2bac6381808c7ee69318be66dd3daf29c6bf4568786f8d","703999","596","77","1","arctic","","","","",""
"dual-task","null","null","null","","arctic","swim","692","","E","null","77","77","1","arctic-dual-task","","E","uppercase","710000","0","3","01d92d17ed0ea9d99d2bac6381808c7ee69318be66dd3daf29c6bf4568786f8d","709999","692","77","1","arctic","","","","",""
"dual-task","null","null","null","","arctic","swim","517","","n","null","88","88","1","arctic-dual-task","","n","lowercase","722000","0","3","01d92d17ed0ea9d99d2bac6381808c7ee69318be66dd3daf29c6bf4568786f8d","721999","517","88","1","arctic","","","","",""
"dual-task","null","null","null","","arctic","swim","530","","n","null","88","88","1","arctic-dual-task","","n","lowercase","730000","0","3","01d92d17ed0ea9d99d2bac6381808c7ee69318be66dd3daf29c6bf4568786f8d","730000","530","88","1","arctic","","","","",""
"dual-task","null","null","null","","arctic","swim","531","","n","null","88","88","1","arctic-dual-task","","n","lowercase","740000","0","3","01d92d17ed0ea9d99d2bac6381808c7ee69318be66dd3daf29c6bf4568786f8d","739999","531","88","1","arctic","","","","",""
"dual-task","null","null","null","","arctic","swim","548","","Q","null","77","77","1","arctic-dual-task","","Q","uppercase","750000","0","3","01d92d17ed0ea9d99d2bac6381808c7ee69318be66dd3daf29c6bf4568786f8d","749999","548","77","1","arctic","","","","",""
"dual-task","null","null","null","","arctic","swim","451","","g","null","88","88","1","arctic-dual-task","","g","lowercase","758000","0","3","01d92d17ed0ea9d99d2bac6381808c7ee69318be66dd3daf29c6bf4568786f8d","757999","451","88","1","arctic","","","","",""
"dual-task","null","null","null","","arctic","swim","549","","b","null","88","88","1","arctic-dual-task","","b","lowercase","772000","0","3","01d92d17ed0ea9d99d2bac6381808c7ee69318be66dd3daf29c6bf4568786f8d","771999","549","88","1","arctic","","","","",""
"dual-task","null","null","null","","arctic","swim","580","","f","null","88","88","1","arctic-dual-task","","f","lowercase","782000","0","3","01d92d17ed0ea9d99d2bac6381808c7ee69318be66dd3daf29c6bf4568786f8d","781999","580","88","1","arctic","","","","",""
"audio-keyboard-response","29","2529562","0.0-6.0-0.0-1.0","01d92d17ed0ea9d99d2bac6381808c7ee69318be66dd3daf29c6bf4568786f8d","arctic","swim","null","","audio/story_arctic.mp3","","null","","","","","","","","","","","","","","","","","","","",""
"html-button-response","30","2531563","0.0-6.0-0.0-2.0","01d92d17ed0ea9d99d2bac6381808c7ee69318be66dd3daf29c6bf4568786f8d","arctic","swim","1998","","<p>This concludes the story. Thank you for listening.</p><p>You will now answer some questions about the content of the story.</p>","0","","","","","","","","","","","","","","","","","","","","",""
"survey-multi-choice","31","2536752","0.0-6.0-0.0-3.0-0.0","01d92d17ed0ea9d99d2bac6381808c7ee69318be66dd3daf29c6bf4568786f8d","arctic","swim","5183","","<b>How did the narrator&#39;s encounter with the polar bears end?</b>","","","","1","arctic-comprehension","","","","","","","","","","","","","{""Q0"":""The bears walked back to their den.""}","","","",""
"survey-multi-choice","32","2539880","0.0-6.0-0.0-3.0-0.1","01d92d17ed0ea9d99d2bac6381808c7ee69318be66dd3daf29c6bf4568786f8d","arctic","swim","2874","","<b>What is the name of the narrator&#39;s neighbour?</b>","","","","1","arctic-comprehension","","","","","","","","","","","","","{""Q0"":""Dave""}","","","",""
"survey-multi-choice","33","2549004","0.0-6.0-0.0-3.0-0.2","01d92d17ed0ea9d99d2bac6381808c7ee69318be66dd3daf29c6bf4568786f8d","arctic","swim","8870","","<b>How did the narrator&#39;s neighbour respond when she told him about her expedition?</b>","","","","1","arctic-comprehension","","","","","","","","","","","","","{""Q0"":""He said she was going to fail.""}","","","",""
"survey-multi-choice","34","2553847","0.0-6.0-0.0-3.0-0.3","01d92d17ed0ea9d99d2bac6381808c7ee69318be66dd3daf29c6bf4568786f8d","arctic","swim","4590","","<b>What were the weather conditions in the Arctic like the winter of the narrator&#39;s expedition?</b>","","","","1","arctic-comprehension","","","","","","","","","","","","","{""Q0"":""There were more storms than any other winter in recorded history.""}","","","",""
"survey-multi-choice","35","2556774","0.0-6.0-0.0-3.0-0.4","01d92d17ed0ea9d99d2bac6381808c7ee69318be66dd3daf29c6bf4568786f8d","arctic","swim","2675","","<b>How many sponsorships did the narrator receive to support her expedition?</b>","","","","1","arctic-comprehension","","","","","","","","","","","","","{""Q0"":""None""}","","","",""
"survey-multi-choice","36","2560281","0.0-6.0-0.0-3.0-0.5","01d92d17ed0ea9d99d2bac6381808c7ee69318be66dd3daf29c6bf4568786f8d","arctic","swim","3253","","<b>What did the narrator do for leisure while in her tent?</b>","","","","1","arctic-comprehension","","","","","","","","","","","","","{""Q0"":""Read""}","","","",""
"survey-multi-choice","37","2566187","0.0-6.0-0.0-3.0-0.6","01d92d17ed0ea9d99d2bac6381808c7ee69318be66dd3daf29c6bf4568786f8d","arctic","swim","5652","","<b>How did the dogs respond when they saw the bears?</b>","","","","1","arctic-comprehension","","","","","","","","","","","","","{""Q0"":""Approached them""}","","","",""
"survey-multi-choice","38","2573929","0.0-6.0-0.0-3.0-0.7","01d92d17ed0ea9d99d2bac6381808c7ee69318be66dd3daf29c6bf4568786f8d","arctic","swim","7489","","<b>What was the objective of the narrator&#39;s expedition?</b>","","","","1","arctic-comprehension","","","","","","","","","","","","","{""Q0"":""Dogsled across Arctic America""}","","","",""
"survey-multi-choice","39","2583272","0.0-6.0-0.0-3.0-0.8","01d92d17ed0ea9d99d2bac6381808c7ee69318be66dd3daf29c6bf4568786f8d","arctic","swim","9091","","<b>How did the narrator prepare for her expedition?</b>","","","","1","arctic-comprehension","","","","","","","","","","","","","{""Q0"":""Trained in Alaska learning how to dogsled""}","","","",""
"survey-multi-choice","40","2588231","0.0-6.0-0.0-3.0-0.9","01d92d17ed0ea9d99d2bac6381808c7ee69318be66dd3daf29c6bf4568786f8d","arctic","swim","4706","","<b>Which dog on the narrator&#39;s dog team never followed instructions?</b>","","","","1","arctic-comprehension","","","","","","","","","","","","","{""Q0"":""Robert""}","","","",""
"html-button-response","41","2590214","0.0-6.0-0.0-4.0","01d92d17ed0ea9d99d2bac6381808c7ee69318be66dd3daf29c6bf4568786f8d","arctic","swim","1730","","<p>Thank you for your responses.</p><p>You will now answer some questions about your impressions of the story.</p>","0","","","","","","","","","","","","","","","","","","","","",""
"html-button-response","42","2591829","0.0-6.0-0.0-5.0-0.0","01d92d17ed0ea9d99d2bac6381808c7ee69318be66dd3daf29c6bf4568786f8d","arctic","swim","1612","","E1","3","","","","arctic-engagement","","","","","","","","","","","","","","4","enjoyment","",""
"html-button-response","43","2593613","0.0-6.0-0.0-5.0-0.1","01d92d17ed0ea9d99d2bac6381808c7ee69318be66dd3daf29c6bf4568786f8d","arctic","swim","1532","","A3","2","","","","arctic-engagement","","","","","","","","","","","","","","3","absorption","",""
"html-button-response","44","2595749","0.0-6.0-0.0-5.0-0.2","01d92d17ed0ea9d99d2bac6381808c7ee69318be66dd3daf29c6bf4568786f8d","arctic","swim","1885","","EE1","2","","","","arctic-engagement","","","","","","","","","","","","","","3","emo-engage","",""
"html-button-response","45","2597508","0.0-6.0-0.0-5.0-0.3","01d92d17ed0ea9d99d2bac6381808c7ee69318be66dd3daf29c6bf4568786f8d","arctic","swim","1507","","E6","3","","","","arctic-engagement","","","","","","","","","","","","","","4","enjoyment","",""
"html-button-response","46","2599766","0.0-6.0-0.0-5.0-0.4","01d92d17ed0ea9d99d2bac6381808c7ee69318be66dd3daf29c6bf4568786f8d","arctic","swim","2006","","EE5","2","","","","arctic-engagement","","","","","","","","","","","","","","3","emo-engage","",""
"html-button-response","47","2601765","0.0-6.0-0.0-5.0-0.5","01d92d17ed0ea9d99d2bac6381808c7ee69318be66dd3daf29c6bf4568786f8d","arctic","swim","1747","","E7","4","","","","arctic-engagement","","","","","","","","","","","","","","5","enjoyment","",""
"html-button-response","48","2605283","0.0-6.0-0.0-5.0-0.6","01d92d17ed0ea9d99d2bac6381808c7ee69318be66dd3daf29c6bf4568786f8d","arctic","swim","3267","","A5","3","","","","arctic-engagement","","","","","","","","","","","","","","4","absorption","",""
"html-button-response","49","2607148","0.0-6.0-0.0-5.0-0.7","01d92d17ed0ea9d99d2bac6381808c7ee69318be66dd3daf29c6bf4568786f8d","arctic","swim","1613","","EE3","2","","","","arctic-engagement","","","","","","","","","","","","","","3","emo-engage","",""
"html-button-response","50","2609189","0.0-6.0-0.0-5.0-0.8","01d92d17ed0ea9d99d2bac6381808c7ee69318be66dd3daf29c6bf4568786f8d","arctic","swim","1789","","MS1","2","","","","arctic-engagement","","","","","","","","","","","","","","3","mental-sim","",""
"html-button-response","51","2610885","0.0-6.0-0.0-5.0-0.9","01d92d17ed0ea9d99d2bac6381808c7ee69318be66dd3daf29c6bf4568786f8d","arctic","swim","1444","","E8","3","","","","arctic-engagement","","","","","","","","","","","","","","4","enjoyment","",""
"html-button-response","52","2613763","0.0-6.0-0.0-5.0-0.10","01d92d17ed0ea9d99d2bac6381808c7ee69318be66dd3daf29c6bf4568786f8d","arctic","swim","2627","","MS2","2","","","","arctic-engagement","","","","","","","","","","","","","","3","mental-sim","",""
"html-button-response","53","2617875","0.0-6.0-0.0-5.0-0.11","01d92d17ed0ea9d99d2bac6381808c7ee69318be66dd3daf29c6bf4568786f8d","arctic","swim","3862","","A4","3","","","","arctic-engagement","","","","","","","","","","","","","","4","absorption","",""
"html-button-response","54","2620885","0.0-6.0-0.0-5.0-0.12","01d92d17ed0ea9d99d2bac6381808c7ee69318be66dd3daf29c6bf4568786f8d","arctic","swim","2758","","A2","6","","","","arctic-engagement","","","","","","","","","","","","","","7","absorption","",""
"html-button-response","55","2624516","0.0-6.0-0.0-5.0-0.13","01d92d17ed0ea9d99d2bac6381808c7ee69318be66dd3daf29c6bf4568786f8d","arctic","swim","3380","","EE2","2","","","","arctic-engagement","","","","","","","","","","","","","","3","emo-engage","",""
"html-button-response","56","2626708","0.0-6.0-0.0-5.0-0.14","01d92d17ed0ea9d99d2bac6381808c7ee69318be66dd3daf29c6bf4568786f8d","arctic","swim","1941","","MS3","2","","","","arctic-engagement","","","","","","","","","","","","","","3","mental-sim","",""
"html-button-response","57","2628692","0.0-6.0-0.0-5.0-0.15","01d92d17ed0ea9d99d2bac6381808c7ee69318be66dd3daf29c6bf4568786f8d","arctic","swim","1730","","E10","4","","","","arctic-engagement","","","","","","","","","","","","","","5","enjoyment","",""
"html-button-response","58","2631669","0.0-6.0-0.0-5.0-0.16","01d92d17ed0ea9d99d2bac6381808c7ee69318be66dd3daf29c6bf4568786f8d","arctic","swim","2726","","A1","2","","","","arctic-engagement","","","","","","","","","","","","","","3","absorption","",""
"html-button-response","59","2633108","0.0-6.0-0.0-5.0-0.17","01d92d17ed0ea9d99d2bac6381808c7ee69318be66dd3daf29c6bf4568786f8d","arctic","swim","1187","","EE4","2","","","","arctic-engagement","","","","","","","","","","","","","","3","emo-engage","",""
"html-keyboard-response","60","3171810","0.0-6.0-1.0","01d92d17ed0ea9d99d2bac6381808c7ee69318be66dd3daf29c6bf4568786f8d","arctic","swim","538449","","<p>Thank you for your responses. You will now listen to the second story.</p><p>Remember, as you listen to the story you will see letters appear on the screen.</br>As quickly as possible, press <b>&lt;x&gt;</b> if the letter is lowercase and <b>&lt;m&gt;</b> if the letter is uppercase.</p><p>Press <b>&lt;x&gt;</b> or <b>&lt;m&gt;</b> to begin listening!</p>","","88","","","","","","","","","","","","","","","","","","","",""
"html-keyboard-response","61","3172311","0.0-6.0-2.0-0.0","01d92d17ed0ea9d99d2bac6381808c7ee69318be66dd3daf29c6bf4568786f8d","arctic","swim","null","","<div style=""font-size:60px;"" tabindex=""0"">+</div>","","null","","","","","","","","","","","","","","","","","","","",""
"dual-task","null","null","null","","arctic","swim","629","","e","null","88","88","1","swim-dual-task","","e","lowercase","14000","0","3","01d92d17ed0ea9d99d2bac6381808c7ee69318be66dd3daf29c6bf4568786f8d","13999","629","88","1","swim","","","","",""
"dual-task","null","null","null","","arctic","swim","629","","q","null","88","88","1","swim-dual-task","","q","lowercase","20000","0","3","01d92d17ed0ea9d99d2bac6381808c7ee69318be66dd3daf29c6bf4568786f8d","19999","629","88","1","swim","","","","",""
"dual-task","null","null","null","","arctic","swim","420","","a","null","88","88","1","swim-dual-task","","a","lowercase","32000","0","3","01d92d17ed0ea9d99d2bac6381808c7ee69318be66dd3daf29c6bf4568786f8d","31999","420","88","1","swim","","","","",""
"dual-task","null","null","null","","arctic","swim","517","","r","null","88","88","1","swim-dual-task","","r","lowercase","44000","0","3","01d92d17ed0ea9d99d2bac6381808c7ee69318be66dd3daf29c6bf4568786f8d","43999","517","88","1","swim","","","","",""
"dual-task","null","null","null","","arctic","swim","452","","n","null","88","88","1","swim-dual-task","","n","lowercase","56000","0","3","01d92d17ed0ea9d99d2bac6381808c7ee69318be66dd3daf29c6bf4568786f8d","55999","452","88","1","swim","","","","",""
"dual-task","null","null","null","","arctic","swim","549","","t","null","88","88","1","swim-dual-task","","t","lowercase","66000","0","3","01d92d17ed0ea9d99d2bac6381808c7ee69318be66dd3daf29c6bf4568786f8d","65999","549","88","1","swim","","","","",""
"dual-task","null","null","null","","arctic","swim","356","","b","null","88","88","1","swim-dual-task","","b","lowercase","80000","0","3","01d92d17ed0ea9d99d2bac6381808c7ee69318be66dd3daf29c6bf4568786f8d","80000","356","88","1","swim","","","","",""
"dual-task","null","null","null","","arctic","swim","340","","n","null","88","88","1","swim-dual-task","","n","lowercase","88000","0","3","01d92d17ed0ea9d99d2bac6381808c7ee69318be66dd3daf29c6bf4568786f8d","88000","340","88","1","swim","","","","",""
"dual-task","null","null","null","","arctic","swim","485","","q","null","88","88","1","swim-dual-task","","q","lowercase","96000","0","3","01d92d17ed0ea9d99d2bac6381808c7ee69318be66dd3daf29c6bf4568786f8d","95999","485","88","1","swim","","","","",""
"dual-task","null","null","null","","arctic","swim","501","","q","null","88","88","1","swim-dual-task","","q","lowercase","106000","0","3","01d92d17ed0ea9d99d2bac6381808c7ee69318be66dd3daf29c6bf4568786f8d","105999","501","88","1","swim","","","","",""
"dual-task","null","null","null","","arctic","swim","596","","g","null","88","88","1","swim-dual-task","","g","lowercase","112000","0","3","01d92d17ed0ea9d99d2bac6381808c7ee69318be66dd3daf29c6bf4568786f8d","111999","596","88","1","swim","","","","",""
"dual-task","null","null","null","","arctic","swim","468","","h","null","88","88","1","swim-dual-task","","h","lowercase","120000","0","3","01d92d17ed0ea9d99d2bac6381808c7ee69318be66dd3daf29c6bf4568786f8d","119999","468","88","1","swim","","","","",""
"dual-task","null","null","null","","arctic","swim","356","","g","null","88","88","1","swim-dual-task","","g","lowercase","134000","0","3","01d92d17ed0ea9d99d2bac6381808c7ee69318be66dd3daf29c6bf4568786f8d","133999","356","88","1","swim","","","","",""
"dual-task","null","null","null","","arctic","swim","420","","h","null","88","88","1","swim-dual-task","","h","lowercase","144000","0","3","01d92d17ed0ea9d99d2bac6381808c7ee69318be66dd3daf29c6bf4568786f8d","143999","420","88","1","swim","","","","",""
"dual-task","null","null","null","","arctic","swim","548","","R","null","77","77","1","swim-dual-task","","R","uppercase","152000","0","3","01d92d17ed0ea9d99d2bac6381808c7ee69318be66dd3daf29c6bf4568786f8d","151999","548","77","1","swim","","","","",""
"dual-task","null","null","null","","arctic","swim","549","","B","null","77","77","1","swim-dual-task","","B","uppercase","164000","0","3","01d92d17ed0ea9d99d2bac6381808c7ee69318be66dd3daf29c6bf4568786f8d","163999","549","77","1","swim","","","","",""
"dual-task","null","null","null","","arctic","swim","580","","h","null","88","88","1","swim-dual-task","","h","lowercase","176000","0","3","01d92d17ed0ea9d99d2bac6381808c7ee69318be66dd3daf29c6bf4568786f8d","176000","580","88","1","swim","","","","",""
"dual-task","null","null","null","","arctic","swim","484","","A","null","77","77","1","swim-dual-task","","A","uppercase","188000","0","3","01d92d17ed0ea9d99d2bac6381808c7ee69318be66dd3daf29c6bf4568786f8d","188000","484","77","1","swim","","","","",""
"dual-task","null","null","null","","arctic","swim","564","","T","null","77","77","1","swim-dual-task","","T","uppercase","198000","0","3","01d92d17ed0ea9d99d2bac6381808c7ee69318be66dd3daf29c6bf4568786f8d","198000","564","77","1","swim","","","","",""
"dual-task","null","null","null","","arctic","swim","565","","E","null","77","77","1","swim-dual-task","","E","uppercase","208000","0","3","01d92d17ed0ea9d99d2bac6381808c7ee69318be66dd3daf29c6bf4568786f8d","207999","565","77","1","swim","","","","",""
"dual-task","null","null","null","","arctic","swim","516","","E","null","77","77","1","swim-dual-task","","E","uppercase","218000","0","3","01d92d17ed0ea9d99d2bac6381808c7ee69318be66dd3daf29c6bf4568786f8d","218000","516","77","1","swim","","","","",""
"dual-task","null","null","null","","arctic","swim","485","","D","null","77","77","1","swim-dual-task","","D","uppercase","228000","0","3","01d92d17ed0ea9d99d2bac6381808c7ee69318be66dd3daf29c6bf4568786f8d","227999","485","77","1","swim","","","","",""
"dual-task","null","null","null","","arctic","swim","484","","B","null","77","77","1","swim-dual-task","","B","uppercase","240000","0","3","01d92d17ed0ea9d99d2bac6381808c7ee69318be66dd3daf29c6bf4568786f8d","239999","484","77","1","swim","","","","",""
"dual-task","null","null","null","","arctic","swim","613","","d","null","88","88","1","swim-dual-task","","d","lowercase","252000","0","3","01d92d17ed0ea9d99d2bac6381808c7ee69318be66dd3daf29c6bf4568786f8d","251999","613","88","1","swim","","","","",""
"dual-task","null","null","null","","arctic","swim","485","","T","null","77","77","1","swim-dual-task","","T","uppercase","260000","0","3","01d92d17ed0ea9d99d2bac6381808c7ee69318be66dd3daf29c6bf4568786f8d","259999","485","77","1","swim","","","","",""
"dual-task","null","null","null","","arctic","swim","500","","d","null","88","88","1","swim-dual-task","","d","lowercase","274000","0","3","01d92d17ed0ea9d99d2bac6381808c7ee69318be66dd3daf29c6bf4568786f8d","273999","500","88","1","swim","","","","",""
"dual-task","null","null","null","","arctic","swim","499","","D","null","77","77","1","swim-dual-task","","D","uppercase","284000","0","3","01d92d17ed0ea9d99d2bac6381808c7ee69318be66dd3daf29c6bf4568786f8d","284001","499","77","1","swim","","","","",""
"dual-task","null","null","null","","arctic","swim","533","","a","null","88","88","1","swim-dual-task","","a","lowercase","296000","0","3","01d92d17ed0ea9d99d2bac6381808c7ee69318be66dd3daf29c6bf4568786f8d","295999","533","88","1","swim","","","","",""
"dual-task","null","null","null","","arctic","swim","564","","Q","null","77","77","1","swim-dual-task","","Q","uppercase","310000","0","3","01d92d17ed0ea9d99d2bac6381808c7ee69318be66dd3daf29c6bf4568786f8d","310000","564","77","1","swim","","","","",""
"dual-task","null","null","null","","arctic","swim","516","","T","null","77","77","1","swim-dual-task","","T","uppercase","318000","0","3","01d92d17ed0ea9d99d2bac6381808c7ee69318be66dd3daf29c6bf4568786f8d","317999","516","77","1","swim","","","","",""
"dual-task","null","null","null","","arctic","swim","532","","N","null","77","77","1","swim-dual-task","","N","uppercase","328000","0","3","01d92d17ed0ea9d99d2bac6381808c7ee69318be66dd3daf29c6bf4568786f8d","327999","532","77","1","swim","","","","",""
"dual-task","null","null","null","","arctic","swim","533","","b","null","88","88","1","swim-dual-task","","b","lowercase","334000","0","3","01d92d17ed0ea9d99d2bac6381808c7ee69318be66dd3daf29c6bf4568786f8d","333999","533","88","1","swim","","","","",""
"dual-task","null","null","null","","arctic","swim","499","","G","null","77","77","1","swim-dual-task","","G","uppercase","344000","0","3","01d92d17ed0ea9d99d2bac6381808c7ee69318be66dd3daf29c6bf4568786f8d","343999","499","77","1","swim","","","","",""
"dual-task","null","null","null","","arctic","swim","548","","R","null","77","77","1","swim-dual-task","","R","uppercase","352000","0","3","01d92d17ed0ea9d99d2bac6381808c7ee69318be66dd3daf29c6bf4568786f8d","351999","548","77","1","swim","","","","",""
"dual-task","null","null","null","","arctic","swim","581","","g","null","88","88","1","swim-dual-task","","g","lowercase","366000","0","3","01d92d17ed0ea9d99d2bac6381808c7ee69318be66dd3daf29c6bf4568786f8d","365999","581","88","1","swim","","","","",""
"dual-task","null","null","null","","arctic","swim","533","","B","null","77","77","1","swim-dual-task","","B","uppercase","374000","0","3","01d92d17ed0ea9d99d2bac6381808c7ee69318be66dd3daf29c6bf4568786f8d","374000","533","77","1","swim","","","","",""
"dual-task","null","null","null","","arctic","swim","564","","f","null","88","88","1","swim-dual-task","","f","lowercase","382000","0","3","01d92d17ed0ea9d99d2bac6381808c7ee69318be66dd3daf29c6bf4568786f8d","382000","564","88","1","swim","","","","",""
"dual-task","null","null","null","","arctic","swim","517","","t","null","88","88","1","swim-dual-task","","t","lowercase","392000","0","3","01d92d17ed0ea9d99d2bac6381808c7ee69318be66dd3daf29c6bf4568786f8d","391999","517","88","1","swim","","","","",""
"dual-task","null","null","null","","arctic","swim","532","","a","null","88","88","1","swim-dual-task","","a","lowercase","400000","0","3","01d92d17ed0ea9d99d2bac6381808c7ee69318be66dd3daf29c6bf4568786f8d","399999","532","88","1","swim","","","","",""
"dual-task","null","null","null","","arctic","swim","563","","F","null","77","77","1","swim-dual-task","","F","uppercase","414000","0","3","01d92d17ed0ea9d99d2bac6381808c7ee69318be66dd3daf29c6bf4568786f8d","414000","563","77","1","swim","","","","",""
"dual-task","null","null","null","","arctic","swim","548","","D","null","77","77","1","swim-dual-task","","D","uppercase","424000","0","3","01d92d17ed0ea9d99d2bac6381808c7ee69318be66dd3daf29c6bf4568786f8d","424000","548","77","1","swim","","","","",""
"dual-task","null","null","null","","arctic","swim","499","","d","null","88","88","1","swim-dual-task","","d","lowercase","434000","0","3","01d92d17ed0ea9d99d2bac6381808c7ee69318be66dd3daf29c6bf4568786f8d","434000","499","88","1","swim","","","","",""
"dual-task","null","null","null","","arctic","swim","499","","r","null","88","88","1","swim-dual-task","","r","lowercase","446000","0","3","01d92d17ed0ea9d99d2bac6381808c7ee69318be66dd3daf29c6bf4568786f8d","445999","499","88","1","swim","","","","",""
"dual-task","null","null","null","","arctic","swim","516","","E","null","77","77","1","swim-dual-task","","E","uppercase","456000","0","3","01d92d17ed0ea9d99d2bac6381808c7ee69318be66dd3daf29c6bf4568786f8d","455999","516","77","1","swim","","","","",""
"dual-task","null","null","null","","arctic","swim","644","","Q","null","77","77","1","swim-dual-task","","Q","uppercase","466000","0","3","01d92d17ed0ea9d99d2bac6381808c7ee69318be66dd3daf29c6bf4568786f8d","465999","644","77","1","swim","","","","",""
"dual-task","null","null","null","","arctic","swim","532","","g","null","88","88","1","swim-dual-task","","g","lowercase","478000","0","3","01d92d17ed0ea9d99d2bac6381808c7ee69318be66dd3daf29c6bf4568786f8d","477999","532","88","1","swim","","","","",""
"dual-task","null","null","null","","arctic","swim","564","","b","null","88","88","1","swim-dual-task","","b","lowercase","488000","0","3","01d92d17ed0ea9d99d2bac6381808c7ee69318be66dd3daf29c6bf4568786f8d","487999","564","88","1","swim","","","","",""
"dual-task","null","null","null","","arctic","swim","549","","H","null","77","77","1","swim-dual-task","","H","uppercase","498000","0","3","01d92d17ed0ea9d99d2bac6381808c7ee69318be66dd3daf29c6bf4568786f8d","498000","549","77","1","swim","","","","",""
"dual-task","null","null","null","","arctic","swim","483","","G","null","77","77","1","swim-dual-task","","G","uppercase","512000","0","3","01d92d17ed0ea9d99d2bac6381808c7ee69318be66dd3daf29c6bf4568786f8d","512000","483","77","1","swim","","","","",""
"dual-task","null","null","null","","arctic","swim","532","","G","null","77","77","1","swim-dual-task","","G","uppercase","518000","0","3","01d92d17ed0ea9d99d2bac6381808c7ee69318be66dd3daf29c6bf4568786f8d","518000","532","77","1","swim","","","","",""
"dual-task","null","null","null","","arctic","swim","531","","H","null","77","77","1","swim-dual-task","","H","uppercase","524000","0","3","01d92d17ed0ea9d99d2bac6381808c7ee69318be66dd3daf29c6bf4568786f8d","524000","531","77","1","swim","","","","",""
"dual-task","null","null","null","","arctic","swim","484","","B","null","77","77","1","swim-dual-task","","B","uppercase","536000","0","3","01d92d17ed0ea9d99d2bac6381808c7ee69318be66dd3daf29c6bf4568786f8d","536000","484","77","1","swim","","","","",""
"dual-task","null","null","null","","arctic","swim","482","","A","null","77","77","1","swim-dual-task","","A","uppercase","550000","0","3","01d92d17ed0ea9d99d2bac6381808c7ee69318be66dd3daf29c6bf4568786f8d","550000","482","77","1","swim","","","","",""
"dual-task","null","null","null","","arctic","swim","677","","t","null","88","88","1","swim-dual-task","","t","lowercase","556000","0","3","01d92d17ed0ea9d99d2bac6381808c7ee69318be66dd3daf29c6bf4568786f8d","555999","677","88","1","swim","","","","",""
"dual-task","null","null","null","","arctic","swim","499","","N","null","77","77","1","swim-dual-task","","N","uppercase","562000","0","3","01d92d17ed0ea9d99d2bac6381808c7ee69318be66dd3daf29c6bf4568786f8d","562000","499","77","1","swim","","","","",""
"dual-task","null","null","null","","arctic","swim","499","","F","null","77","77","1","swim-dual-task","","F","uppercase","568000","0","3","01d92d17ed0ea9d99d2bac6381808c7ee69318be66dd3daf29c6bf4568786f8d","568000","499","77","1","swim","","","","",""
"dual-task","null","null","null","","arctic","swim","531","","T","null","77","77","1","swim-dual-task","","T","uppercase","580000","0","3","01d92d17ed0ea9d99d2bac6381808c7ee69318be66dd3daf29c6bf4568786f8d","579999","531","77","1","swim","","","","",""
"dual-task","null","null","null","","arctic","swim","436","","H","null","77","77","1","swim-dual-task","","H","uppercase","590000","0","3","01d92d17ed0ea9d99d2bac6381808c7ee69318be66dd3daf29c6bf4568786f8d","590000","436","77","1","swim","","","","",""
"dual-task","null","null","null","","arctic","swim","533","","R","null","77","77","1","swim-dual-task","","R","uppercase","604000","0","3","01d92d17ed0ea9d99d2bac6381808c7ee69318be66dd3daf29c6bf4568786f8d","603999","533","77","1","swim","","","","",""
"dual-task","null","null","null","","arctic","swim","532","","Q","null","77","77","1","swim-dual-task","","Q","uppercase","614000","0","3","01d92d17ed0ea9d99d2bac6381808c7ee69318be66dd3daf29c6bf4568786f8d","614000","532","77","1","swim","","","","",""
"dual-task","null","null","null","","arctic","swim","500","","F","null","77","77","1","swim-dual-task","","F","uppercase","624000","0","3","01d92d17ed0ea9d99d2bac6381808c7ee69318be66dd3daf29c6bf4568786f8d","624000","500","77","1","swim","","","","",""
"dual-task","null","null","null","","arctic","swim","483","","E","null","77","77","1","swim-dual-task","","E","uppercase","632000","0","3","01d92d17ed0ea9d99d2bac6381808c7ee69318be66dd3daf29c6bf4568786f8d","632000","483","77","1","swim","","","","",""
"dual-task","null","null","null","","arctic","swim","483","","Q","null","77","77","1","swim-dual-task","","Q","uppercase","642000","0","3","01d92d17ed0ea9d99d2bac6381808c7ee69318be66dd3daf29c6bf4568786f8d","641999","483","77","1","swim","","","","",""
"dual-task","null","null","null","","arctic","swim","723","","e","null","88","88","1","swim-dual-task","","e","lowercase","648000","0","3","01d92d17ed0ea9d99d2bac6381808c7ee69318be66dd3daf29c6bf4568786f8d","648000","723","88","1","swim","","","","",""
"dual-task","null","null","null","","arctic","swim","548","","n","null","88","88","1","swim-dual-task","","n","lowercase","660000","0","3","01d92d17ed0ea9d99d2bac6381808c7ee69318be66dd3daf29c6bf4568786f8d","659999","548","88","1","swim","","","","",""
"dual-task","null","null","null","","arctic","swim","565","","f","null","88","88","1","swim-dual-task","","f","lowercase","670000","0","3","01d92d17ed0ea9d99d2bac6381808c7ee69318be66dd3daf29c6bf4568786f8d","670000","565","88","1","swim","","","","",""
"dual-task","null","null","null","","arctic","swim","547","","f","null","88","88","1","swim-dual-task","","f","lowercase","680000","0","3","01d92d17ed0ea9d99d2bac6381808c7ee69318be66dd3daf29c6bf4568786f8d","680000","547","88","1","swim","","","","",""
"dual-task","null","null","null","","arctic","swim","387","","b","null","88","88","1","swim-dual-task","","b","lowercase","692000","0","3","01d92d17ed0ea9d99d2bac6381808c7ee69318be66dd3daf29c6bf4568786f8d","691999","387","88","1","swim","","","","",""
"dual-task","null","null","null","","arctic","swim","532","","d","null","88","88","1","swim-dual-task","","d","lowercase","702000","0","3","01d92d17ed0ea9d99d2bac6381808c7ee69318be66dd3daf29c6bf4568786f8d","702000","532","88","1","swim","","","","",""
"dual-task","null","null","null","","arctic","swim","644","","G","null","77","77","1","swim-dual-task","","G","uppercase","710000","0","3","01d92d17ed0ea9d99d2bac6381808c7ee69318be66dd3daf29c6bf4568786f8d","710000","644","77","1","swim","","","","",""
"dual-task","null","null","null","","arctic","swim","564","","r","null","88","88","1","swim-dual-task","","r","lowercase","718000","0","3","01d92d17ed0ea9d99d2bac6381808c7ee69318be66dd3daf29c6bf4568786f8d","718000","564","88","1","swim","","","","",""
"dual-task","null","null","null","","arctic","swim","563","","N","null","77","77","1","swim-dual-task","","N","uppercase","730000","0","3","01d92d17ed0ea9d99d2bac6381808c7ee69318be66dd3daf29c6bf4568786f8d","730000","563","77","1","swim","","","","",""
"dual-task","null","null","null","","arctic","swim","596","","e","null","88","88","1","swim-dual-task","","e","lowercase","742000","0","3","01d92d17ed0ea9d99d2bac6381808c7ee69318be66dd3daf29c6bf4568786f8d","742000","596","88","1","swim","","","","",""
"dual-task","null","null","null","","arctic","swim","596","","t","null","88","88","1","swim-dual-task","","t","lowercase","748000","0","3","01d92d17ed0ea9d99d2bac6381808c7ee69318be66dd3daf29c6bf4568786f8d","748000","596","88","1","swim","","","","",""
"dual-task","null","null","null","","arctic","swim","563","","f","null","88","88","1","swim-dual-task","","f","lowercase","762000","0","3","01d92d17ed0ea9d99d2bac6381808c7ee69318be66dd3daf29c6bf4568786f8d","762000","563","88","1","swim","","","","",""
"dual-task","null","null","null","","arctic","swim","563","","A","null","77","77","1","swim-dual-task","","A","uppercase","772000","0","3","01d92d17ed0ea9d99d2bac6381808c7ee69318be66dd3daf29c6bf4568786f8d","772000","563","77","1","swim","","","","",""
"dual-task","null","null","null","","arctic","swim","596","","R","null","77","77","1","swim-dual-task","","R","uppercase","784000","0","3","01d92d17ed0ea9d99d2bac6381808c7ee69318be66dd3daf29c6bf4568786f8d","784000","596","77","1","swim","","","","",""
"dual-task","null","null","null","","arctic","swim","467","","D","null","77","77","1","swim-dual-task","","D","uppercase","792000","0","3","01d92d17ed0ea9d99d2bac6381808c7ee69318be66dd3daf29c6bf4568786f8d","792000","467","77","1","swim","","","","",""
"audio-keyboard-response","62","3982375","0.0-6.0-2.0-1.0","01d92d17ed0ea9d99d2bac6381808c7ee69318be66dd3daf29c6bf4568786f8d","arctic","swim","null","","audio/story_swim_scrambled.mp3","","null","","","","","","","","","","","","","","","","","","","",""
"html-button-response","63","3984468","0.0-6.0-2.0-2.0","01d92d17ed0ea9d99d2bac6381808c7ee69318be66dd3daf29c6bf4568786f8d","arctic","swim","2091","","<p>This concludes the story. Thank you for listening.</p><p>You will now answer some questions about the content of the story.</p>","0","","","","","","","","","","","","","","","","","","","","",""
"survey-multi-choice","64","3987947","0.0-6.0-2.0-3.0-0.0","01d92d17ed0ea9d99d2bac6381808c7ee69318be66dd3daf29c6bf4568786f8d","arctic","swim","3476","","<b>How many astronaut candidates passed the first swim test?</b>","","","","1","swim-comprehension","","","","","","","","","","","","","{""Q0"":""All of them""}","","","",""
"survey-multi-choice","65","3993255","0.0-6.0-2.0-3.0-0.1","01d92d17ed0ea9d99d2bac6381808c7ee69318be66dd3daf29c6bf4568786f8d","arctic","swim","5054","","<b>What was the final step of the first swim test in the pool?</b>","","","","1","swim-comprehension","","","","","","","","","","","","","{""Q0"":""Tread water with hands above the water""}","","","",""
"survey-multi-choice","66","3998152","0.0-6.0-2.0-3.0-0.2","01d92d17ed0ea9d99d2bac6381808c7ee69318be66dd3daf29c6bf4568786f8d","arctic","swim","4643","","<b>Where is the home of naval aviation?</b>","","","","1","swim-comprehension","","","","","","","","","","","","","{""Q0"":""Pensacola""}","","","",""
"survey-multi-choice","67","4003404","0.0-6.0-2.0-3.0-0.3","01d92d17ed0ea9d99d2bac6381808c7ee69318be66dd3daf29c6bf4568786f8d","arctic","swim","5000","","<b>How did the narrator train for his swim test?</b>","","","","1","swim-comprehension","","","","","","","","","","","","","{""Q0"":""Took his kids to the pool every day""}","","","",""
"survey-multi-choice","68","4006629","0.0-6.0-2.0-3.0-0.4","01d92d17ed0ea9d99d2bac6381808c7ee69318be66dd3daf29c6bf4568786f8d","arctic","swim","2972","","<b>How many times did the astronaut candidates have to complete the final exercise to pass?</b>","","","","1","swim-comprehension","","","","","","","","","","","","","{""Q0"":""Two""}","","","",""
"survey-multi-choice","69","4012232","0.0-6.0-2.0-3.0-0.5","01d92d17ed0ea9d99d2bac6381808c7ee69318be66dd3daf29c6bf4568786f8d","arctic","swim","5350","","<b>How often does the narrator swim, now that he is a good swimmer?</b>","","","","0","swim-comprehension","","","","","","","","","","","","","{""Q0"":""Every day at the local pool""}","","","",""
"survey-multi-choice","70","4017257","0.0-6.0-2.0-3.0-0.6","01d92d17ed0ea9d99d2bac6381808c7ee69318be66dd3daf29c6bf4568786f8d","arctic","swim","4772","","<b>What were the astronaut candidates trained to do at the naval air station?</b>","","","","1","swim-comprehension","","","","","","","","","","","","","{""Q0"":""Eject out of aircraft and survive in water long enough to be rescued""}","","","",""
"survey-multi-choice","71","4021979","0.0-6.0-2.0-3.0-0.7","01d92d17ed0ea9d99d2bac6381808c7ee69318be66dd3daf29c6bf4568786f8d","arctic","swim","4467","","<b>How many astronaut candidates reported for duty at the Johnson Space Center?</b>","","","","1","swim-comprehension","","","","","","","","","","","","","{""Q0"":""Forty-four""}","","","",""
"survey-multi-choice","72","4025190","0.0-6.0-2.0-3.0-0.8","01d92d17ed0ea9d99d2bac6381808c7ee69318be66dd3daf29c6bf4568786f8d","arctic","swim","2957","","<b>What is the narrator afraid of, aside from the water?</b>","","","","1","swim-comprehension","","","","","","","","","","","","","{""Q0"":""Heights""}","","","",""
"survey-multi-choice","73","4030165","0.0-6.0-2.0-3.0-0.9","01d92d17ed0ea9d99d2bac6381808c7ee69318be66dd3daf29c6bf4568786f8d","arctic","swim","4722","","<b>What gave the narrator his greatest feeling of accomplishment?</b>","","","","1","swim-comprehension","","","","","","","","","","","","","{""Q0"":""Passing the water survival course""}","","","",""
"html-button-response","74","4032484","0.0-6.0-2.0-4.0","01d92d17ed0ea9d99d2bac6381808c7ee69318be66dd3daf29c6bf4568786f8d","arctic","swim","2067","","<p>Thank you for your responses.</p><p>You will now answer some questions about your impressions of the story.</p>","0","","","","","","","","","","","","","","","","","","","","",""
"html-button-response","75","4034132","0.0-6.0-2.0-5.0-0.0","01d92d17ed0ea9d99d2bac6381808c7ee69318be66dd3daf29c6bf4568786f8d","arctic","swim","1646","","E8","3","","","","swim-engagement","","","","","","","","","","","","","","4","enjoyment","",""
"html-button-response","76","4035636","0.0-6.0-2.0-5.0-0.1","01d92d17ed0ea9d99d2bac6381808c7ee69318be66dd3daf29c6bf4568786f8d","arctic","swim","1252","","EE3","2","","","","swim-engagement","","","","","","","","","","","","","","3","emo-engage","",""
"html-button-response","77","4036947","0.0-6.0-2.0-5.0-0.2","01d92d17ed0ea9d99d2bac6381808c7ee69318be66dd3daf29c6bf4568786f8d","arctic","swim","1061","","EE4","2","","","","swim-engagement","","","","","","","","","","","","","","3","emo-engage","",""
"html-button-response","78","4038387","0.0-6.0-2.0-5.0-0.3","01d92d17ed0ea9d99d2bac6381808c7ee69318be66dd3daf29c6bf4568786f8d","arctic","swim","1187","","MS1","2","","","","swim-engagement","","","","","","","","","","","","","","3","mental-sim","",""
"html-button-response","79","4043860","0.0-6.0-2.0-5.0-0.4","01d92d17ed0ea9d99d2bac6381808c7ee69318be66dd3daf29c6bf4568786f8d","arctic","swim","5221","","E7","4","","","","swim-engagement","","","","","","","","","","","","","","5","enjoyment","",""
"html-button-response","80","4045924","0.0-6.0-2.0-5.0-0.5","01d92d17ed0ea9d99d2bac6381808c7ee69318be66dd3daf29c6bf4568786f8d","arctic","swim","1813","","MS2","2","","","","swim-engagement","","","","","","","","","","","","","","3","mental-sim","",""
"html-button-response","81","4047477","0.0-6.0-2.0-5.0-0.6","01d92d17ed0ea9d99d2bac6381808c7ee69318be66dd3daf29c6bf4568786f8d","arctic","swim","1300","","A1","2","","","","swim-engagement","","","","","","","","","","","","","","3","absorption","",""
"html-button-response","82","4049060","0.0-6.0-2.0-5.0-0.7","01d92d17ed0ea9d99d2bac6381808c7ee69318be66dd3daf29c6bf4568786f8d","arctic","swim","1331","","E6","3","","","","swim-engagement","","","","","","","","","","","","","","4","enjoyment","",""
"html-button-response","83","4051396","0.0-6.0-2.0-5.0-0.8","01d92d17ed0ea9d99d2bac6381808c7ee69318be66dd3daf29c6bf4568786f8d","arctic","swim","2084","","MS3","2","","","","swim-engagement","","","","","","","","","","","","","","3","mental-sim","",""
"html-button-response","84","4054036","0.0-6.0-2.0-5.0-0.9","01d92d17ed0ea9d99d2bac6381808c7ee69318be66dd3daf29c6bf4568786f8d","arctic","swim","2389","","A4","3","","","","swim-engagement","","","","","","","","","","","","","","4","absorption","",""
"html-button-response","85","4056117","0.0-6.0-2.0-5.0-0.10","01d92d17ed0ea9d99d2bac6381808c7ee69318be66dd3daf29c6bf4568786f8d","arctic","swim","1828","","E10","3","","","","swim-engagement","","","","","","","","","","","","","","4","enjoyment","",""
"html-button-response","86","4057875","0.0-6.0-2.0-5.0-0.11","01d92d17ed0ea9d99d2bac6381808c7ee69318be66dd3daf29c6bf4568786f8d","arctic","swim","1506","","A5","3","","","","swim-engagement","","","","","","","","","","","","","","4","absorption","",""
"html-button-response","87","4060532","0.0-6.0-2.0-5.0-0.12","01d92d17ed0ea9d99d2bac6381808c7ee69318be66dd3daf29c6bf4568786f8d","arctic","swim","2405","","EE1","2","","","","swim-engagement","","","","","","","","","","","","","","3","emo-engage","",""
"html-button-response","88","4064581","0.0-6.0-2.0-5.0-0.13","01d92d17ed0ea9d99d2bac6381808c7ee69318be66dd3daf29c6bf4568786f8d","arctic","swim","3797","","EE5","2","","","","swim-engagement","","","","","","","","","","","","","","3","emo-engage","",""
"html-button-response","89","4066053","0.0-6.0-2.0-5.0-0.14","01d92d17ed0ea9d99d2bac6381808c7ee69318be66dd3daf29c6bf4568786f8d","arctic","swim","1221","","E1","3","","","","swim-engagement","","","","","","","","","","","","","","4","enjoyment","",""
"html-button-response","90","4067955","0.0-6.0-2.0-5.0-0.15","01d92d17ed0ea9d99d2bac6381808c7ee69318be66dd3daf29c6bf4568786f8d","arctic","swim","1651","","A3","3","","","","swim-engagement","","","","","","","","","","","","","","4","absorption","",""
"html-button-response","91","4070596","0.0-6.0-2.0-5.0-0.16","01d92d17ed0ea9d99d2bac6381808c7ee69318be66dd3daf29c6bf4568786f8d","arctic","swim","2389","","EE2","2","","","","swim-engagement","","","","","","","","","","","","","","3","emo-engage","",""
"html-button-response","92","4072947","0.0-6.0-2.0-5.0-0.17","01d92d17ed0ea9d99d2bac6381808c7ee69318be66dd3daf29c6bf4568786f8d","arctic","swim","2101","","A2","6","","","","swim-engagement","","","","","","","","","","","","","","7","absorption","",""
"html-button-response","93","4074100","0.0-8.0","01d92d17ed0ea9d99d2bac6381808c7ee69318be66dd3daf29c6bf4568786f8d","arctic","swim","901","","<p>Thank you for your responses.</p><p>You will now answer some demographic, hearing, and general health questions.</p>","0","","","","","","","","","","","","","","","","","","","","",""
"survey-multi-choice","94","4077414","0.0-9.0-0.0","01d92d17ed0ea9d99d2bac6381808c7ee69318be66dd3daf29c6bf4568786f8d","arctic","swim","3312","","","","","","","survey","","","","","","","","","","","","","{""Q0"":""Firefox""}","","","browser",""
"survey-text","95","4080152","0.0-9.0-1.0","01d92d17ed0ea9d99d2bac6381808c7ee69318be66dd3daf29c6bf4568786f8d","arctic","swim","2483","","","","","","","survey","","","","","","","","","","","","","{""AGE"":""27""}","","","age","27"
"survey-multi-choice","96","4082164","0.0-9.0-2.0","01d92d17ed0ea9d99d2bac6381808c7ee69318be66dd3daf29c6bf4568786f8d","arctic","swim","1760","","","","","","","survey","","","","","","","","","","","","","{""Q0"":""Male""}","","","gender","Male"
"survey-multi-choice","97","4085878","0.0-9.0-4.0","01d92d17ed0ea9d99d2bac6381808c7ee69318be66dd3daf29c6bf4568786f8d","arctic","swim","3462","","","","","","","survey","","","","","","","","","","","","","{""Q0"":""Right""}","","","handedness","Right"
"survey-multi-choice","98","4088491","0.0-9.0-5.0","01d92d17ed0ea9d99d2bac6381808c7ee69318be66dd3daf29c6bf4568786f8d","arctic","swim","2361","","","","","","","survey","","","","","","","","","","","","","{""Q0"":""Bachelor's Degree""}","","","education","Bachelor's Degree"
"survey-text","99","4092329","0.0-10.0-0.0","01d92d17ed0ea9d99d2bac6381808c7ee69318be66dd3daf29c6bf4568786f8d","arctic","swim","3585","","","","","","","survey","","","","","","","","","","","","","{""L1"":""English""}","","","first-language","English"
"survey-text","100","4096181","0.0-10.0-1.0","01d92d17ed0ea9d99d2bac6381808c7ee69318be66dd3daf29c6bf4568786f8d","arctic","swim","3594","","","","","","","survey","","","","","","","","","","","","","{""L2name"":"""",""L2fluency"":"""",""L3name"":"""",""L3fluency"":"""",""L4name"":"""",""L4fluency"":""""}","","","additional-languages","{""L2name"":"""",""L2fluency"":"""",""L3name"":"""",""L3fluency"":"""",""L4name"":"""",""L4fluency"":""""}"
"survey-multi-choice","101","4098440","0.0-10.0-2.0","01d92d17ed0ea9d99d2bac6381808c7ee69318be66dd3daf29c6bf4568786f8d","arctic","swim","2008","","","","","","","survey","","","","","","","","","","","","","{""Q0"":""No""}","","","hearing-aid","No"
"survey-multi-choice","102","4100714","0.0-10.0-3.0","01d92d17ed0ea9d99d2bac6381808c7ee69318be66dd3daf29c6bf4568786f8d","arctic","swim","2020","","","","","","","survey","","","","","","","","","","","","","{""Q0"":""Never""}","","","ringing-ears","Never"
"survey-multi-choice","103","4102887","0.0-10.0-5.0","01d92d17ed0ea9d99d2bac6381808c7ee69318be66dd3daf29c6bf4568786f8d","arctic","swim","1921","","","","","","","survey","","","","","","","","","","","","","{""Q0"":""No""}","","","neuro-disease","No"
"survey-multi-choice","104","4105117","0.0-10.0-7.0","01d92d17ed0ea9d99d2bac6381808c7ee69318be66dd3daf29c6bf4568786f8d","arctic","swim","1977","","","","","","","survey","","","","","","","","","","","","","{""Q0"":""No""}","","","take-meds","No"
"survey-text","105","4109224","0.0-10.0-9.0","01d92d17ed0ea9d99d2bac6381808c7ee69318be66dd3daf29c6bf4568786f8d","arctic","swim","3848","","","","","","","survey","","","","","","","","","","","","","{""HC"":""""}","","","health-concerns",""
"html-button-response","106","4111652","0.0-11.0-0.0","01d92d17ed0ea9d99d2bac6381808c7ee69318be66dd3daf29c6bf4568786f8d","arctic","swim","2175","","<p>How would you describe your musical skills/experiences?</p>","0","","","","survey","","","","","","","","","","","","","","","","music-skill","1"
"survey-multi-choice","107","4113724","0.0-11.0-1.0","01d92d17ed0ea9d99d2bac6381808c7ee69318be66dd3daf29c6bf4568786f8d","arctic","swim","1820","","","","","","","survey","","","","","","","","","","","","","{""Q0"":""No""}","","","music-instrument","No"
"html-button-response","108","4115972","0.0-12.0-0.0","01d92d17ed0ea9d99d2bac6381808c7ee69318be66dd3daf29c6bf4568786f8d","arctic","swim","1997","","<p>How would you describe your general hearing abilities?</p>","5","","","","survey","","","","","","","","","","","","","","","","ssq-01","6"
"html-button-response","109","4119526","0.0-12.0-1.0","01d92d17ed0ea9d99d2bac6381808c7ee69318be66dd3daf29c6bf4568786f8d","arctic","swim","3303","","<p>When you talk with someone at a place that strongly reverberates/echoes (e.g., in a church or train station),</br>can you understand what the person says?</p>","10","","","","survey","","","","","","","","","","","","","","","","ssq-02","10"
"html-button-response","110","4121799","0.0-12.0-2.0","01d92d17ed0ea9d99d2bac6381808c7ee69318be66dd3daf29c6bf4568786f8d","arctic","swim","2022","","<p>When you are with a group (~5 people) in a lively restaurant, can you follow the group's conversation?</p>","10","","","","survey","","","","","","","","","","","","","","","","ssq-03","10"
"html-button-response","111","4125652","0.0-12.0-3.0","01d92d17ed0ea9d99d2bac6381808c7ee69318be66dd3daf29c6bf4568786f8d","arctic","swim","3601","","<p>Based on the sound of a bus or truck, can you tell whether it is moving towards or away from you?</p>","10","","","","survey","","","","","","","","","","","","","","","","ssq-04","10"
"html-button-response","112","4129446","0.0-12.0-4.0","01d92d17ed0ea9d99d2bac6381808c7ee69318be66dd3daf29c6bf4568786f8d","arctic","swim","3541","","<p>When you are in an unknown environment, can you tell from which direction a brief sound originates?</p>","10","","","","survey","","","","","","","","","","","","","","","","ssq-05","10"
"html-button-response","113","4131555","0.0-12.0-5.0","01d92d17ed0ea9d99d2bac6381808c7ee69318be66dd3daf29c6bf4568786f8d","arctic","swim","1857","","<p>Are you able to ignore distracting sounds when you concentrate on a specific aspect of your acoustic surrounding?</p>","10","","","","survey","","","","","","","","","","","","","","","","ssq-06","10"
"fullscreen","114","4132806","0.0-13.0","01d92d17ed0ea9d99d2bac6381808c7ee69318be66dd3daf29c6bf4568786f8d","arctic","swim","","","","","","","","","true","","","","","","","","","","","","","","","",""
