"trial_type","trial_index","time_elapsed","internal_node_id","ParticipantID","firstStory","scramStory","rt","url","stimulus","button_pressed","key_press","correctRESP","correct","designation","success","letterStim","letterType","ONSET","TIMEOUT","CONDITION","Participant","ONSET_ACTUAL","RT","RESP","ACC","STORY","responses","response","type","surveyQuestion","QRESP"
"pavlovia","0","3","0.0-0.0","28fd7ddb0849993cdc2f15aeb4627b6f3dbea5c8d225bb2455558f52c3e18224","arctic","arctic","","","","","","","","","","","","","","","","","","","","","","","","",""
"external-html","1","862365","0.0-1.0","28fd7ddb0849993cdc2f15aeb4627b6f3dbea5c8d225bb2455558f52c3e18224","arctic","arctic","862208","consent/consent_updated.html","","","","","","","","","","","","","","","","","","","","","","",""
"html-button-response","2","870157","0.0-2.0-0.0","28fd7ddb0849993cdc2f15aeb4627b6f3dbea5c8d225bb2455558f52c3e18224","arctic","arctic","7791","","<p>Before we begin the main task, you will complete a short volume calibration and headphone check.</p><p>Please make sure you are in a quiet listening environment, that you are wearing headphones, and that your computer's volume is turned on.<p></p>","0","","","","","","","","","","","","","","","","","","","","",""
"html-button-response","3","874501","0.0-2.0-1.0","28fd7ddb0849993cdc2f15aeb4627b6f3dbea5c8d225bb2455558f52c3e18224","arctic","arctic","4081","","<p>The volume calibration will be first.</p><p>You will hear a thirty-second noise. Please adjust your computer's volume so that this noise is being presented at a comfortable level.<p></p>","0","","","","","","","","","","","","","","","","","","","","",""
"audio-button-response","4","889146","0.0-2.0-2.0","28fd7ddb0849993cdc2f15aeb4627b6f3dbea5c8d225bb2455558f52c3e18224","arctic","arctic","14382","","audio/volumetest.mp3","0","","","","","","","","","","","","","","","","","","","","",""
"html-keyboard-response","5","898289","0.0-3.0-0.0","28fd7ddb0849993cdc2f15aeb4627b6f3dbea5c8d225bb2455558f52c3e18224","arctic","arctic","9143","","<p>You will now complete a short headphone check.</p><p>On each trial, you will hear three tones. One of these tones will be quieter than the others. Your task is to identify whether the quiet tone occurred first, second, or third.</p><p>There are six trials in total.<p></p><p></p>(Press SPACEBAR to begin)","","32","","","","","","","","","","","","","","","","","","","",""
"html-keyboard-response","6","899045","0.0-3.0-1.0-0.0","28fd7ddb0849993cdc2f15aeb4627b6f3dbea5c8d225bb2455558f52c3e18224","arctic","arctic","null","","<div style=""font-size:60px;"">+</div>","","null","","","","","","","","","","","","","","","","","","","",""
"audio-button-response","7","904355","0.0-3.0-1.0-1.0","28fd7ddb0849993cdc2f15aeb4627b6f3dbea5c8d225bb2455558f52c3e18224","arctic","arctic","5308","","audio/t1_1.mp3","0","","0","1","headphone-test","","","","","","","","","","","","","","","","",""
"html-keyboard-response","8","904865","0.0-3.0-1.0-2.0","28fd7ddb0849993cdc2f15aeb4627b6f3dbea5c8d225bb2455558f52c3e18224","arctic","arctic","null","","<p>Correct</p>","","null","","","","","","","","","","","","","","","","","","","",""
"html-keyboard-response","9","905381","0.0-3.0-1.0-0.1","28fd7ddb0849993cdc2f15aeb4627b6f3dbea5c8d225bb2455558f52c3e18224","arctic","arctic","null","","<div style=""font-size:60px;"">+</div>","","null","","","","","","","","","","","","","","","","","","","",""
"audio-button-response","10","910387","0.0-3.0-1.0-1.1","28fd7ddb0849993cdc2f15aeb4627b6f3dbea5c8d225bb2455558f52c3e18224","arctic","arctic","5004","","audio/t1_2.mp3","0","","0","1","headphone-test","","","","","","","","","","","","","","","","",""
"html-keyboard-response","11","910905","0.0-3.0-1.0-2.1","28fd7ddb0849993cdc2f15aeb4627b6f3dbea5c8d225bb2455558f52c3e18224","arctic","arctic","null","","<p>Correct</p>","","null","","","","","","","","","","","","","","","","","","","",""
"html-keyboard-response","12","911413","0.0-3.0-1.0-0.2","28fd7ddb0849993cdc2f15aeb4627b6f3dbea5c8d225bb2455558f52c3e18224","arctic","arctic","null","","<div style=""font-size:60px;"">+</div>","","null","","","","","","","","","","","","","","","","","","","",""
"audio-button-response","13","916431","0.0-3.0-1.0-1.2","28fd7ddb0849993cdc2f15aeb4627b6f3dbea5c8d225bb2455558f52c3e18224","arctic","arctic","5018","","audio/t2_2.mp3","1","","1","1","headphone-test","","","","","","","","","","","","","","","","",""
"html-keyboard-response","14","916932","0.0-3.0-1.0-2.2","28fd7ddb0849993cdc2f15aeb4627b6f3dbea5c8d225bb2455558f52c3e18224","arctic","arctic","null","","<p>Correct</p>","","null","","","","","","","","","","","","","","","","","","","",""
"html-keyboard-response","15","917445","0.0-3.0-1.0-0.3","28fd7ddb0849993cdc2f15aeb4627b6f3dbea5c8d225bb2455558f52c3e18224","arctic","arctic","null","","<div style=""font-size:60px;"">+</div>","","null","","","","","","","","","","","","","","","","","","","",""
"audio-button-response","16","922519","0.0-3.0-1.0-1.3","28fd7ddb0849993cdc2f15aeb4627b6f3dbea5c8d225bb2455558f52c3e18224","arctic","arctic","5073","","audio/t2_1.mp3","1","","1","1","headphone-test","","","","","","","","","","","","","","","","",""
"html-keyboard-response","17","923025","0.0-3.0-1.0-2.3","28fd7ddb0849993cdc2f15aeb4627b6f3dbea5c8d225bb2455558f52c3e18224","arctic","arctic","null","","<p>Correct</p>","","null","","","","","","","","","","","","","","","","","","","",""
"html-keyboard-response","18","923546","0.0-3.0-1.0-0.4","28fd7ddb0849993cdc2f15aeb4627b6f3dbea5c8d225bb2455558f52c3e18224","arctic","arctic","null","","<div style=""font-size:60px;"">+</div>","","null","","","","","","","","","","","","","","","","","","","",""
"audio-button-response","19","928071","0.0-3.0-1.0-1.4","28fd7ddb0849993cdc2f15aeb4627b6f3dbea5c8d225bb2455558f52c3e18224","arctic","arctic","4525","","audio/t3_1.mp3","2","","2","1","headphone-test","","","","","","","","","","","","","","","","",""
"html-keyboard-response","20","928585","0.0-3.0-1.0-2.4","28fd7ddb0849993cdc2f15aeb4627b6f3dbea5c8d225bb2455558f52c3e18224","arctic","arctic","null","","<p>Correct</p>","","null","","","","","","","","","","","","","","","","","","","",""
"html-keyboard-response","21","929105","0.0-3.0-1.0-0.5","28fd7ddb0849993cdc2f15aeb4627b6f3dbea5c8d225bb2455558f52c3e18224","arctic","arctic","null","","<div style=""font-size:60px;"">+</div>","","null","","","","","","","","","","","","","","","","","","","",""
"audio-button-response","22","933506","0.0-3.0-1.0-1.5","28fd7ddb0849993cdc2f15aeb4627b6f3dbea5c8d225bb2455558f52c3e18224","arctic","arctic","4400","","audio/t3_2.mp3","2","","2","1","headphone-test","","","","","","","","","","","","","","","","",""
"html-keyboard-response","23","934025","0.0-3.0-1.0-2.5","28fd7ddb0849993cdc2f15aeb4627b6f3dbea5c8d225bb2455558f52c3e18224","arctic","arctic","null","","<p>Correct</p>","","null","","","","","","","","","","","","","","","","","","","",""
"fullscreen","24","938315","0.0-4.0","28fd7ddb0849993cdc2f15aeb4627b6f3dbea5c8d225bb2455558f52c3e18224","arctic","arctic","","","","","","","","","true","","","","","","","","","","","","","","","",""
"html-button-response","25","951364","0.0-5.0-0.0","28fd7ddb0849993cdc2f15aeb4627b6f3dbea5c8d225bb2455558f52c3e18224","arctic","arctic","13048","","<p>There are two blocks to this experiment.</p><p>In each block, you will hear a ~13.5 minute story. One of the stories will be scrambled. Please listen carefully to both stories and understand them as best you can.</p><p>After each story, you will be asked some questions to assess your comprehension.</p>","0","","","","","","","","","","","","","","","","","","","","",""
"html-button-response","26","987860","0.0-5.0-1.0","28fd7ddb0849993cdc2f15aeb4627b6f3dbea5c8d225bb2455558f52c3e18224","arctic","arctic","36496","","<p>During each story, there will be an additional task.</p><p>A letter will occasionally appear on the screen.</br>Your job is to - as quickly as you can - decide whether the letter is lowercase or uppercase and press one of two keys on the keyboard:</p><p>If the letter is <b>lowercase</b>, press key &lt;<b>x</b>&gt;.</p><p>If the letter is <b>uppercase</b>, press key &lt;<b>m</b>&gt;.</p>","0","","","","","","","","","","","","","","","","","","","","",""
"html-keyboard-response","27","1013722","0.0-5.0-2.0","28fd7ddb0849993cdc2f15aeb4627b6f3dbea5c8d225bb2455558f52c3e18224","arctic","arctic","25862","","<p>Because we want your responses to be as quick as possible, please keep your index fingers over the keys while listening.</p><p>Each block lasts about 20 minutes.</p><p><b>Press &lt;x&gt; or &lt;m&gt; to start the first block!</b></p>","","77","","","","","","","","","","","","","","","","","","","",""
"html-keyboard-response","28","1014235","0.0-6.0-0.0-0.0","28fd7ddb0849993cdc2f15aeb4627b6f3dbea5c8d225bb2455558f52c3e18224","arctic","arctic","null","","<div style=""font-size:60px;"" tabindex=""0"">+</div>","","null","","","","","","","","","","","","","","","","","","","",""
"dual-task","null","null","null","","arctic","arctic","890","","R","null","77","77","1","arctic-dual-task","","R","uppercase","10000","0","1","28fd7ddb0849993cdc2f15aeb4627b6f3dbea5c8d225bb2455558f52c3e18224","10019","890","77","1","arctic","","","","",""
"dual-task","null","null","null","","arctic","arctic","647","","t","null","88","88","1","arctic-dual-task","","t","lowercase","24000","0","1","28fd7ddb0849993cdc2f15aeb4627b6f3dbea5c8d225bb2455558f52c3e18224","24007","647","88","1","arctic","","","","",""
"dual-task","null","null","null","","arctic","arctic","787","","H","null","77","77","1","arctic-dual-task","","H","uppercase","34000","0","1","28fd7ddb0849993cdc2f15aeb4627b6f3dbea5c8d225bb2455558f52c3e18224","34009","787","77","1","arctic","","","","",""
"dual-task","null","null","null","","arctic","arctic","706","","a","null","88","88","1","arctic-dual-task","","a","lowercase","44000","0","1","28fd7ddb0849993cdc2f15aeb4627b6f3dbea5c8d225bb2455558f52c3e18224","44019","706","88","1","arctic","","","","",""
"dual-task","null","null","null","","arctic","arctic","918","","r","null","88","88","1","arctic-dual-task","","r","lowercase","56000","0","1","28fd7ddb0849993cdc2f15aeb4627b6f3dbea5c8d225bb2455558f52c3e18224","56008","918","88","1","arctic","","","","",""
"dual-task","null","null","null","","arctic","arctic","674","","G","null","77","77","1","arctic-dual-task","","G","uppercase","64000","0","1","28fd7ddb0849993cdc2f15aeb4627b6f3dbea5c8d225bb2455558f52c3e18224","64019","674","77","1","arctic","","","","",""
"dual-task","null","null","null","","arctic","arctic","876","","Q","null","77","77","1","arctic-dual-task","","Q","uppercase","76000","0","1","28fd7ddb0849993cdc2f15aeb4627b6f3dbea5c8d225bb2455558f52c3e18224","76009","876","77","1","arctic","","","","",""
"dual-task","null","null","null","","arctic","arctic","910","","A","null","77","77","1","arctic-dual-task","","A","uppercase","86000","0","1","28fd7ddb0849993cdc2f15aeb4627b6f3dbea5c8d225bb2455558f52c3e18224","86008","910","77","1","arctic","","","","",""
"dual-task","null","null","null","","arctic","arctic","836","","N","null","77","77","1","arctic-dual-task","","N","uppercase","100000","0","1","28fd7ddb0849993cdc2f15aeb4627b6f3dbea5c8d225bb2455558f52c3e18224","100008","836","77","1","arctic","","","","",""
"dual-task","null","null","null","","arctic","arctic","780","","f","null","88","88","1","arctic-dual-task","","f","lowercase","110000","0","1","28fd7ddb0849993cdc2f15aeb4627b6f3dbea5c8d225bb2455558f52c3e18224","110009","780","88","1","arctic","","","","",""
"dual-task","null","null","null","","arctic","arctic","779","","E","null","77","77","1","arctic-dual-task","","E","uppercase","122000","0","1","28fd7ddb0849993cdc2f15aeb4627b6f3dbea5c8d225bb2455558f52c3e18224","122018","779","77","1","arctic","","","","",""
"dual-task","null","null","null","","arctic","arctic","978","","n","null","88","88","1","arctic-dual-task","","n","lowercase","128000","0","1","28fd7ddb0849993cdc2f15aeb4627b6f3dbea5c8d225bb2455558f52c3e18224","128002","978","88","1","arctic","","","","",""
"dual-task","null","null","null","","arctic","arctic","693","","R","null","77","77","1","arctic-dual-task","","R","uppercase","140000","0","1","28fd7ddb0849993cdc2f15aeb4627b6f3dbea5c8d225bb2455558f52c3e18224","140008","693","77","1","arctic","","","","",""
"dual-task","null","null","null","","arctic","arctic","625","","T","null","77","77","1","arctic-dual-task","","T","uppercase","152000","0","1","28fd7ddb0849993cdc2f15aeb4627b6f3dbea5c8d225bb2455558f52c3e18224","152012","625","77","1","arctic","","","","",""
"dual-task","null","null","null","","arctic","arctic","628","","A","null","77","77","1","arctic-dual-task","","A","uppercase","160000","0","1","28fd7ddb0849993cdc2f15aeb4627b6f3dbea5c8d225bb2455558f52c3e18224","160008","628","77","1","arctic","","","","",""
"dual-task","null","null","null","","arctic","arctic","681","","d","null","88","88","1","arctic-dual-task","","d","lowercase","172000","0","1","28fd7ddb0849993cdc2f15aeb4627b6f3dbea5c8d225bb2455558f52c3e18224","172019","681","88","1","arctic","","","","",""
"dual-task","null","null","null","","arctic","arctic","786","","q","null","88","88","1","arctic-dual-task","","q","lowercase","180000","0","1","28fd7ddb0849993cdc2f15aeb4627b6f3dbea5c8d225bb2455558f52c3e18224","180019","786","88","1","arctic","","","","",""
"dual-task","null","null","null","","arctic","arctic","969","","n","null","88","88","1","arctic-dual-task","","n","lowercase","188000","0","1","28fd7ddb0849993cdc2f15aeb4627b6f3dbea5c8d225bb2455558f52c3e18224","188019","969","88","1","arctic","","","","",""
"dual-task","null","null","null","","arctic","arctic","748","","D","null","77","77","1","arctic-dual-task","","D","uppercase","196000","0","1","28fd7ddb0849993cdc2f15aeb4627b6f3dbea5c8d225bb2455558f52c3e18224","196009","748","77","1","arctic","","","","",""
"dual-task","null","null","null","","arctic","arctic","588","","G","null","77","77","1","arctic-dual-task","","G","uppercase","208000","0","1","28fd7ddb0849993cdc2f15aeb4627b6f3dbea5c8d225bb2455558f52c3e18224","208009","588","77","1","arctic","","","","",""
"dual-task","null","null","null","","arctic","arctic","747","","e","null","88","88","1","arctic-dual-task","","e","lowercase","218000","0","1","28fd7ddb0849993cdc2f15aeb4627b6f3dbea5c8d225bb2455558f52c3e18224","218008","747","88","1","arctic","","","","",""
"dual-task","null","null","null","","arctic","arctic","1084","","N","null","77","77","1","arctic-dual-task","","N","uppercase","228000","0","1","28fd7ddb0849993cdc2f15aeb4627b6f3dbea5c8d225bb2455558f52c3e18224","228008","1084","77","1","arctic","","","","",""
"dual-task","null","null","null","","arctic","arctic","683","","d","null","88","88","1","arctic-dual-task","","d","lowercase","242000","0","1","28fd7ddb0849993cdc2f15aeb4627b6f3dbea5c8d225bb2455558f52c3e18224","242009","683","88","1","arctic","","","","",""
"dual-task","null","null","null","","arctic","arctic","765","","T","null","77","77","1","arctic-dual-task","","T","uppercase","254000","0","1","28fd7ddb0849993cdc2f15aeb4627b6f3dbea5c8d225bb2455558f52c3e18224","254008","765","77","1","arctic","","","","",""
"dual-task","null","null","null","","arctic","arctic","1001","","G","null","77","77","1","arctic-dual-task","","G","uppercase","260000","0","1","28fd7ddb0849993cdc2f15aeb4627b6f3dbea5c8d225bb2455558f52c3e18224","260019","1001","77","1","arctic","","","","",""
"dual-task","null","null","null","","arctic","arctic","692","","h","null","88","88","1","arctic-dual-task","","h","lowercase","270000","0","1","28fd7ddb0849993cdc2f15aeb4627b6f3dbea5c8d225bb2455558f52c3e18224","270018","692","88","1","arctic","","","","",""
"dual-task","null","null","null","","arctic","arctic","834","","q","null","88","88","1","arctic-dual-task","","q","lowercase","282000","0","1","28fd7ddb0849993cdc2f15aeb4627b6f3dbea5c8d225bb2455558f52c3e18224","282019","834","88","1","arctic","","","","",""
"dual-task","null","null","null","","arctic","arctic","691","","B","null","77","77","1","arctic-dual-task","","B","uppercase","290000","0","1","28fd7ddb0849993cdc2f15aeb4627b6f3dbea5c8d225bb2455558f52c3e18224","290018","691","77","1","arctic","","","","",""
"dual-task","null","null","null","","arctic","arctic","676","","e","null","88","88","1","arctic-dual-task","","e","lowercase","300000","0","1","28fd7ddb0849993cdc2f15aeb4627b6f3dbea5c8d225bb2455558f52c3e18224","300008","676","88","1","arctic","","","","",""
"dual-task","null","null","null","","arctic","arctic","539","","D","null","77","77","1","arctic-dual-task","","D","uppercase","312000","0","1","28fd7ddb0849993cdc2f15aeb4627b6f3dbea5c8d225bb2455558f52c3e18224","312018","539","77","1","arctic","","","","",""
"dual-task","null","null","null","","arctic","arctic","629","","b","null","88","88","1","arctic-dual-task","","b","lowercase","320000","0","1","28fd7ddb0849993cdc2f15aeb4627b6f3dbea5c8d225bb2455558f52c3e18224","320008","629","88","1","arctic","","","","",""
"dual-task","null","null","null","","arctic","arctic","641","","e","null","88","88","1","arctic-dual-task","","e","lowercase","332000","0","1","28fd7ddb0849993cdc2f15aeb4627b6f3dbea5c8d225bb2455558f52c3e18224","332018","641","88","1","arctic","","","","",""
"dual-task","null","null","null","","arctic","arctic","843","","G","null","77","77","1","arctic-dual-task","","G","uppercase","340000","0","1","28fd7ddb0849993cdc2f15aeb4627b6f3dbea5c8d225bb2455558f52c3e18224","340018","843","77","1","arctic","","","","",""
"dual-task","null","null","null","","arctic","arctic","691","","Q","null","77","77","1","arctic-dual-task","","Q","uppercase","352000","0","1","28fd7ddb0849993cdc2f15aeb4627b6f3dbea5c8d225bb2455558f52c3e18224","352019","691","77","1","arctic","","","","",""
"dual-task","null","null","null","","arctic","arctic","994","","r","null","88","88","1","arctic-dual-task","","r","lowercase","360000","0","1","28fd7ddb0849993cdc2f15aeb4627b6f3dbea5c8d225bb2455558f52c3e18224","360019","994","88","1","arctic","","","","",""
"dual-task","null","null","null","","arctic","arctic","681","","g","null","88","88","1","arctic-dual-task","","g","lowercase","368000","0","1","28fd7ddb0849993cdc2f15aeb4627b6f3dbea5c8d225bb2455558f52c3e18224","368018","681","88","1","arctic","","","","",""
"dual-task","null","null","null","","arctic","arctic","721","","B","null","77","77","1","arctic-dual-task","","B","uppercase","382000","0","1","28fd7ddb0849993cdc2f15aeb4627b6f3dbea5c8d225bb2455558f52c3e18224","382019","721","77","1","arctic","","","","",""
"dual-task","null","null","null","","arctic","arctic","635","","r","null","88","88","1","arctic-dual-task","","r","lowercase","396000","0","1","28fd7ddb0849993cdc2f15aeb4627b6f3dbea5c8d225bb2455558f52c3e18224","396018","635","88","1","arctic","","","","",""
"dual-task","null","null","null","","arctic","arctic","699","","B","null","77","77","1","arctic-dual-task","","B","uppercase","406000","0","1","28fd7ddb0849993cdc2f15aeb4627b6f3dbea5c8d225bb2455558f52c3e18224","406018","699","77","1","arctic","","","","",""
"dual-task","null","null","null","","arctic","arctic","1770","","T","null","77","77","1","arctic-dual-task","","T","uppercase","414000","0","1","28fd7ddb0849993cdc2f15aeb4627b6f3dbea5c8d225bb2455558f52c3e18224","414018","1770","77","1","arctic","","","","",""
"dual-task","null","null","null","","arctic","arctic","642","","F","null","77","77","1","arctic-dual-task","","F","uppercase","422000","0","1","28fd7ddb0849993cdc2f15aeb4627b6f3dbea5c8d225bb2455558f52c3e18224","422018","642","77","1","arctic","","","","",""
"dual-task","null","null","null","","arctic","arctic","684","","F","null","77","77","1","arctic-dual-task","","F","uppercase","432000","0","1","28fd7ddb0849993cdc2f15aeb4627b6f3dbea5c8d225bb2455558f52c3e18224","432008","684","77","1","arctic","","","","",""
"dual-task","null","null","null","","arctic","arctic","659","","A","null","77","77","1","arctic-dual-task","","A","uppercase","440000","0","1","28fd7ddb0849993cdc2f15aeb4627b6f3dbea5c8d225bb2455558f52c3e18224","440017","659","77","1","arctic","","","","",""
"dual-task","null","null","null","","arctic","arctic","722","","h","null","88","88","1","arctic-dual-task","","h","lowercase","454000","0","1","28fd7ddb0849993cdc2f15aeb4627b6f3dbea5c8d225bb2455558f52c3e18224","454018","722","88","1","arctic","","","","",""
"dual-task","null","null","null","","arctic","arctic","882","","n","null","88","88","1","arctic-dual-task","","n","lowercase","462000","0","1","28fd7ddb0849993cdc2f15aeb4627b6f3dbea5c8d225bb2455558f52c3e18224","462018","882","88","1","arctic","","","","",""
"dual-task","null","null","null","","arctic","arctic","789","","B","null","77","77","1","arctic-dual-task","","B","uppercase","472000","0","1","28fd7ddb0849993cdc2f15aeb4627b6f3dbea5c8d225bb2455558f52c3e18224","472008","789","77","1","arctic","","","","",""
"dual-task","null","null","null","","arctic","arctic","652","","b","null","88","88","1","arctic-dual-task","","b","lowercase","480000","0","1","28fd7ddb0849993cdc2f15aeb4627b6f3dbea5c8d225bb2455558f52c3e18224","480008","652","88","1","arctic","","","","",""
"dual-task","null","null","null","","arctic","arctic","649","","a","null","88","88","1","arctic-dual-task","","a","lowercase","486000","0","1","28fd7ddb0849993cdc2f15aeb4627b6f3dbea5c8d225bb2455558f52c3e18224","486018","649","88","1","arctic","","","","",""
"dual-task","null","null","null","","arctic","arctic","596","","H","null","77","77","1","arctic-dual-task","","H","uppercase","496000","0","1","28fd7ddb0849993cdc2f15aeb4627b6f3dbea5c8d225bb2455558f52c3e18224","496008","596","77","1","arctic","","","","",""
"dual-task","null","null","null","","arctic","arctic","730","","R","null","77","77","1","arctic-dual-task","","R","uppercase","508000","0","1","28fd7ddb0849993cdc2f15aeb4627b6f3dbea5c8d225bb2455558f52c3e18224","508018","730","77","1","arctic","","","","",""
"dual-task","null","null","null","","arctic","arctic","686","","b","null","88","88","1","arctic-dual-task","","b","lowercase","514000","0","1","28fd7ddb0849993cdc2f15aeb4627b6f3dbea5c8d225bb2455558f52c3e18224","514014","686","88","1","arctic","","","","",""
"dual-task","null","null","null","","arctic","arctic","592","","f","null","88","88","1","arctic-dual-task","","f","lowercase","520000","0","1","28fd7ddb0849993cdc2f15aeb4627b6f3dbea5c8d225bb2455558f52c3e18224","520019","592","88","1","arctic","","","","",""
"dual-task","null","null","null","","arctic","arctic","633","","f","null","88","88","1","arctic-dual-task","","f","lowercase","530000","0","1","28fd7ddb0849993cdc2f15aeb4627b6f3dbea5c8d225bb2455558f52c3e18224","530018","633","88","1","arctic","","","","",""
"dual-task","null","null","null","","arctic","arctic","801","","H","null","77","77","1","arctic-dual-task","","H","uppercase","542000","0","1","28fd7ddb0849993cdc2f15aeb4627b6f3dbea5c8d225bb2455558f52c3e18224","542018","801","77","1","arctic","","","","",""
"dual-task","null","null","null","","arctic","arctic","699","","g","null","88","88","1","arctic-dual-task","","g","lowercase","554000","0","1","28fd7ddb0849993cdc2f15aeb4627b6f3dbea5c8d225bb2455558f52c3e18224","554019","699","88","1","arctic","","","","",""
"dual-task","null","null","null","","arctic","arctic","667","","a","null","88","88","1","arctic-dual-task","","a","lowercase","562000","0","1","28fd7ddb0849993cdc2f15aeb4627b6f3dbea5c8d225bb2455558f52c3e18224","562018","667","88","1","arctic","","","","",""
"dual-task","null","null","null","","arctic","arctic","644","","n","null","88","88","1","arctic-dual-task","","n","lowercase","570000","0","1","28fd7ddb0849993cdc2f15aeb4627b6f3dbea5c8d225bb2455558f52c3e18224","570008","644","88","1","arctic","","","","",""
"dual-task","null","null","null","","arctic","arctic","676","","e","null","88","88","1","arctic-dual-task","","e","lowercase","578000","0","1","28fd7ddb0849993cdc2f15aeb4627b6f3dbea5c8d225bb2455558f52c3e18224","578008","676","88","1","arctic","","","","",""
"dual-task","null","null","null","","arctic","arctic","668","","g","null","88","88","1","arctic-dual-task","","g","lowercase","586000","0","1","28fd7ddb0849993cdc2f15aeb4627b6f3dbea5c8d225bb2455558f52c3e18224","586007","668","88","1","arctic","","","","",""
"dual-task","null","null","null","","arctic","arctic","1121","","N","null","77","77","1","arctic-dual-task","","N","uppercase","594000","0","1","28fd7ddb0849993cdc2f15aeb4627b6f3dbea5c8d225bb2455558f52c3e18224","594018","1121","77","1","arctic","","","","",""
"dual-task","null","null","null","","arctic","arctic","788","","d","null","88","88","1","arctic-dual-task","","d","lowercase","608000","0","1","28fd7ddb0849993cdc2f15aeb4627b6f3dbea5c8d225bb2455558f52c3e18224","608008","788","88","1","arctic","","","","",""
"dual-task","null","null","null","","arctic","arctic","617","","t","null","88","88","1","arctic-dual-task","","t","lowercase","618000","0","1","28fd7ddb0849993cdc2f15aeb4627b6f3dbea5c8d225bb2455558f52c3e18224","618018","617","88","1","arctic","","","","",""
"dual-task","null","null","null","","arctic","arctic","683","","h","null","88","88","1","arctic-dual-task","","h","lowercase","626000","0","1","28fd7ddb0849993cdc2f15aeb4627b6f3dbea5c8d225bb2455558f52c3e18224","626008","683","88","1","arctic","","","","",""
"dual-task","null","null","null","","arctic","arctic","653","","t","null","88","88","1","arctic-dual-task","","t","lowercase","638000","0","1","28fd7ddb0849993cdc2f15aeb4627b6f3dbea5c8d225bb2455558f52c3e18224","638007","653","88","1","arctic","","","","",""
"dual-task","null","null","null","","arctic","arctic","747","","D","null","77","77","1","arctic-dual-task","","D","uppercase","646000","0","1","28fd7ddb0849993cdc2f15aeb4627b6f3dbea5c8d225bb2455558f52c3e18224","646008","747","77","1","arctic","","","","",""
"dual-task","null","null","null","","arctic","arctic","624","","Q","null","77","77","1","arctic-dual-task","","Q","uppercase","658000","0","1","28fd7ddb0849993cdc2f15aeb4627b6f3dbea5c8d225bb2455558f52c3e18224","658019","624","77","1","arctic","","","","",""
"dual-task","null","null","null","","arctic","arctic","676","","a","null","88","88","1","arctic-dual-task","","a","lowercase","670000","0","1","28fd7ddb0849993cdc2f15aeb4627b6f3dbea5c8d225bb2455558f52c3e18224","670008","676","88","1","arctic","","","","",""
"dual-task","null","null","null","","arctic","arctic","849","","E","null","77","77","1","arctic-dual-task","","E","uppercase","680000","0","1","28fd7ddb0849993cdc2f15aeb4627b6f3dbea5c8d225bb2455558f52c3e18224","680018","849","77","1","arctic","","","","",""
"dual-task","null","null","null","","arctic","arctic","756","","F","null","77","77","1","arctic-dual-task","","F","uppercase","688000","0","1","28fd7ddb0849993cdc2f15aeb4627b6f3dbea5c8d225bb2455558f52c3e18224","688007","756","77","1","arctic","","","","",""
"dual-task","null","null","null","","arctic","arctic","620","","N","null","77","77","1","arctic-dual-task","","N","uppercase","702000","0","1","28fd7ddb0849993cdc2f15aeb4627b6f3dbea5c8d225bb2455558f52c3e18224","702008","620","77","1","arctic","","","","",""
"dual-task","null","null","null","","arctic","arctic","986","","Q","null","77","77","1","arctic-dual-task","","Q","uppercase","716000","0","1","28fd7ddb0849993cdc2f15aeb4627b6f3dbea5c8d225bb2455558f52c3e18224","716018","986","77","1","arctic","","","","",""
"dual-task","null","null","null","","arctic","arctic","749","","h","null","88","88","1","arctic-dual-task","","h","lowercase","724000","0","1","28fd7ddb0849993cdc2f15aeb4627b6f3dbea5c8d225bb2455558f52c3e18224","724007","749","88","1","arctic","","","","",""
"dual-task","null","null","null","","arctic","arctic","620","","r","null","88","88","1","arctic-dual-task","","r","lowercase","734000","0","1","28fd7ddb0849993cdc2f15aeb4627b6f3dbea5c8d225bb2455558f52c3e18224","734008","620","88","1","arctic","","","","",""
"dual-task","null","null","null","","arctic","arctic","669","","b","null","88","88","1","arctic-dual-task","","b","lowercase","744000","0","1","28fd7ddb0849993cdc2f15aeb4627b6f3dbea5c8d225bb2455558f52c3e18224","744007","669","88","1","arctic","","","","",""
"dual-task","null","null","null","","arctic","arctic","877","","q","null","88","88","1","arctic-dual-task","","q","lowercase","754000","0","1","28fd7ddb0849993cdc2f15aeb4627b6f3dbea5c8d225bb2455558f52c3e18224","754015","877","88","1","arctic","","","","",""
"dual-task","null","null","null","","arctic","arctic","812","","D","null","77","77","1","arctic-dual-task","","D","uppercase","766000","0","1","28fd7ddb0849993cdc2f15aeb4627b6f3dbea5c8d225bb2455558f52c3e18224","766017","812","77","1","arctic","","","","",""
"dual-task","null","null","null","","arctic","arctic","668","","g","null","88","88","1","arctic-dual-task","","g","lowercase","778000","0","1","28fd7ddb0849993cdc2f15aeb4627b6f3dbea5c8d225bb2455558f52c3e18224","778008","668","88","1","arctic","","","","",""
"dual-task","null","null","null","","arctic","arctic","706","","A","null","77","77","1","arctic-dual-task","","A","uppercase","788000","0","1","28fd7ddb0849993cdc2f15aeb4627b6f3dbea5c8d225bb2455558f52c3e18224","788017","706","77","1","arctic","","","","",""
"audio-keyboard-response","29","1812255","0.0-6.0-0.0-1.0","28fd7ddb0849993cdc2f15aeb4627b6f3dbea5c8d225bb2455558f52c3e18224","arctic","arctic","null","","audio/story_arctic_scrambled.mp3","","null","","","","","","","","","","","","","","","","","","","",""
"html-button-response","30","1826261","0.0-6.0-0.0-2.0","28fd7ddb0849993cdc2f15aeb4627b6f3dbea5c8d225bb2455558f52c3e18224","arctic","arctic","14006","","<p>This concludes the story. Thank you for listening.</p><p>You will now answer some questions about the content of the story.</p>","0","","","","","","","","","","","","","","","","","","","","",""
"survey-multi-choice","31","1836363","0.0-6.0-0.0-3.0-0.0","28fd7ddb0849993cdc2f15aeb4627b6f3dbea5c8d225bb2455558f52c3e18224","arctic","arctic","10100","","<b>Which dog on the narrator&#39;s dog team never followed instructions?</b>","","","","0","arctic-comprehension","","","","","","","","","","","","","{""Q0"":""Douggie-dog""}","","","",""
"survey-multi-choice","32","1845322","0.0-6.0-0.0-3.0-0.1","28fd7ddb0849993cdc2f15aeb4627b6f3dbea5c8d225bb2455558f52c3e18224","arctic","arctic","8685","","<b>How many sponsorships did the narrator receive to support her expedition?</b>","","","","1","arctic-comprehension","","","","","","","","","","","","","{""Q0"":""None""}","","","",""
"survey-multi-choice","33","1858373","0.0-6.0-0.0-3.0-0.2","28fd7ddb0849993cdc2f15aeb4627b6f3dbea5c8d225bb2455558f52c3e18224","arctic","arctic","12799","","<b>How did the narrator prepare for her expedition?</b>","","","","1","arctic-comprehension","","","","","","","","","","","","","{""Q0"":""Trained in Alaska learning how to dogsled""}","","","",""
"survey-multi-choice","34","1873035","0.0-6.0-0.0-3.0-0.3","28fd7ddb0849993cdc2f15aeb4627b6f3dbea5c8d225bb2455558f52c3e18224","arctic","arctic","14410","","<b>What was the objective of the narrator&#39;s expedition?</b>","","","","1","arctic-comprehension","","","","","","","","","","","","","{""Q0"":""Dogsled across Arctic America""}","","","",""
"survey-multi-choice","35","1880373","0.0-6.0-0.0-3.0-0.4","28fd7ddb0849993cdc2f15aeb4627b6f3dbea5c8d225bb2455558f52c3e18224","arctic","arctic","7079","","<b>How did the dogs respond when they saw the bears?</b>","","","","1","arctic-comprehension","","","","","","","","","","","","","{""Q0"":""Approached them""}","","","",""
"survey-multi-choice","36","1899246","0.0-6.0-0.0-3.0-0.5","28fd7ddb0849993cdc2f15aeb4627b6f3dbea5c8d225bb2455558f52c3e18224","arctic","arctic","18610","","<b>How did the narrator&#39;s encounter with the polar bears end?</b>","","","","1","arctic-comprehension","","","","","","","","","","","","","{""Q0"":""The bears walked back to their den.""}","","","",""
"survey-multi-choice","37","1919038","0.0-6.0-0.0-3.0-0.6","28fd7ddb0849993cdc2f15aeb4627b6f3dbea5c8d225bb2455558f52c3e18224","arctic","arctic","19535","","<b>What were the weather conditions in the Arctic like the winter of the narrator&#39;s expedition?</b>","","","","1","arctic-comprehension","","","","","","","","","","","","","{""Q0"":""There were more storms than any other winter in recorded history.""}","","","",""
"survey-multi-choice","38","1945339","0.0-6.0-0.0-3.0-0.7","28fd7ddb0849993cdc2f15aeb4627b6f3dbea5c8d225bb2455558f52c3e18224","arctic","arctic","26049","","<b>What did the narrator do for leisure while in her tent?</b>","","","","0","arctic-comprehension","","","","","","","","","","","","","{""Q0"":""Paint""}","","","",""
"survey-multi-choice","39","1968009","0.0-6.0-0.0-3.0-0.8","28fd7ddb0849993cdc2f15aeb4627b6f3dbea5c8d225bb2455558f52c3e18224","arctic","arctic","22403","","<b>How did the narrator&#39;s neighbour respond when she told him about her expedition?</b>","","","","0","arctic-comprehension","","","","","","","","","","","","","{""Q0"":""He offered to cover all expenses.""}","","","",""
"survey-multi-choice","40","1974472","0.0-6.0-0.0-3.0-0.9","28fd7ddb0849993cdc2f15aeb4627b6f3dbea5c8d225bb2455558f52c3e18224","arctic","arctic","6208","","<b>What is the name of the narrator&#39;s neighbour?</b>","","","","1","arctic-comprehension","","","","","","","","","","","","","{""Q0"":""Dave""}","","","",""
"html-button-response","41","1977592","0.0-6.0-0.0-4.0","28fd7ddb0849993cdc2f15aeb4627b6f3dbea5c8d225bb2455558f52c3e18224","arctic","arctic","2869","","<p>Thank you for your responses.</p><p>You will now answer some questions about your impressions of the story.</p>","0","","","","","","","","","","","","","","","","","","","","",""
"html-button-response","42","1981192","0.0-6.0-0.0-5.0-0.0","28fd7ddb0849993cdc2f15aeb4627b6f3dbea5c8d225bb2455558f52c3e18224","arctic","arctic","3598","","E6","6","","","","arctic-engagement","","","","","","","","","","","","","","7","enjoyment","",""
"html-button-response","43","1986166","0.0-6.0-0.0-5.0-0.1","28fd7ddb0849993cdc2f15aeb4627b6f3dbea5c8d225bb2455558f52c3e18224","arctic","arctic","4711","","E7","5","","","","arctic-engagement","","","","","","","","","","","","","","6","enjoyment","",""
"html-button-response","44","1990045","0.0-6.0-0.0-5.0-0.2","28fd7ddb0849993cdc2f15aeb4627b6f3dbea5c8d225bb2455558f52c3e18224","arctic","arctic","3612","","EE3","4","","","","arctic-engagement","","","","","","","","","","","","","","5","emo-engage","",""
"html-button-response","45","1994853","0.0-6.0-0.0-5.0-0.3","28fd7ddb0849993cdc2f15aeb4627b6f3dbea5c8d225bb2455558f52c3e18224","arctic","arctic","4549","","MS2","5","","","","arctic-engagement","","","","","","","","","","","","","","6","mental-sim","",""
"html-button-response","46","1998245","0.0-6.0-0.0-5.0-0.4","28fd7ddb0849993cdc2f15aeb4627b6f3dbea5c8d225bb2455558f52c3e18224","arctic","arctic","3121","","EE4","4","","","","arctic-engagement","","","","","","","","","","","","","","5","emo-engage","",""
"html-button-response","47","2001439","0.0-6.0-0.0-5.0-0.5","28fd7ddb0849993cdc2f15aeb4627b6f3dbea5c8d225bb2455558f52c3e18224","arctic","arctic","2937","","E1","5","","","","arctic-engagement","","","","","","","","","","","","","","6","enjoyment","",""
"html-button-response","48","2004764","0.0-6.0-0.0-5.0-0.6","28fd7ddb0849993cdc2f15aeb4627b6f3dbea5c8d225bb2455558f52c3e18224","arctic","arctic","3060","","E8","4","","","","arctic-engagement","","","","","","","","","","","","","","5","enjoyment","",""
"html-button-response","49","2010482","0.0-6.0-0.0-5.0-0.7","28fd7ddb0849993cdc2f15aeb4627b6f3dbea5c8d225bb2455558f52c3e18224","arctic","arctic","5458","","E10","1","","","","arctic-engagement","","","","","","","","","","","","","","2","enjoyment","",""
"html-button-response","50","2015141","0.0-6.0-0.0-5.0-0.8","28fd7ddb0849993cdc2f15aeb4627b6f3dbea5c8d225bb2455558f52c3e18224","arctic","arctic","4397","","EE2","2","","","","arctic-engagement","","","","","","","","","","","","","","3","emo-engage","",""
"html-button-response","51","2019277","0.0-6.0-0.0-5.0-0.9","28fd7ddb0849993cdc2f15aeb4627b6f3dbea5c8d225bb2455558f52c3e18224","arctic","arctic","3873","","EE1","5","","","","arctic-engagement","","","","","","","","","","","","","","6","emo-engage","",""
"html-button-response","52","2023633","0.0-6.0-0.0-5.0-0.10","28fd7ddb0849993cdc2f15aeb4627b6f3dbea5c8d225bb2455558f52c3e18224","arctic","arctic","4089","","A5","6","","","","arctic-engagement","","","","","","","","","","","","","","7","absorption","",""
"html-button-response","53","2027222","0.0-6.0-0.0-5.0-0.11","28fd7ddb0849993cdc2f15aeb4627b6f3dbea5c8d225bb2455558f52c3e18224","arctic","arctic","3331","","MS3","5","","","","arctic-engagement","","","","","","","","","","","","","","6","mental-sim","",""
"html-button-response","54","2032006","0.0-6.0-0.0-5.0-0.12","28fd7ddb0849993cdc2f15aeb4627b6f3dbea5c8d225bb2455558f52c3e18224","arctic","arctic","4532","","A4","5","","","","arctic-engagement","","","","","","","","","","","","","","6","absorption","",""
"html-button-response","55","2035574","0.0-6.0-0.0-5.0-0.13","28fd7ddb0849993cdc2f15aeb4627b6f3dbea5c8d225bb2455558f52c3e18224","arctic","arctic","3317","","A2","5","","","","arctic-engagement","","","","","","","","","","","","","","6","absorption","",""
"html-button-response","56","2042333","0.0-6.0-0.0-5.0-0.14","28fd7ddb0849993cdc2f15aeb4627b6f3dbea5c8d225bb2455558f52c3e18224","arctic","arctic","6500","","A1","4","","","","arctic-engagement","","","","","","","","","","","","","","5","absorption","",""
"html-button-response","57","2047534","0.0-6.0-0.0-5.0-0.15","28fd7ddb0849993cdc2f15aeb4627b6f3dbea5c8d225bb2455558f52c3e18224","arctic","arctic","4948","","EE5","2","","","","arctic-engagement","","","","","","","","","","","","","","3","emo-engage","",""
"html-button-response","58","2050230","0.0-6.0-0.0-5.0-0.16","28fd7ddb0849993cdc2f15aeb4627b6f3dbea5c8d225bb2455558f52c3e18224","arctic","arctic","2432","","A3","5","","","","arctic-engagement","","","","","","","","","","","","","","6","absorption","",""
"html-button-response","59","2056561","0.0-6.0-0.0-5.0-0.17","28fd7ddb0849993cdc2f15aeb4627b6f3dbea5c8d225bb2455558f52c3e18224","arctic","arctic","6077","","MS1","4","","","","arctic-engagement","","","","","","","","","","","","","","5","mental-sim","",""
"html-keyboard-response","60","2105680","0.0-6.0-1.0","28fd7ddb0849993cdc2f15aeb4627b6f3dbea5c8d225bb2455558f52c3e18224","arctic","arctic","48857","","<p>Thank you for your responses. You will now listen to the second story.</p><p>Remember, as you listen to the story you will see letters appear on the screen.</br>As quickly as possible, press <b>&lt;x&gt;</b> if the letter is lowercase and <b>&lt;m&gt;</b> if the letter is uppercase.</p><p>Press <b>&lt;x&gt;</b> or <b>&lt;m&gt;</b> to begin listening!</p>","","77","","","","","","","","","","","","","","","","","","","",""
"html-keyboard-response","61","2106193","0.0-6.0-2.0-0.0","28fd7ddb0849993cdc2f15aeb4627b6f3dbea5c8d225bb2455558f52c3e18224","arctic","arctic","null","","<div style=""font-size:60px;"" tabindex=""0"">+</div>","","null","","","","","","","","","","","","","","","","","","","",""
"dual-task","null","null","null","","arctic","arctic","997","","g","null","88","88","1","swim-dual-task","","g","lowercase","10000","0","1","28fd7ddb0849993cdc2f15aeb4627b6f3dbea5c8d225bb2455558f52c3e18224","10006","997","88","1","swim","","","","",""
"dual-task","null","null","null","","arctic","arctic","754","","r","null","88","88","1","swim-dual-task","","r","lowercase","18000","0","1","28fd7ddb0849993cdc2f15aeb4627b6f3dbea5c8d225bb2455558f52c3e18224","18017","754","88","1","swim","","","","",""
"dual-task","null","null","null","","arctic","arctic","1267","","n","null","88","88","1","swim-dual-task","","n","lowercase","28000","0","1","28fd7ddb0849993cdc2f15aeb4627b6f3dbea5c8d225bb2455558f52c3e18224","28007","1267","88","1","swim","","","","",""
"dual-task","null","null","null","","arctic","arctic","924","","D","null","77","77","1","swim-dual-task","","D","uppercase","40000","0","1","28fd7ddb0849993cdc2f15aeb4627b6f3dbea5c8d225bb2455558f52c3e18224","40007","924","77","1","swim","","","","",""
"dual-task","null","null","null","","arctic","arctic","843","","B","null","77","77","1","swim-dual-task","","B","uppercase","54000","0","1","28fd7ddb0849993cdc2f15aeb4627b6f3dbea5c8d225bb2455558f52c3e18224","54007","843","77","1","swim","","","","",""
"dual-task","null","null","null","","arctic","arctic","929","","t","null","88","88","1","swim-dual-task","","t","lowercase","62000","0","1","28fd7ddb0849993cdc2f15aeb4627b6f3dbea5c8d225bb2455558f52c3e18224","62016","929","88","1","swim","","","","",""
"dual-task","null","null","null","","arctic","arctic","1075","","r","null","88","88","1","swim-dual-task","","r","lowercase","72000","0","1","28fd7ddb0849993cdc2f15aeb4627b6f3dbea5c8d225bb2455558f52c3e18224","72007","1075","88","1","swim","","","","",""
"dual-task","null","null","null","","arctic","arctic","617","","D","null","77","77","1","swim-dual-task","","D","uppercase","82000","0","1","28fd7ddb0849993cdc2f15aeb4627b6f3dbea5c8d225bb2455558f52c3e18224","82017","617","77","1","swim","","","","",""
"dual-task","null","null","null","","arctic","arctic","793","","Q","null","77","77","1","swim-dual-task","","Q","uppercase","94000","0","1","28fd7ddb0849993cdc2f15aeb4627b6f3dbea5c8d225bb2455558f52c3e18224","94017","793","77","1","swim","","","","",""
"dual-task","null","null","null","","arctic","arctic","940","","R","null","77","77","1","swim-dual-task","","R","uppercase","108000","0","1","28fd7ddb0849993cdc2f15aeb4627b6f3dbea5c8d225bb2455558f52c3e18224","108006","940","77","1","swim","","","","",""
"dual-task","null","null","null","","arctic","arctic","724","","e","null","88","88","1","swim-dual-task","","e","lowercase","116000","0","1","28fd7ddb0849993cdc2f15aeb4627b6f3dbea5c8d225bb2455558f52c3e18224","116007","724","88","1","swim","","","","",""
"dual-task","null","null","null","","arctic","arctic","787","","H","null","77","77","1","swim-dual-task","","H","uppercase","124000","0","1","28fd7ddb0849993cdc2f15aeb4627b6f3dbea5c8d225bb2455558f52c3e18224","124007","787","77","1","swim","","","","",""
"dual-task","null","null","null","","arctic","arctic","683","","H","null","77","77","1","swim-dual-task","","H","uppercase","136000","0","1","28fd7ddb0849993cdc2f15aeb4627b6f3dbea5c8d225bb2455558f52c3e18224","136017","683","77","1","swim","","","","",""
"dual-task","null","null","null","","arctic","arctic","669","","h","null","88","88","1","swim-dual-task","","h","lowercase","150000","0","1","28fd7ddb0849993cdc2f15aeb4627b6f3dbea5c8d225bb2455558f52c3e18224","150006","669","88","1","swim","","","","",""
"dual-task","null","null","null","","arctic","arctic","644","","Q","null","77","77","1","swim-dual-task","","Q","uppercase","162000","0","1","28fd7ddb0849993cdc2f15aeb4627b6f3dbea5c8d225bb2455558f52c3e18224","162007","644","77","1","swim","","","","",""
"dual-task","null","null","null","","arctic","arctic","947","","d","null","88","88","1","swim-dual-task","","d","lowercase","174000","0","1","28fd7ddb0849993cdc2f15aeb4627b6f3dbea5c8d225bb2455558f52c3e18224","174007","947","88","1","swim","","","","",""
"dual-task","null","null","null","","arctic","arctic","828","","E","null","77","77","1","swim-dual-task","","E","uppercase","184000","0","1","28fd7ddb0849993cdc2f15aeb4627b6f3dbea5c8d225bb2455558f52c3e18224","184006","828","77","1","swim","","","","",""
"dual-task","null","null","null","","arctic","arctic","634","","b","null","88","88","1","swim-dual-task","","b","lowercase","196000","0","1","28fd7ddb0849993cdc2f15aeb4627b6f3dbea5c8d225bb2455558f52c3e18224","196017","634","88","1","swim","","","","",""
"dual-task","null","null","null","","arctic","arctic","787","","N","null","77","77","1","swim-dual-task","","N","uppercase","210000","0","1","28fd7ddb0849993cdc2f15aeb4627b6f3dbea5c8d225bb2455558f52c3e18224","210007","787","77","1","swim","","","","",""
"dual-task","null","null","null","","arctic","arctic","763","","A","null","77","77","1","swim-dual-task","","A","uppercase","220000","0","1","28fd7ddb0849993cdc2f15aeb4627b6f3dbea5c8d225bb2455558f52c3e18224","220007","763","77","1","swim","","","","",""
"dual-task","null","null","null","","arctic","arctic","897","","G","null","77","77","1","swim-dual-task","","G","uppercase","230000","0","1","28fd7ddb0849993cdc2f15aeb4627b6f3dbea5c8d225bb2455558f52c3e18224","230017","897","77","1","swim","","","","",""
"dual-task","null","null","null","","arctic","arctic","751","","q","null","88","88","1","swim-dual-task","","q","lowercase","238000","0","1","28fd7ddb0849993cdc2f15aeb4627b6f3dbea5c8d225bb2455558f52c3e18224","238012","751","88","1","swim","","","","",""
"dual-task","null","null","null","","arctic","arctic","651","","G","null","77","77","1","swim-dual-task","","G","uppercase","246000","0","1","28fd7ddb0849993cdc2f15aeb4627b6f3dbea5c8d225bb2455558f52c3e18224","246007","651","77","1","swim","","","","",""
"dual-task","null","null","null","","arctic","arctic","682","","H","null","77","77","1","swim-dual-task","","H","uppercase","258000","0","1","28fd7ddb0849993cdc2f15aeb4627b6f3dbea5c8d225bb2455558f52c3e18224","258016","682","77","1","swim","","","","",""
"dual-task","null","null","null","","arctic","arctic","874","","g","null","88","88","1","swim-dual-task","","g","lowercase","268000","0","1","28fd7ddb0849993cdc2f15aeb4627b6f3dbea5c8d225bb2455558f52c3e18224","268017","874","88","1","swim","","","","",""
"dual-task","null","null","null","","arctic","arctic","731","","H","null","77","77","1","swim-dual-task","","H","uppercase","282000","0","1","28fd7ddb0849993cdc2f15aeb4627b6f3dbea5c8d225bb2455558f52c3e18224","282016","731","77","1","swim","","","","",""
"dual-task","null","null","null","","arctic","arctic","667","","h","null","88","88","1","swim-dual-task","","h","lowercase","288000","0","1","28fd7ddb0849993cdc2f15aeb4627b6f3dbea5c8d225bb2455558f52c3e18224","288016","667","88","1","swim","","","","",""
"dual-task","null","null","null","","arctic","arctic","990","","R","null","77","77","1","swim-dual-task","","R","uppercase","302000","0","1","28fd7ddb0849993cdc2f15aeb4627b6f3dbea5c8d225bb2455558f52c3e18224","302006","990","77","1","swim","","","","",""
"dual-task","null","null","null","","arctic","arctic","691","","e","null","88","88","1","swim-dual-task","","e","lowercase","312000","0","1","28fd7ddb0849993cdc2f15aeb4627b6f3dbea5c8d225bb2455558f52c3e18224","312016","691","88","1","swim","","","","",""
"dual-task","null","null","null","","arctic","arctic","748","","B","null","77","77","1","swim-dual-task","","B","uppercase","322000","0","1","28fd7ddb0849993cdc2f15aeb4627b6f3dbea5c8d225bb2455558f52c3e18224","322007","748","77","1","swim","","","","",""
"dual-task","null","null","null","","arctic","arctic","754","","f","null","88","88","1","swim-dual-task","","f","lowercase","330000","0","1","28fd7ddb0849993cdc2f15aeb4627b6f3dbea5c8d225bb2455558f52c3e18224","330016","754","88","1","swim","","","","",""
"dual-task","null","null","null","","arctic","arctic","1364","","B","null","77","77","1","swim-dual-task","","B","uppercase","340000","0","1","28fd7ddb0849993cdc2f15aeb4627b6f3dbea5c8d225bb2455558f52c3e18224","340016","1364","77","1","swim","","","","",""
"dual-task","null","null","null","","arctic","arctic","747","","n","null","88","88","1","swim-dual-task","","n","lowercase","350000","0","1","28fd7ddb0849993cdc2f15aeb4627b6f3dbea5c8d225bb2455558f52c3e18224","350016","747","88","1","swim","","","","",""
"dual-task","null","null","null","","arctic","arctic","883","","b","null","88","88","1","swim-dual-task","","b","lowercase","362000","0","1","28fd7ddb0849993cdc2f15aeb4627b6f3dbea5c8d225bb2455558f52c3e18224","362007","883","88","1","swim","","","","",""
"dual-task","null","null","null","","arctic","arctic","668","","g","null","88","88","1","swim-dual-task","","g","lowercase","372000","0","1","28fd7ddb0849993cdc2f15aeb4627b6f3dbea5c8d225bb2455558f52c3e18224","372006","668","88","1","swim","","","","",""
"dual-task","null","null","null","","arctic","arctic","643","","T","null","77","77","1","swim-dual-task","","T","uppercase","380000","0","1","28fd7ddb0849993cdc2f15aeb4627b6f3dbea5c8d225bb2455558f52c3e18224","380017","643","77","1","swim","","","","",""
"dual-task","null","null","null","","arctic","arctic","649","","r","null","88","88","1","swim-dual-task","","r","lowercase","390000","0","1","28fd7ddb0849993cdc2f15aeb4627b6f3dbea5c8d225bb2455558f52c3e18224","390016","649","88","1","swim","","","","",""
"dual-task","null","null","null","","arctic","arctic","693","","d","null","88","88","1","swim-dual-task","","d","lowercase","396000","0","1","28fd7ddb0849993cdc2f15aeb4627b6f3dbea5c8d225bb2455558f52c3e18224","396006","693","88","1","swim","","","","",""
"dual-task","null","null","null","","arctic","arctic","573","","b","null","88","88","1","swim-dual-task","","b","lowercase","406000","0","1","28fd7ddb0849993cdc2f15aeb4627b6f3dbea5c8d225bb2455558f52c3e18224","406006","573","88","1","swim","","","","",""
"dual-task","null","null","null","","arctic","arctic","781","","a","null","88","88","1","swim-dual-task","","a","lowercase","416000","0","1","28fd7ddb0849993cdc2f15aeb4627b6f3dbea5c8d225bb2455558f52c3e18224","416006","781","88","1","swim","","","","",""
"dual-task","null","null","null","","arctic","arctic","1060","","N","null","77","77","1","swim-dual-task","","N","uppercase","422000","0","1","28fd7ddb0849993cdc2f15aeb4627b6f3dbea5c8d225bb2455558f52c3e18224","422006","1060","77","1","swim","","","","",""
"dual-task","null","null","null","","arctic","arctic","684","","Q","null","77","77","1","swim-dual-task","","Q","uppercase","428000","0","1","28fd7ddb0849993cdc2f15aeb4627b6f3dbea5c8d225bb2455558f52c3e18224","428006","684","77","1","swim","","","","",""
"dual-task","null","null","null","","arctic","arctic","675","","r","null","88","88","1","swim-dual-task","","r","lowercase","438000","0","1","28fd7ddb0849993cdc2f15aeb4627b6f3dbea5c8d225bb2455558f52c3e18224","438006","675","88","1","swim","","","","",""
"dual-task","null","null","null","","arctic","arctic","835","","a","null","88","88","1","swim-dual-task","","a","lowercase","444000","0","1","28fd7ddb0849993cdc2f15aeb4627b6f3dbea5c8d225bb2455558f52c3e18224","444007","835","88","1","swim","","","","",""
"dual-task","null","null","null","","arctic","arctic","652","","h","null","88","88","1","swim-dual-task","","h","lowercase","452000","0","1","28fd7ddb0849993cdc2f15aeb4627b6f3dbea5c8d225bb2455558f52c3e18224","452007","652","88","1","swim","","","","",""
"dual-task","null","null","null","","arctic","arctic","649","","t","null","88","88","1","swim-dual-task","","t","lowercase","460000","0","1","28fd7ddb0849993cdc2f15aeb4627b6f3dbea5c8d225bb2455558f52c3e18224","460017","649","88","1","swim","","","","",""
"dual-task","null","null","null","","arctic","arctic","554","","g","null","88","88","1","swim-dual-task","","g","lowercase","474000","0","1","28fd7ddb0849993cdc2f15aeb4627b6f3dbea5c8d225bb2455558f52c3e18224","474016","554","88","1","swim","","","","",""
"dual-task","null","null","null","","arctic","arctic","619","","f","null","88","88","1","swim-dual-task","","f","lowercase","486000","0","1","28fd7ddb0849993cdc2f15aeb4627b6f3dbea5c8d225bb2455558f52c3e18224","486006","619","88","1","swim","","","","",""
"dual-task","null","null","null","","arctic","arctic","644","","n","null","88","88","1","swim-dual-task","","n","lowercase","494000","0","1","28fd7ddb0849993cdc2f15aeb4627b6f3dbea5c8d225bb2455558f52c3e18224","494016","644","88","1","swim","","","","",""
"dual-task","null","null","null","","arctic","arctic","891","","N","null","77","77","1","swim-dual-task","","N","uppercase","508000","0","1","28fd7ddb0849993cdc2f15aeb4627b6f3dbea5c8d225bb2455558f52c3e18224","508007","891","77","1","swim","","","","",""
"dual-task","null","null","null","","arctic","arctic","724","","b","null","88","88","1","swim-dual-task","","b","lowercase","522000","0","1","28fd7ddb0849993cdc2f15aeb4627b6f3dbea5c8d225bb2455558f52c3e18224","522006","724","88","1","swim","","","","",""
"dual-task","null","null","null","","arctic","arctic","586","","d","null","88","88","1","swim-dual-task","","d","lowercase","532000","0","1","28fd7ddb0849993cdc2f15aeb4627b6f3dbea5c8d225bb2455558f52c3e18224","532016","586","88","1","swim","","","","",""
"dual-task","null","null","null","","arctic","arctic","932","","E","null","77","77","1","swim-dual-task","","E","uppercase","544000","0","1","28fd7ddb0849993cdc2f15aeb4627b6f3dbea5c8d225bb2455558f52c3e18224","544006","932","77","1","swim","","","","",""
"dual-task","null","null","null","","arctic","arctic","725","","F","null","77","77","1","swim-dual-task","","F","uppercase","558000","0","1","28fd7ddb0849993cdc2f15aeb4627b6f3dbea5c8d225bb2455558f52c3e18224","558006","725","77","1","swim","","","","",""
"dual-task","null","null","null","","arctic","arctic","709","","R","null","77","77","1","swim-dual-task","","R","uppercase","564000","0","1","28fd7ddb0849993cdc2f15aeb4627b6f3dbea5c8d225bb2455558f52c3e18224","564006","709","77","1","swim","","","","",""
"dual-task","null","null","null","","arctic","arctic","690","","T","null","77","77","1","swim-dual-task","","T","uppercase","574000","0","1","28fd7ddb0849993cdc2f15aeb4627b6f3dbea5c8d225bb2455558f52c3e18224","574017","690","77","1","swim","","","","",""
"dual-task","null","null","null","","arctic","arctic","1323","","A","null","77","77","1","swim-dual-task","","A","uppercase","582000","0","1","28fd7ddb0849993cdc2f15aeb4627b6f3dbea5c8d225bb2455558f52c3e18224","582016","1323","77","1","swim","","","","",""
"dual-task","null","null","null","","arctic","arctic","831","","T","null","77","77","1","swim-dual-task","","T","uppercase","592000","0","1","28fd7ddb0849993cdc2f15aeb4627b6f3dbea5c8d225bb2455558f52c3e18224","592003","831","77","1","swim","","","","",""
"dual-task","null","null","null","","arctic","arctic","956","","q","null","88","88","1","swim-dual-task","","q","lowercase","606000","0","1","28fd7ddb0849993cdc2f15aeb4627b6f3dbea5c8d225bb2455558f52c3e18224","606006","956","88","1","swim","","","","",""
"dual-task","null","null","null","","arctic","arctic","898","","a","null","88","88","1","swim-dual-task","","a","lowercase","612000","0","1","28fd7ddb0849993cdc2f15aeb4627b6f3dbea5c8d225bb2455558f52c3e18224","612016","898","88","1","swim","","","","",""
"dual-task","null","null","null","","arctic","arctic","1068","","F","null","77","77","1","swim-dual-task","","F","uppercase","620000","0","1","28fd7ddb0849993cdc2f15aeb4627b6f3dbea5c8d225bb2455558f52c3e18224","620006","1068","77","1","swim","","","","",""
"dual-task","null","null","null","","arctic","arctic","634","","N","null","77","77","1","swim-dual-task","","N","uppercase","628000","0","1","28fd7ddb0849993cdc2f15aeb4627b6f3dbea5c8d225bb2455558f52c3e18224","628016","634","77","1","swim","","","","",""
"dual-task","null","null","null","","arctic","arctic","818","","q","null","88","88","1","swim-dual-task","","q","lowercase","636000","0","1","28fd7ddb0849993cdc2f15aeb4627b6f3dbea5c8d225bb2455558f52c3e18224","636016","818","88","1","swim","","","","",""
"dual-task","null","null","null","","arctic","arctic","1700","","a","null","88","88","1","swim-dual-task","","a","lowercase","646000","0","1","28fd7ddb0849993cdc2f15aeb4627b6f3dbea5c8d225bb2455558f52c3e18224","646006","1700","88","1","swim","","","","",""
"dual-task","null","null","null","","arctic","arctic","870","","R","null","77","77","1","swim-dual-task","","R","uppercase","656000","0","1","28fd7ddb0849993cdc2f15aeb4627b6f3dbea5c8d225bb2455558f52c3e18224","656006","870","77","1","swim","","","","",""
"dual-task","null","null","null","","arctic","arctic","650","","h","null","88","88","1","swim-dual-task","","h","lowercase","664000","0","1","28fd7ddb0849993cdc2f15aeb4627b6f3dbea5c8d225bb2455558f52c3e18224","664016","650","88","1","swim","","","","",""
"dual-task","null","null","null","","arctic","arctic","723","","q","null","88","88","1","swim-dual-task","","q","lowercase","676000","0","1","28fd7ddb0849993cdc2f15aeb4627b6f3dbea5c8d225bb2455558f52c3e18224","676006","723","88","1","swim","","","","",""
"dual-task","null","null","null","","arctic","arctic","811","","T","null","77","77","1","swim-dual-task","","T","uppercase","688000","0","1","28fd7ddb0849993cdc2f15aeb4627b6f3dbea5c8d225bb2455558f52c3e18224","688006","811","77","1","swim","","","","",""
"dual-task","null","null","null","","arctic","arctic","842","","D","null","77","77","1","swim-dual-task","","D","uppercase","694000","0","1","28fd7ddb0849993cdc2f15aeb4627b6f3dbea5c8d225bb2455558f52c3e18224","694016","842","77","1","swim","","","","",""
"dual-task","null","null","null","","arctic","arctic","642","","E","null","77","77","1","swim-dual-task","","E","uppercase","704000","0","1","28fd7ddb0849993cdc2f15aeb4627b6f3dbea5c8d225bb2455558f52c3e18224","704015","642","77","1","swim","","","","",""
"dual-task","null","null","null","","arctic","arctic","890","","d","null","88","88","1","swim-dual-task","","d","lowercase","712000","0","1","28fd7ddb0849993cdc2f15aeb4627b6f3dbea5c8d225bb2455558f52c3e18224","712006","890","88","1","swim","","","","",""
"dual-task","null","null","null","","arctic","arctic","636","","F","null","77","77","1","swim-dual-task","","F","uppercase","722000","0","1","28fd7ddb0849993cdc2f15aeb4627b6f3dbea5c8d225bb2455558f52c3e18224","722015","636","77","1","swim","","","","",""
"dual-task","null","null","null","","arctic","arctic","921","","t","null","88","88","1","swim-dual-task","","t","lowercase","734000","0","1","28fd7ddb0849993cdc2f15aeb4627b6f3dbea5c8d225bb2455558f52c3e18224","734016","921","88","1","swim","","","","",""
"dual-task","null","null","null","","arctic","arctic","581","","f","null","88","88","1","swim-dual-task","","f","lowercase","746000","0","1","28fd7ddb0849993cdc2f15aeb4627b6f3dbea5c8d225bb2455558f52c3e18224","746006","581","88","1","swim","","","","",""
"dual-task","null","null","null","","arctic","arctic","628","","t","null","88","88","1","swim-dual-task","","t","lowercase","760000","0","1","28fd7ddb0849993cdc2f15aeb4627b6f3dbea5c8d225bb2455558f52c3e18224","760015","628","88","1","swim","","","","",""
"dual-task","null","null","null","","arctic","arctic","611","","n","null","88","88","1","swim-dual-task","","n","lowercase","766000","0","1","28fd7ddb0849993cdc2f15aeb4627b6f3dbea5c8d225bb2455558f52c3e18224","766016","611","88","1","swim","","","","",""
"dual-task","null","null","null","","arctic","arctic","666","","A","null","77","77","1","swim-dual-task","","A","uppercase","778000","0","1","28fd7ddb0849993cdc2f15aeb4627b6f3dbea5c8d225bb2455558f52c3e18224","778016","666","77","1","swim","","","","",""
"dual-task","null","null","null","","arctic","arctic","802","","G","null","77","77","1","swim-dual-task","","G","uppercase","788000","0","1","28fd7ddb0849993cdc2f15aeb4627b6f3dbea5c8d225bb2455558f52c3e18224","788016","802","77","1","swim","","","","",""
"dual-task","null","null","null","","arctic","arctic","707","","f","null","88","88","1","swim-dual-task","","f","lowercase","794000","0","1","28fd7ddb0849993cdc2f15aeb4627b6f3dbea5c8d225bb2455558f52c3e18224","794015","707","88","1","swim","","","","",""
"audio-keyboard-response","62","2916243","0.0-6.0-2.0-1.0","28fd7ddb0849993cdc2f15aeb4627b6f3dbea5c8d225bb2455558f52c3e18224","arctic","arctic","null","","audio/story_swim.mp3","","null","","","","","","","","","","","","","","","","","","","",""
"html-button-response","63","2918627","0.0-6.0-2.0-2.0","28fd7ddb0849993cdc2f15aeb4627b6f3dbea5c8d225bb2455558f52c3e18224","arctic","arctic","2384","","<p>This concludes the story. Thank you for listening.</p><p>You will now answer some questions about the content of the story.</p>","0","","","","","","","","","","","","","","","","","","","","",""
"survey-multi-choice","64","2928090","0.0-6.0-2.0-3.0-0.0","28fd7ddb0849993cdc2f15aeb4627b6f3dbea5c8d225bb2455558f52c3e18224","arctic","arctic","9461","","<b>What gave the narrator his greatest feeling of accomplishment?</b>","","","","1","swim-comprehension","","","","","","","","","","","","","{""Q0"":""Passing the water survival course""}","","","",""
"survey-multi-choice","65","2933807","0.0-6.0-2.0-3.0-0.1","28fd7ddb0849993cdc2f15aeb4627b6f3dbea5c8d225bb2455558f52c3e18224","arctic","arctic","5453","","<b>Where is the home of naval aviation?</b>","","","","1","swim-comprehension","","","","","","","","","","","","","{""Q0"":""Pensacola""}","","","",""
"survey-multi-choice","66","2942632","0.0-6.0-2.0-3.0-0.2","28fd7ddb0849993cdc2f15aeb4627b6f3dbea5c8d225bb2455558f52c3e18224","arctic","arctic","8563","","<b>What were the astronaut candidates trained to do at the naval air station?</b>","","","","1","swim-comprehension","","","","","","","","","","","","","{""Q0"":""Eject out of aircraft and survive in water long enough to be rescued""}","","","",""
"survey-multi-choice","67","2951141","0.0-6.0-2.0-3.0-0.3","28fd7ddb0849993cdc2f15aeb4627b6f3dbea5c8d225bb2455558f52c3e18224","arctic","arctic","8247","","<b>How often does the narrator swim, now that he is a good swimmer?</b>","","","","1","swim-comprehension","","","","","","","","","","","","","{""Q0"":""Never swam again in his life""}","","","",""
"survey-multi-choice","68","2962800","0.0-6.0-2.0-3.0-0.4","28fd7ddb0849993cdc2f15aeb4627b6f3dbea5c8d225bb2455558f52c3e18224","arctic","arctic","11404","","<b>How did the narrator train for his swim test?</b>","","","","1","swim-comprehension","","","","","","","","","","","","","{""Q0"":""Took his kids to the pool every day""}","","","",""
"survey-multi-choice","69","2968163","0.0-6.0-2.0-3.0-0.5","28fd7ddb0849993cdc2f15aeb4627b6f3dbea5c8d225bb2455558f52c3e18224","arctic","arctic","5099","","<b>What is the narrator afraid of, aside from the water?</b>","","","","1","swim-comprehension","","","","","","","","","","","","","{""Q0"":""Heights""}","","","",""
"survey-multi-choice","70","2973157","0.0-6.0-2.0-3.0-0.6","28fd7ddb0849993cdc2f15aeb4627b6f3dbea5c8d225bb2455558f52c3e18224","arctic","arctic","4725","","<b>How many astronaut candidates passed the first swim test?</b>","","","","1","swim-comprehension","","","","","","","","","","","","","{""Q0"":""All of them""}","","","",""
"survey-multi-choice","71","2983809","0.0-6.0-2.0-3.0-0.7","28fd7ddb0849993cdc2f15aeb4627b6f3dbea5c8d225bb2455558f52c3e18224","arctic","arctic","10396","","<b>How many astronaut candidates reported for duty at the Johnson Space Center?</b>","","","","1","swim-comprehension","","","","","","","","","","","","","{""Q0"":""Forty-four""}","","","",""
"survey-multi-choice","72","2993174","0.0-6.0-2.0-3.0-0.8","28fd7ddb0849993cdc2f15aeb4627b6f3dbea5c8d225bb2455558f52c3e18224","arctic","arctic","9111","","<b>How many times did the astronaut candidates have to complete the final exercise to pass?</b>","","","","1","swim-comprehension","","","","","","","","","","","","","{""Q0"":""Two""}","","","",""
"survey-multi-choice","73","3001416","0.0-6.0-2.0-3.0-0.9","28fd7ddb0849993cdc2f15aeb4627b6f3dbea5c8d225bb2455558f52c3e18224","arctic","arctic","7982","","<b>What was the final step of the first swim test in the pool?</b>","","","","1","swim-comprehension","","","","","","","","","","","","","{""Q0"":""Tread water with hands above the water""}","","","",""
"html-button-response","74","3003110","0.0-6.0-2.0-4.0","28fd7ddb0849993cdc2f15aeb4627b6f3dbea5c8d225bb2455558f52c3e18224","arctic","arctic","1429","","<p>Thank you for your responses.</p><p>You will now answer some questions about your impressions of the story.</p>","0","","","","","","","","","","","","","","","","","","","","",""
"html-button-response","75","3006965","0.0-6.0-2.0-5.0-0.0","28fd7ddb0849993cdc2f15aeb4627b6f3dbea5c8d225bb2455558f52c3e18224","arctic","arctic","3855","","MS2","5","","","","swim-engagement","","","","","","","","","","","","","","6","mental-sim","",""
"html-button-response","76","3009502","0.0-6.0-2.0-5.0-0.1","28fd7ddb0849993cdc2f15aeb4627b6f3dbea5c8d225bb2455558f52c3e18224","arctic","arctic","2280","","E10","6","","","","swim-engagement","","","","","","","","","","","","","","7","enjoyment","",""
"html-button-response","77","3014420","0.0-6.0-2.0-5.0-0.2","28fd7ddb0849993cdc2f15aeb4627b6f3dbea5c8d225bb2455558f52c3e18224","arctic","arctic","4658","","MS1","2","","","","swim-engagement","","","","","","","","","","","","","","3","mental-sim","",""
"html-button-response","78","3018510","0.0-6.0-2.0-5.0-0.3","28fd7ddb0849993cdc2f15aeb4627b6f3dbea5c8d225bb2455558f52c3e18224","arctic","arctic","3828","","EE1","5","","","","swim-engagement","","","","","","","","","","","","","","6","emo-engage","",""
"html-button-response","79","3020644","0.0-6.0-2.0-5.0-0.4","28fd7ddb0849993cdc2f15aeb4627b6f3dbea5c8d225bb2455558f52c3e18224","arctic","arctic","1883","","EE3","3","","","","swim-engagement","","","","","","","","","","","","","","4","emo-engage","",""
"html-button-response","80","3023208","0.0-6.0-2.0-5.0-0.5","28fd7ddb0849993cdc2f15aeb4627b6f3dbea5c8d225bb2455558f52c3e18224","arctic","arctic","2307","","EE5","4","","","","swim-engagement","","","","","","","","","","","","","","5","emo-engage","",""
"html-button-response","81","3025728","0.0-6.0-2.0-5.0-0.6","28fd7ddb0849993cdc2f15aeb4627b6f3dbea5c8d225bb2455558f52c3e18224","arctic","arctic","2267","","MS3","5","","","","swim-engagement","","","","","","","","","","","","","","6","mental-sim","",""
"html-button-response","82","3028101","0.0-6.0-2.0-5.0-0.7","28fd7ddb0849993cdc2f15aeb4627b6f3dbea5c8d225bb2455558f52c3e18224","arctic","arctic","2120","","EE4","2","","","","swim-engagement","","","","","","","","","","","","","","3","emo-engage","",""
"html-button-response","83","3030325","0.0-6.0-2.0-5.0-0.8","28fd7ddb0849993cdc2f15aeb4627b6f3dbea5c8d225bb2455558f52c3e18224","arctic","arctic","1963","","E6","4","","","","swim-engagement","","","","","","","","","","","","","","5","enjoyment","",""
"html-button-response","84","3033168","0.0-6.0-2.0-5.0-0.9","28fd7ddb0849993cdc2f15aeb4627b6f3dbea5c8d225bb2455558f52c3e18224","arctic","arctic","2586","","EE2","1","","","","swim-engagement","","","","","","","","","","","","","","2","emo-engage","",""
"html-button-response","85","3037164","0.0-6.0-2.0-5.0-0.10","28fd7ddb0849993cdc2f15aeb4627b6f3dbea5c8d225bb2455558f52c3e18224","arctic","arctic","3743","","A5","5","","","","swim-engagement","","","","","","","","","","","","","","6","absorption","",""
"html-button-response","86","3039258","0.0-6.0-2.0-5.0-0.11","28fd7ddb0849993cdc2f15aeb4627b6f3dbea5c8d225bb2455558f52c3e18224","arctic","arctic","1825","","A3","5","","","","swim-engagement","","","","","","","","","","","","","","6","absorption","",""
"html-button-response","87","3042907","0.0-6.0-2.0-5.0-0.12","28fd7ddb0849993cdc2f15aeb4627b6f3dbea5c8d225bb2455558f52c3e18224","arctic","arctic","3396","","E1","3","","","","swim-engagement","","","","","","","","","","","","","","4","enjoyment","",""
"html-button-response","88","3048150","0.0-6.0-2.0-5.0-0.13","28fd7ddb0849993cdc2f15aeb4627b6f3dbea5c8d225bb2455558f52c3e18224","arctic","arctic","4986","","A1","5","","","","swim-engagement","","","","","","","","","","","","","","6","absorption","",""
"html-button-response","89","3051611","0.0-6.0-2.0-5.0-0.14","28fd7ddb0849993cdc2f15aeb4627b6f3dbea5c8d225bb2455558f52c3e18224","arctic","arctic","3210","","A4","5","","","","swim-engagement","","","","","","","","","","","","","","6","absorption","",""
"html-button-response","90","3054317","0.0-6.0-2.0-5.0-0.15","28fd7ddb0849993cdc2f15aeb4627b6f3dbea5c8d225bb2455558f52c3e18224","arctic","arctic","2455","","E7","5","","","","swim-engagement","","","","","","","","","","","","","","6","enjoyment","",""
"html-button-response","91","3057502","0.0-6.0-2.0-5.0-0.16","28fd7ddb0849993cdc2f15aeb4627b6f3dbea5c8d225bb2455558f52c3e18224","arctic","arctic","2920","","E8","3","","","","swim-engagement","","","","","","","","","","","","","","4","enjoyment","",""
"html-button-response","92","3061699","0.0-6.0-2.0-5.0-0.17","28fd7ddb0849993cdc2f15aeb4627b6f3dbea5c8d225bb2455558f52c3e18224","arctic","arctic","3947","","A2","6","","","","swim-engagement","","","","","","","","","","","","","","7","absorption","",""
"html-button-response","93","3064814","0.0-8.0","28fd7ddb0849993cdc2f15aeb4627b6f3dbea5c8d225bb2455558f52c3e18224","arctic","arctic","2863","","<p>Thank you for your responses.</p><p>You will now answer some demographic, hearing, and general health questions.</p>","0","","","","","","","","","","","","","","","","","","","","",""
"survey-multi-choice","94","3068887","0.0-9.0-0.0","28fd7ddb0849993cdc2f15aeb4627b6f3dbea5c8d225bb2455558f52c3e18224","arctic","arctic","4072","","","","","","","survey","","","","","","","","","","","","","{""Q0"":""Firefox""}","","","browser",""
"survey-text","95","3073234","0.0-9.0-1.0","28fd7ddb0849993cdc2f15aeb4627b6f3dbea5c8d225bb2455558f52c3e18224","arctic","arctic","4091","","","","","","","survey","","","","","","","","","","","","","{""AGE"":""32""}","","","age","32"
"survey-multi-choice","96","3077042","0.0-9.0-2.0","28fd7ddb0849993cdc2f15aeb4627b6f3dbea5c8d225bb2455558f52c3e18224","arctic","arctic","3540","","","","","","","survey","","","","","","","","","","","","","{""Q0"":""Male""}","","","gender","Male"
"survey-multi-choice","97","3079418","0.0-9.0-4.0","28fd7ddb0849993cdc2f15aeb4627b6f3dbea5c8d225bb2455558f52c3e18224","arctic","arctic","2117","","","","","","","survey","","","","","","","","","","","","","{""Q0"":""Right""}","","","handedness","Right"
"survey-multi-choice","98","3085476","0.0-9.0-5.0","28fd7ddb0849993cdc2f15aeb4627b6f3dbea5c8d225bb2455558f52c3e18224","arctic","arctic","5793","","","","","","","survey","","","","","","","","","","","","","{""Q0"":""Some university undergraduate schooling""}","","","education","Some university undergraduate schooling"
"survey-text","99","3091229","0.0-10.0-0.0","28fd7ddb0849993cdc2f15aeb4627b6f3dbea5c8d225bb2455558f52c3e18224","arctic","arctic","5487","","","","","","","survey","","","","","","","","","","","","","{""L1"":""English""}","","","first-language","English"
"survey-text","100","3114304","0.0-10.0-1.0","28fd7ddb0849993cdc2f15aeb4627b6f3dbea5c8d225bb2455558f52c3e18224","arctic","arctic","22817","","","","","","","survey","","","","","","","","","","","","","{""L2name"":""Spanish"",""L2fluency"":""6"",""L3name"":"""",""L3fluency"":"""",""L4name"":"""",""L4fluency"":""""}","","","additional-languages","{""L2name"":""Spanish"",""L2fluency"":""6"",""L3name"":"""",""L3fluency"":"""",""L4name"":"""",""L4fluency"":""""}"
"survey-multi-choice","101","3118441","0.0-10.0-2.0","28fd7ddb0849993cdc2f15aeb4627b6f3dbea5c8d225bb2455558f52c3e18224","arctic","arctic","3879","","","","","","","survey","","","","","","","","","","","","","{""Q0"":""No""}","","","hearing-aid","No"
"survey-multi-choice","102","3122709","0.0-10.0-3.0","28fd7ddb0849993cdc2f15aeb4627b6f3dbea5c8d225bb2455558f52c3e18224","arctic","arctic","4008","","","","","","","survey","","","","","","","","","","","","","{""Q0"":""Sometimes""}","","","ringing-ears","Sometimes"
"survey-multi-choice","103","3126710","0.0-10.0-4.0-0.0","28fd7ddb0849993cdc2f15aeb4627b6f3dbea5c8d225bb2455558f52c3e18224","arctic","arctic","3741","","","","","","","survey","","","","","","","","","","","","","{""Q0"":""Both Ears""}","","","ringing-ear-loc","Both Ears"
"survey-multi-choice","104","3130155","0.0-10.0-5.0","28fd7ddb0849993cdc2f15aeb4627b6f3dbea5c8d225bb2455558f52c3e18224","arctic","arctic","3183","","","","","","","survey","","","","","","","","","","","","","{""Q0"":""No""}","","","neuro-disease","No"
"survey-multi-choice","105","3134936","0.0-10.0-7.0","28fd7ddb0849993cdc2f15aeb4627b6f3dbea5c8d225bb2455558f52c3e18224","arctic","arctic","4527","","","","","","","survey","","","","","","","","","","","","","{""Q0"":""No""}","","","take-meds","No"
"survey-text","106","3146338","0.0-10.0-9.0","28fd7ddb0849993cdc2f15aeb4627b6f3dbea5c8d225bb2455558f52c3e18224","arctic","arctic","11135","","","","","","","survey","","","","","","","","","","","","","{""HC"":""No health problems. ""}","","","health-concerns","No health problems. "
"html-button-response","107","3152577","0.0-11.0-0.0","28fd7ddb0849993cdc2f15aeb4627b6f3dbea5c8d225bb2455558f52c3e18224","arctic","arctic","5976","","<p>How would you describe your musical skills/experiences?</p>","2","","","","survey","","","","","","","","","","","","","","","","music-skill","3"
"survey-multi-choice","108","3159938","0.0-11.0-1.0","28fd7ddb0849993cdc2f15aeb4627b6f3dbea5c8d225bb2455558f52c3e18224","arctic","arctic","7106","","","","","","","survey","","","","","","","","","","","","","{""Q0"":""Yes""}","","","music-instrument","Yes"
"survey-text","109","3164611","0.0-11.0-2.0-0.0","28fd7ddb0849993cdc2f15aeb4627b6f3dbea5c8d225bb2455558f52c3e18224","arctic","arctic","4419","","","","","","","survey","","","","","","","","","","","","","{""MEXP"":""2""}","","","music-training-yrs","2"
"html-button-response","110","3170868","0.0-12.0-0.0","28fd7ddb0849993cdc2f15aeb4627b6f3dbea5c8d225bb2455558f52c3e18224","arctic","arctic","6001","","<p>How would you describe your general hearing abilities?</p>","5","","","","survey","","","","","","","","","","","","","","","","ssq-01","6"
"html-button-response","111","3179838","0.0-12.0-1.0","28fd7ddb0849993cdc2f15aeb4627b6f3dbea5c8d225bb2455558f52c3e18224","arctic","arctic","8716","","<p>When you talk with someone at a place that strongly reverberates/echoes (e.g., in a church or train station),</br>can you understand what the person says?</p>","6","","","","survey","","","","","","","","","","","","","","","","ssq-02","6"
"html-button-response","112","3185285","0.0-12.0-2.0","28fd7ddb0849993cdc2f15aeb4627b6f3dbea5c8d225bb2455558f52c3e18224","arctic","arctic","5184","","<p>When you are with a group (~5 people) in a lively restaurant, can you follow the group's conversation?</p>","5","","","","survey","","","","","","","","","","","","","","","","ssq-03","5"
"html-button-response","113","3192243","0.0-12.0-3.0","28fd7ddb0849993cdc2f15aeb4627b6f3dbea5c8d225bb2455558f52c3e18224","arctic","arctic","6702","","<p>Based on the sound of a bus or truck, can you tell whether it is moving towards or away from you?</p>","8","","","","survey","","","","","","","","","","","","","","","","ssq-04","8"
"html-button-response","114","3198135","0.0-12.0-4.0","28fd7ddb0849993cdc2f15aeb4627b6f3dbea5c8d225bb2455558f52c3e18224","arctic","arctic","5623","","<p>When you are in an unknown environment, can you tell from which direction a brief sound originates?</p>","9","","","","survey","","","","","","","","","","","","","","","","ssq-05","9"
"html-button-response","115","3209039","0.0-12.0-5.0","28fd7ddb0849993cdc2f15aeb4627b6f3dbea5c8d225bb2455558f52c3e18224","arctic","arctic","10649","","<p>Are you able to ignore distracting sounds when you concentrate on a specific aspect of your acoustic surrounding?</p>","7","","","","survey","","","","","","","","","","","","","","","","ssq-06","7"
"fullscreen","116","3210301","0.0-13.0","28fd7ddb0849993cdc2f15aeb4627b6f3dbea5c8d225bb2455558f52c3e18224","arctic","arctic","","","","","","","","","true","","","","","","","","","","","","","","","",""
