"trial_type","trial_index","time_elapsed","internal_node_id","ParticipantID","firstStory","scramStory","rt","url","stimulus","button_pressed","key_press","correctRESP","correct","designation","success","letterStim","letterType","ONSET","TIMEOUT","CONDITION","Participant","ONSET_ACTUAL","RT","RESP","ACC","STORY","responses","response","type","surveyQuestion","QRESP"
"pavlovia","0","2","0.0-0.0","73f17b57c69e2bcf884e4f7acfada78ed0d56a4b87927589daddcacacbca65b4","swim","swim","","","","","","","","","","","","","","","","","","","","","","","","",""
"external-html","1","9450","0.0-1.0","73f17b57c69e2bcf884e4f7acfada78ed0d56a4b87927589daddcacacbca65b4","swim","swim","9263","consent/consent_updated.html","","","","","","","","","","","","","","","","","","","","","","",""
"html-button-response","2","14082","0.0-2.0-0.0","73f17b57c69e2bcf884e4f7acfada78ed0d56a4b87927589daddcacacbca65b4","swim","swim","4632","","<p>Before we begin the main task, you will complete a short volume calibration and headphone check.</p><p>Please make sure you are in a quiet listening environment, that you are wearing headphones, and that your computer's volume is turned on.<p></p>","0","","","","","","","","","","","","","","","","","","","","",""
"html-button-response","3","17508","0.0-2.0-1.0","73f17b57c69e2bcf884e4f7acfada78ed0d56a4b87927589daddcacacbca65b4","swim","swim","3174","","<p>The volume calibration will be first.</p><p>You will hear a thirty-second noise. Please adjust your computer's volume so that this noise is being presented at a comfortable level.<p></p>","0","","","","","","","","","","","","","","","","","","","","",""
"audio-button-response","4","25887","0.0-2.0-2.0","73f17b57c69e2bcf884e4f7acfada78ed0d56a4b87927589daddcacacbca65b4","swim","swim","8127","","audio/volumetest.mp3","0","","","","","","","","","","","","","","","","","","","","",""
"html-keyboard-response","5","32383","0.0-3.0-0.0","73f17b57c69e2bcf884e4f7acfada78ed0d56a4b87927589daddcacacbca65b4","swim","swim","6494","","<p>You will now complete a short headphone check.</p><p>On each trial, you will hear three tones. One of these tones will be quieter than the others. Your task is to identify whether the quiet tone occurred first, second, or third.</p><p>There are six trials in total.<p></p><p></p>(Press SPACEBAR to begin)","","32","","","","","","","","","","","","","","","","","","","",""
"html-keyboard-response","6","33143","0.0-3.0-1.0-0.0","73f17b57c69e2bcf884e4f7acfada78ed0d56a4b87927589daddcacacbca65b4","swim","swim","null","","<div style=""font-size:60px;"">+</div>","","null","","","","","","","","","","","","","","","","","","","",""
"audio-button-response","7","37888","0.0-3.0-1.0-1.0","73f17b57c69e2bcf884e4f7acfada78ed0d56a4b87927589daddcacacbca65b4","swim","swim","4744","","audio/t2_2.mp3","1","","1","1","headphone-test","","","","","","","","","","","","","","","","",""
"html-keyboard-response","8","38389","0.0-3.0-1.0-2.0","73f17b57c69e2bcf884e4f7acfada78ed0d56a4b87927589daddcacacbca65b4","swim","swim","null","","<p>Correct</p>","","null","","","","","","","","","","","","","","","","","","","",""
"html-keyboard-response","9","38906","0.0-3.0-1.0-0.1","73f17b57c69e2bcf884e4f7acfada78ed0d56a4b87927589daddcacacbca65b4","swim","swim","null","","<div style=""font-size:60px;"">+</div>","","null","","","","","","","","","","","","","","","","","","","",""
"audio-button-response","10","43341","0.0-3.0-1.0-1.1","73f17b57c69e2bcf884e4f7acfada78ed0d56a4b87927589daddcacacbca65b4","swim","swim","4435","","audio/t1_1.mp3","0","","0","1","headphone-test","","","","","","","","","","","","","","","","",""
"html-keyboard-response","11","43843","0.0-3.0-1.0-2.1","73f17b57c69e2bcf884e4f7acfada78ed0d56a4b87927589daddcacacbca65b4","swim","swim","null","","<p>Correct</p>","","null","","","","","","","","","","","","","","","","","","","",""
"html-keyboard-response","12","44356","0.0-3.0-1.0-0.2","73f17b57c69e2bcf884e4f7acfada78ed0d56a4b87927589daddcacacbca65b4","swim","swim","null","","<div style=""font-size:60px;"">+</div>","","null","","","","","","","","","","","","","","","","","","","",""
"audio-button-response","13","48739","0.0-3.0-1.0-1.2","73f17b57c69e2bcf884e4f7acfada78ed0d56a4b87927589daddcacacbca65b4","swim","swim","4380","","audio/t3_2.mp3","2","","2","1","headphone-test","","","","","","","","","","","","","","","","",""
"html-keyboard-response","14","49240","0.0-3.0-1.0-2.2","73f17b57c69e2bcf884e4f7acfada78ed0d56a4b87927589daddcacacbca65b4","swim","swim","null","","<p>Correct</p>","","null","","","","","","","","","","","","","","","","","","","",""
"html-keyboard-response","15","49741","0.0-3.0-1.0-0.3","73f17b57c69e2bcf884e4f7acfada78ed0d56a4b87927589daddcacacbca65b4","swim","swim","null","","<div style=""font-size:60px;"">+</div>","","null","","","","","","","","","","","","","","","","","","","",""
"audio-button-response","16","54128","0.0-3.0-1.0-1.3","73f17b57c69e2bcf884e4f7acfada78ed0d56a4b87927589daddcacacbca65b4","swim","swim","4386","","audio/t3_1.mp3","2","","2","1","headphone-test","","","","","","","","","","","","","","","","",""
"html-keyboard-response","17","54642","0.0-3.0-1.0-2.3","73f17b57c69e2bcf884e4f7acfada78ed0d56a4b87927589daddcacacbca65b4","swim","swim","null","","<p>Correct</p>","","null","","","","","","","","","","","","","","","","","","","",""
"html-keyboard-response","18","55143","0.0-3.0-1.0-0.4","73f17b57c69e2bcf884e4f7acfada78ed0d56a4b87927589daddcacacbca65b4","swim","swim","null","","<div style=""font-size:60px;"">+</div>","","null","","","","","","","","","","","","","","","","","","","",""
"audio-button-response","19","59498","0.0-3.0-1.0-1.4","73f17b57c69e2bcf884e4f7acfada78ed0d56a4b87927589daddcacacbca65b4","swim","swim","4353","","audio/t1_2.mp3","0","","0","1","headphone-test","","","","","","","","","","","","","","","","",""
"html-keyboard-response","20","60002","0.0-3.0-1.0-2.4","73f17b57c69e2bcf884e4f7acfada78ed0d56a4b87927589daddcacacbca65b4","swim","swim","null","","<p>Correct</p>","","null","","","","","","","","","","","","","","","","","","","",""
"html-keyboard-response","21","60517","0.0-3.0-1.0-0.5","73f17b57c69e2bcf884e4f7acfada78ed0d56a4b87927589daddcacacbca65b4","swim","swim","null","","<div style=""font-size:60px;"">+</div>","","null","","","","","","","","","","","","","","","","","","","",""
"audio-button-response","22","64999","0.0-3.0-1.0-1.5","73f17b57c69e2bcf884e4f7acfada78ed0d56a4b87927589daddcacacbca65b4","swim","swim","4479","","audio/t2_1.mp3","1","","1","1","headphone-test","","","","","","","","","","","","","","","","",""
"html-keyboard-response","23","65503","0.0-3.0-1.0-2.5","73f17b57c69e2bcf884e4f7acfada78ed0d56a4b87927589daddcacacbca65b4","swim","swim","null","","<p>Correct</p>","","null","","","","","","","","","","","","","","","","","","","",""
"fullscreen","24","67992","0.0-4.0","73f17b57c69e2bcf884e4f7acfada78ed0d56a4b87927589daddcacacbca65b4","swim","swim","","","","","","","","","true","","","","","","","","","","","","","","","",""
"html-button-response","25","79960","0.0-5.0-0.0","73f17b57c69e2bcf884e4f7acfada78ed0d56a4b87927589daddcacacbca65b4","swim","swim","11967","","<p>There are two blocks to this experiment.</p><p>In each block, you will hear a ~13.5 minute story. One of the stories will be scrambled. Please listen carefully to both stories and understand them as best you can.</p><p>After each story, you will be asked some questions to assess your comprehension.</p>","0","","","","","","","","","","","","","","","","","","","","",""
"html-button-response","26","93455","0.0-5.0-1.0","73f17b57c69e2bcf884e4f7acfada78ed0d56a4b87927589daddcacacbca65b4","swim","swim","13493","","<p>During each story, there will be an additional task.</p><p>A letter will occasionally appear on the screen.</br>Your job is to - as quickly as you can - decide whether the letter is lowercase or uppercase and press one of two keys on the keyboard:</p><p>If the letter is <b>lowercase</b>, press key &lt;<b>x</b>&gt;.</p><p>If the letter is <b>uppercase</b>, press key &lt;<b>m</b>&gt;.</p>","0","","","","","","","","","","","","","","","","","","","","",""
"html-keyboard-response","27","100491","0.0-5.0-2.0","73f17b57c69e2bcf884e4f7acfada78ed0d56a4b87927589daddcacacbca65b4","swim","swim","7036","","<p>Because we want your responses to be as quick as possible, please keep your index fingers over the keys while listening.</p><p>Each block lasts about 20 minutes.</p><p><b>Press &lt;x&gt; or &lt;m&gt; to start the first block!</b></p>","","77","","","","","","","","","","","","","","","","","","","",""
"html-keyboard-response","28","100992","0.0-7.0-0.0-0.0","73f17b57c69e2bcf884e4f7acfada78ed0d56a4b87927589daddcacacbca65b4","swim","swim","null","","<div style=""font-size:60px;"" tabindex=""0"">+</div>","","null","","","","","","","","","","","","","","","","","","","",""
"dual-task","null","null","null","","swim","swim","756.3999999910593","","f","null","88","88","1","swim-dual-task","","f","lowercase","16000","0","4","73f17b57c69e2bcf884e4f7acfada78ed0d56a4b87927589daddcacacbca65b4","16008.79999999702","756.3999999910593","88","1","swim","","","","",""
"dual-task","null","null","null","","swim","swim","794.4000000059605","","A","null","77","77","1","swim-dual-task","","A","uppercase","22000","0","4","73f17b57c69e2bcf884e4f7acfada78ed0d56a4b87927589daddcacacbca65b4","22006.69999998808","794.4000000059605","77","1","swim","","","","",""
"dual-task","null","null","null","","swim","swim","681","","D","null","77","77","1","swim-dual-task","","D","uppercase","36000","0","4","73f17b57c69e2bcf884e4f7acfada78ed0d56a4b87927589daddcacacbca65b4","36007.89999999106","681","77","1","swim","","","","",""
"dual-task","null","null","null","","swim","swim","467.79999999701977","","a","null","88","88","1","swim-dual-task","","a","lowercase","46000","0","4","73f17b57c69e2bcf884e4f7acfada78ed0d56a4b87927589daddcacacbca65b4","46008.39999999106","467.79999999701977","88","1","swim","","","","",""
"dual-task","null","null","null","","swim","swim","476.8999999910593","","d","null","88","88","1","swim-dual-task","","d","lowercase","52000","0","4","73f17b57c69e2bcf884e4f7acfada78ed0d56a4b87927589daddcacacbca65b4","52007.79999999702","476.8999999910593","88","1","swim","","","","",""
"dual-task","null","null","null","","swim","swim","521.9000000059605","","q","null","88","88","1","swim-dual-task","","q","lowercase","60000","0","4","73f17b57c69e2bcf884e4f7acfada78ed0d56a4b87927589daddcacacbca65b4","60005.89999999106","521.9000000059605","88","1","swim","","","","",""
"dual-task","null","null","null","","swim","swim","493","","g","null","88","88","1","swim-dual-task","","g","lowercase","70000","0","4","73f17b57c69e2bcf884e4f7acfada78ed0d56a4b87927589daddcacacbca65b4","70008.59999999404","493","88","1","swim","","","","",""
"dual-task","null","null","null","","swim","swim","529.7999999970198","","t","null","88","88","1","swim-dual-task","","t","lowercase","84000","0","4","73f17b57c69e2bcf884e4f7acfada78ed0d56a4b87927589daddcacacbca65b4","84006.89999999106","529.7999999970198","88","1","swim","","","","",""
"dual-task","null","null","null","","swim","swim","600.2999999970198","","F","null","77","77","1","swim-dual-task","","F","uppercase","90000","0","4","73f17b57c69e2bcf884e4f7acfada78ed0d56a4b87927589daddcacacbca65b4","90012.79999999702","600.2999999970198","77","1","swim","","","","",""
"dual-task","null","null","null","","swim","swim","706.4000000059605","","t","null","88","88","1","swim-dual-task","","t","lowercase","102000","0","4","73f17b57c69e2bcf884e4f7acfada78ed0d56a4b87927589daddcacacbca65b4","102007.69999998808","706.4000000059605","88","1","swim","","","","",""
"dual-task","null","null","null","","swim","swim","489","","d","null","88","88","1","swim-dual-task","","d","lowercase","114000","0","4","73f17b57c69e2bcf884e4f7acfada78ed0d56a4b87927589daddcacacbca65b4","114007.69999998808","489","88","1","swim","","","","",""
"dual-task","null","null","null","","swim","swim","531.1000000089407","","E","null","77","77","1","swim-dual-task","","E","uppercase","122000","0","4","73f17b57c69e2bcf884e4f7acfada78ed0d56a4b87927589daddcacacbca65b4","122007.79999999702","531.1000000089407","77","1","swim","","","","",""
"dual-task","null","null","null","","swim","swim","511.90000000596046","","D","null","77","77","1","swim-dual-task","","D","uppercase","130000","0","4","73f17b57c69e2bcf884e4f7acfada78ed0d56a4b87927589daddcacacbca65b4","130009.59999999404","511.90000000596046","77","1","swim","","","","",""
"dual-task","null","null","null","","swim","swim","487.29999999701977","","T","null","77","77","1","swim-dual-task","","T","uppercase","142000","0","4","73f17b57c69e2bcf884e4f7acfada78ed0d56a4b87927589daddcacacbca65b4","142004.5","487.29999999701977","77","1","swim","","","","",""
"dual-task","null","null","null","","swim","swim","509.3999999910593","","f","null","88","88","1","swim-dual-task","","f","lowercase","148000","0","4","73f17b57c69e2bcf884e4f7acfada78ed0d56a4b87927589daddcacacbca65b4","148007.5","509.3999999910593","88","1","swim","","","","",""
"dual-task","null","null","null","","swim","swim","522.7999999970198","","g","null","88","88","1","swim-dual-task","","g","lowercase","158000","0","4","73f17b57c69e2bcf884e4f7acfada78ed0d56a4b87927589daddcacacbca65b4","158007.29999999702","522.7999999970198","88","1","swim","","","","",""
"dual-task","null","null","null","","swim","swim","645.0999999940395","","f","null","88","88","1","swim-dual-task","","f","lowercase","166000","0","4","73f17b57c69e2bcf884e4f7acfada78ed0d56a4b87927589daddcacacbca65b4","166007.29999999702","645.0999999940395","88","1","swim","","","","",""
"dual-task","null","null","null","","swim","swim","601.5","","E","null","77","77","1","swim-dual-task","","E","uppercase","180000","0","4","73f17b57c69e2bcf884e4f7acfada78ed0d56a4b87927589daddcacacbca65b4","180005.5","601.5","77","1","swim","","","","",""
"dual-task","null","null","null","","swim","swim","522","","r","null","88","88","1","swim-dual-task","","r","lowercase","192000","0","4","73f17b57c69e2bcf884e4f7acfada78ed0d56a4b87927589daddcacacbca65b4","192005.59999999404","522","88","1","swim","","","","",""
"dual-task","null","null","null","","swim","swim","686.5","","h","null","88","88","1","swim-dual-task","","h","lowercase","200000","0","4","73f17b57c69e2bcf884e4f7acfada78ed0d56a4b87927589daddcacacbca65b4","200007.59999999404","686.5","88","1","swim","","","","",""
"dual-task","null","null","null","","swim","swim","517.8999999910593","","D","null","77","77","1","swim-dual-task","","D","uppercase","206000","0","4","73f17b57c69e2bcf884e4f7acfada78ed0d56a4b87927589daddcacacbca65b4","206004.79999999702","517.8999999910593","77","1","swim","","","","",""
"dual-task","null","null","null","","swim","swim","509.59999999403954","","N","null","77","77","1","swim-dual-task","","N","uppercase","216000","0","4","73f17b57c69e2bcf884e4f7acfada78ed0d56a4b87927589daddcacacbca65b4","216006.5","509.59999999403954","77","1","swim","","","","",""
"dual-task","null","null","null","","swim","swim","470.8999999910593","","d","null","88","88","1","swim-dual-task","","d","lowercase","222000","0","4","73f17b57c69e2bcf884e4f7acfada78ed0d56a4b87927589daddcacacbca65b4","222008.69999998808","470.8999999910593","88","1","swim","","","","",""
"dual-task","null","null","null","","swim","swim","483.80000001192093","","f","null","88","88","1","swim-dual-task","","f","lowercase","232000","0","4","73f17b57c69e2bcf884e4f7acfada78ed0d56a4b87927589daddcacacbca65b4","232005.69999998808","483.80000001192093","88","1","swim","","","","",""
"dual-task","null","null","null","","swim","swim","469","","b","null","88","88","1","swim-dual-task","","b","lowercase","244000","0","4","73f17b57c69e2bcf884e4f7acfada78ed0d56a4b87927589daddcacacbca65b4","244007.69999998808","469","88","1","swim","","","","",""
"dual-task","null","null","null","","swim","swim","503.5","","F","null","77","77","1","swim-dual-task","","F","uppercase","250000","0","4","73f17b57c69e2bcf884e4f7acfada78ed0d56a4b87927589daddcacacbca65b4","250004.79999999702","503.5","77","1","swim","","","","",""
"dual-task","null","null","null","","swim","swim","677.6999999880791","","Q","null","77","77","1","swim-dual-task","","Q","uppercase","262000","0","4","73f17b57c69e2bcf884e4f7acfada78ed0d56a4b87927589daddcacacbca65b4","262004.5","677.6999999880791","77","1","swim","","","","",""
"dual-task","null","null","null","","swim","swim","547.5","","F","null","77","77","1","swim-dual-task","","F","uppercase","272000","0","4","73f17b57c69e2bcf884e4f7acfada78ed0d56a4b87927589daddcacacbca65b4","272008.39999999106","547.5","77","1","swim","","","","",""
"dual-task","null","null","null","","swim","swim","577.2000000029802","","Q","null","77","77","1","swim-dual-task","","Q","uppercase","278000","0","4","73f17b57c69e2bcf884e4f7acfada78ed0d56a4b87927589daddcacacbca65b4","278006.39999999106","577.2000000029802","77","1","swim","","","","",""
"dual-task","null","null","null","","swim","swim","481.59999999403954","","N","null","77","77","1","swim-dual-task","","N","uppercase","292000","0","4","73f17b57c69e2bcf884e4f7acfada78ed0d56a4b87927589daddcacacbca65b4","292009.5","481.59999999403954","77","1","swim","","","","",""
"dual-task","null","null","null","","swim","swim","496.79999999701977","","a","null","88","88","1","swim-dual-task","","a","lowercase","304000","0","4","73f17b57c69e2bcf884e4f7acfada78ed0d56a4b87927589daddcacacbca65b4","304009.799999997","496.79999999701977","88","1","swim","","","","",""
"dual-task","null","null","null","","swim","swim","463.79999999701977","","B","null","77","77","1","swim-dual-task","","B","uppercase","316000","0","4","73f17b57c69e2bcf884e4f7acfada78ed0d56a4b87927589daddcacacbca65b4","316010.39999999106","463.79999999701977","77","1","swim","","","","",""
"dual-task","null","null","null","","swim","swim","543.5","","n","null","88","88","1","swim-dual-task","","n","lowercase","324000","0","4","73f17b57c69e2bcf884e4f7acfada78ed0d56a4b87927589daddcacacbca65b4","324008.39999999106","543.5","88","1","swim","","","","",""
"dual-task","null","null","null","","swim","swim","479.40000000596046","","g","null","88","88","1","swim-dual-task","","g","lowercase","336000","0","4","73f17b57c69e2bcf884e4f7acfada78ed0d56a4b87927589daddcacacbca65b4","336008.6999999881","479.40000000596046","88","1","swim","","","","",""
"dual-task","null","null","null","","swim","swim","464.5","","G","null","77","77","1","swim-dual-task","","G","uppercase","346000","0","4","73f17b57c69e2bcf884e4f7acfada78ed0d56a4b87927589daddcacacbca65b4","346009.39999999106","464.5","77","1","swim","","","","",""
"dual-task","null","null","null","","swim","swim","495.5","","E","null","77","77","1","swim-dual-task","","E","uppercase","360000","0","4","73f17b57c69e2bcf884e4f7acfada78ed0d56a4b87927589daddcacacbca65b4","360007.59999999404","495.5","77","1","swim","","","","",""
"dual-task","null","null","null","","swim","swim","523.7000000029802","","q","null","88","88","1","swim-dual-task","","q","lowercase","368000","0","4","73f17b57c69e2bcf884e4f7acfada78ed0d56a4b87927589daddcacacbca65b4","368004.59999999404","523.7000000029802","88","1","swim","","","","",""
"dual-task","null","null","null","","swim","swim","506.29999999701977","","N","null","77","77","1","swim-dual-task","","N","uppercase","378000","0","4","73f17b57c69e2bcf884e4f7acfada78ed0d56a4b87927589daddcacacbca65b4","378012.299999997","506.29999999701977","77","1","swim","","","","",""
"dual-task","null","null","null","","swim","swim","601.5999999940395","","g","null","88","88","1","swim-dual-task","","g","lowercase","386000","0","4","73f17b57c69e2bcf884e4f7acfada78ed0d56a4b87927589daddcacacbca65b4","386014.39999999106","601.5999999940395","88","1","swim","","","","",""
"dual-task","null","null","null","","swim","swim","448.40000000596046","","e","null","88","88","1","swim-dual-task","","e","lowercase","398000","0","4","73f17b57c69e2bcf884e4f7acfada78ed0d56a4b87927589daddcacacbca65b4","398006.59999999404","448.40000000596046","88","1","swim","","","","",""
"dual-task","null","null","null","","swim","swim","478.79999999701977","","T","null","77","77","1","swim-dual-task","","T","uppercase","408000","0","4","73f17b57c69e2bcf884e4f7acfada78ed0d56a4b87927589daddcacacbca65b4","408010.39999999106","478.79999999701977","77","1","swim","","","","",""
"dual-task","null","null","null","","swim","swim","473.80000001192093","","G","null","77","77","1","swim-dual-task","","G","uppercase","418000","0","4","73f17b57c69e2bcf884e4f7acfada78ed0d56a4b87927589daddcacacbca65b4","418008.1999999881","473.80000001192093","77","1","swim","","","","",""
"dual-task","null","null","null","","swim","swim","488.90000000596046","","n","null","88","88","1","swim-dual-task","","n","lowercase","426000","0","4","73f17b57c69e2bcf884e4f7acfada78ed0d56a4b87927589daddcacacbca65b4","426006.89999999106","488.90000000596046","88","1","swim","","","","",""
"dual-task","null","null","null","","swim","swim","505.59999999403954","","e","null","88","88","1","swim-dual-task","","e","lowercase","432000","0","4","73f17b57c69e2bcf884e4f7acfada78ed0d56a4b87927589daddcacacbca65b4","432006.299999997","505.59999999403954","88","1","swim","","","","",""
"dual-task","null","null","null","","swim","swim","453.29999999701977","","T","null","77","77","1","swim-dual-task","","T","uppercase","440000","0","4","73f17b57c69e2bcf884e4f7acfada78ed0d56a4b87927589daddcacacbca65b4","440007.1999999881","453.29999999701977","77","1","swim","","","","",""
"dual-task","null","null","null","","swim","swim","500.70000000298023","","b","null","88","88","1","swim-dual-task","","b","lowercase","448000","0","4","73f17b57c69e2bcf884e4f7acfada78ed0d56a4b87927589daddcacacbca65b4","448003.1999999881","500.70000000298023","88","1","swim","","","","",""
"dual-task","null","null","null","","swim","swim","489.79999999701977","","d","null","88","88","1","swim-dual-task","","d","lowercase","458000","0","4","73f17b57c69e2bcf884e4f7acfada78ed0d56a4b87927589daddcacacbca65b4","458004.799999997","489.79999999701977","88","1","swim","","","","",""
"dual-task","null","null","null","","swim","swim","490.59999999403954","","B","null","77","77","1","swim-dual-task","","B","uppercase","472000","0","4","73f17b57c69e2bcf884e4f7acfada78ed0d56a4b87927589daddcacacbca65b4","472009.1999999881","490.59999999403954","77","1","swim","","","","",""
"dual-task","null","null","null","","swim","swim","777.5","","A","null","77","77","1","swim-dual-task","","A","uppercase","484000","0","4","73f17b57c69e2bcf884e4f7acfada78ed0d56a4b87927589daddcacacbca65b4","484007.5","777.5","77","1","swim","","","","",""
"dual-task","null","null","null","","swim","swim","616.7999999970198","","r","null","88","88","1","swim-dual-task","","r","lowercase","492000","0","4","73f17b57c69e2bcf884e4f7acfada78ed0d56a4b87927589daddcacacbca65b4","492011.39999999106","616.7999999970198","88","1","swim","","","","",""
"dual-task","null","null","null","","swim","swim","519.7000000029802","","h","null","88","88","1","swim-dual-task","","h","lowercase","502000","0","4","73f17b57c69e2bcf884e4f7acfada78ed0d56a4b87927589daddcacacbca65b4","502009.39999999106","519.7000000029802","88","1","swim","","","","",""
"dual-task","null","null","null","","swim","swim","507.29999999701977","","H","null","77","77","1","swim-dual-task","","H","uppercase","514000","0","4","73f17b57c69e2bcf884e4f7acfada78ed0d56a4b87927589daddcacacbca65b4","514009.5","507.29999999701977","77","1","swim","","","","",""
"dual-task","null","null","null","","swim","swim","536.5","","b","null","88","88","1","swim-dual-task","","b","lowercase","526000","0","4","73f17b57c69e2bcf884e4f7acfada78ed0d56a4b87927589daddcacacbca65b4","526008.799999997","536.5","88","1","swim","","","","",""
"dual-task","null","null","null","","swim","swim","581.1999999880791","","n","null","88","88","1","swim-dual-task","","n","lowercase","538000","0","4","73f17b57c69e2bcf884e4f7acfada78ed0d56a4b87927589daddcacacbca65b4","538009.3999999911","581.1999999880791","88","1","swim","","","","",""
"dual-task","null","null","null","","swim","swim","521.5","","r","null","88","88","1","swim-dual-task","","r","lowercase","548000","0","4","73f17b57c69e2bcf884e4f7acfada78ed0d56a4b87927589daddcacacbca65b4","548007.3999999911","521.5","88","1","swim","","","","",""
"dual-task","null","null","null","","swim","swim","503.6000000089407","","q","null","88","88","1","swim-dual-task","","q","lowercase","560000","0","4","73f17b57c69e2bcf884e4f7acfada78ed0d56a4b87927589daddcacacbca65b4","560010.799999997","503.6000000089407","88","1","swim","","","","",""
"dual-task","null","null","null","","swim","swim","466.3999999910593","","a","null","88","88","1","swim-dual-task","","a","lowercase","570000","0","4","73f17b57c69e2bcf884e4f7acfada78ed0d56a4b87927589daddcacacbca65b4","570008.3999999911","466.3999999910593","88","1","swim","","","","",""
"dual-task","null","null","null","","swim","swim","544.2999999970198","","H","null","77","77","1","swim-dual-task","","H","uppercase","576000","0","4","73f17b57c69e2bcf884e4f7acfada78ed0d56a4b87927589daddcacacbca65b4","576009.299999997","544.2999999970198","77","1","swim","","","","",""
"dual-task","null","null","null","","swim","swim","636.4000000059605","","R","null","77","77","1","swim-dual-task","","R","uppercase","584000","0","4","73f17b57c69e2bcf884e4f7acfada78ed0d56a4b87927589daddcacacbca65b4","584007.3999999911","636.4000000059605","77","1","swim","","","","",""
"dual-task","null","null","null","","swim","swim","546.5","","A","null","77","77","1","swim-dual-task","","A","uppercase","596000","0","4","73f17b57c69e2bcf884e4f7acfada78ed0d56a4b87927589daddcacacbca65b4","596007.599999994","546.5","77","1","swim","","","","",""
"dual-task","null","null","null","","swim","swim","479.40000000596046","","e","null","88","88","1","swim-dual-task","","e","lowercase","608000","0","4","73f17b57c69e2bcf884e4f7acfada78ed0d56a4b87927589daddcacacbca65b4","608009.5","479.40000000596046","88","1","swim","","","","",""
"dual-task","null","null","null","","swim","swim","496.40000000596046","","G","null","77","77","1","swim-dual-task","","G","uppercase","618000","0","4","73f17b57c69e2bcf884e4f7acfada78ed0d56a4b87927589daddcacacbca65b4","618005.099999994","496.40000000596046","77","1","swim","","","","",""
"dual-task","null","null","null","","swim","swim","492.8999999910593","","F","null","77","77","1","swim-dual-task","","F","uppercase","626000","0","4","73f17b57c69e2bcf884e4f7acfada78ed0d56a4b87927589daddcacacbca65b4","626008.799999997","492.8999999910593","77","1","swim","","","","",""
"dual-task","null","null","null","","swim","swim","586.5999999940395","","h","null","88","88","1","swim-dual-task","","h","lowercase","638000","0","4","73f17b57c69e2bcf884e4f7acfada78ed0d56a4b87927589daddcacacbca65b4","638010.5","586.5999999940395","88","1","swim","","","","",""
"dual-task","null","null","null","","swim","swim","507.8999999910593","","B","null","77","77","1","swim-dual-task","","B","uppercase","644000","0","4","73f17b57c69e2bcf884e4f7acfada78ed0d56a4b87927589daddcacacbca65b4","644007.5","507.8999999910593","77","1","swim","","","","",""
"dual-task","null","null","null","","swim","swim","750.5","","t","null","88","88","1","swim-dual-task","","t","lowercase","658000","0","4","73f17b57c69e2bcf884e4f7acfada78ed0d56a4b87927589daddcacacbca65b4","658000.599999994","750.5","88","1","swim","","","","",""
"dual-task","null","null","null","","swim","swim","497.70000000298023","","a","null","88","88","1","swim-dual-task","","a","lowercase","668000","0","4","73f17b57c69e2bcf884e4f7acfada78ed0d56a4b87927589daddcacacbca65b4","668013.3999999911","497.70000000298023","88","1","swim","","","","",""
"dual-task","null","null","null","","swim","swim","472.5","","R","null","77","77","1","swim-dual-task","","R","uppercase","678000","0","4","73f17b57c69e2bcf884e4f7acfada78ed0d56a4b87927589daddcacacbca65b4","678005.5","472.5","77","1","swim","","","","",""
"dual-task","null","null","null","","swim","swim","627.2000000029802","","r","null","88","88","1","swim-dual-task","","r","lowercase","686000","0","4","73f17b57c69e2bcf884e4f7acfada78ed0d56a4b87927589daddcacacbca65b4","686006.599999994","627.2000000029802","88","1","swim","","","","",""
"dual-task","null","null","null","","swim","swim","452.69999998807907","","B","null","77","77","1","swim-dual-task","","B","uppercase","698000","0","4","73f17b57c69e2bcf884e4f7acfada78ed0d56a4b87927589daddcacacbca65b4","698008.5","452.69999998807907","77","1","swim","","","","",""
"dual-task","null","null","null","","swim","swim","488.59999999403954","","H","null","77","77","1","swim-dual-task","","H","uppercase","706000","0","4","73f17b57c69e2bcf884e4f7acfada78ed0d56a4b87927589daddcacacbca65b4","706006.3999999911","488.59999999403954","77","1","swim","","","","",""
"dual-task","null","null","null","","swim","swim","517.1000000089407","","Q","null","77","77","1","swim-dual-task","","Q","uppercase","714000","0","4","73f17b57c69e2bcf884e4f7acfada78ed0d56a4b87927589daddcacacbca65b4","714006.599999994","517.1000000089407","77","1","swim","","","","",""
"dual-task","null","null","null","","swim","swim","506","","G","null","77","77","1","swim-dual-task","","G","uppercase","728000","0","4","73f17b57c69e2bcf884e4f7acfada78ed0d56a4b87927589daddcacacbca65b4","728009.5","506","77","1","swim","","","","",""
"dual-task","null","null","null","","swim","swim","549.1000000089407","","q","null","88","88","1","swim-dual-task","","q","lowercase","738000","0","4","73f17b57c69e2bcf884e4f7acfada78ed0d56a4b87927589daddcacacbca65b4","738015.299999997","549.1000000089407","88","1","swim","","","","",""
"dual-task","null","null","null","","swim","swim","514.5999999940395","","Q","null","77","77","1","swim-dual-task","","Q","uppercase","750000","0","4","73f17b57c69e2bcf884e4f7acfada78ed0d56a4b87927589daddcacacbca65b4","750009.5","514.5999999940395","77","1","swim","","","","",""
"dual-task","null","null","null","","swim","swim","600.2000000029802","","E","null","77","77","1","swim-dual-task","","E","uppercase","758000","0","4","73f17b57c69e2bcf884e4f7acfada78ed0d56a4b87927589daddcacacbca65b4","758008.599999994","600.2000000029802","77","1","swim","","","","",""
"dual-task","null","null","null","","swim","swim","496.80000001192093","","D","null","77","77","1","swim-dual-task","","D","uppercase","764000","0","4","73f17b57c69e2bcf884e4f7acfada78ed0d56a4b87927589daddcacacbca65b4","764007.6999999881","496.80000001192093","77","1","swim","","","","",""
"dual-task","null","null","null","","swim","swim","585.5","","t","null","88","88","1","swim-dual-task","","t","lowercase","774000","0","4","73f17b57c69e2bcf884e4f7acfada78ed0d56a4b87927589daddcacacbca65b4","774008.5","585.5","88","1","swim","","","","",""
"dual-task","null","null","null","","swim","swim","588","","n","null","88","88","1","swim-dual-task","","n","lowercase","780000","0","4","73f17b57c69e2bcf884e4f7acfada78ed0d56a4b87927589daddcacacbca65b4","780009.6999999881","588","88","1","swim","","","","",""
"dual-task","null","null","null","","swim","swim","588.9000000059605","","R","null","77","77","1","swim-dual-task","","R","uppercase","786000","0","4","73f17b57c69e2bcf884e4f7acfada78ed0d56a4b87927589daddcacacbca65b4","786009.1999999881","588.9000000059605","77","1","swim","","","","",""
"dual-task","null","null","null","","swim","swim","475.20000000298023","","e","null","88","88","1","swim-dual-task","","e","lowercase","796000","0","4","73f17b57c69e2bcf884e4f7acfada78ed0d56a4b87927589daddcacacbca65b4","796010.599999994","475.20000000298023","88","1","swim","","","","",""
"audio-keyboard-response","29","910979","0.0-7.0-0.0-1.0","73f17b57c69e2bcf884e4f7acfada78ed0d56a4b87927589daddcacacbca65b4","swim","swim","null","","audio/story_swim_scrambled.mp3","","null","","","","","","","","","","","","","","","","","","","",""
"html-button-response","30","915755","0.0-7.0-0.0-2.0","73f17b57c69e2bcf884e4f7acfada78ed0d56a4b87927589daddcacacbca65b4","swim","swim","4775","","<p>This concludes the story. Thank you for listening.</p><p>You will now answer some questions about the content of the story.</p>","0","","","","","","","","","","","","","","","","","","","","",""
"survey-multi-choice","31","932002","0.0-7.0-0.0-3.0-0.0","73f17b57c69e2bcf884e4f7acfada78ed0d56a4b87927589daddcacacbca65b4","swim","swim","16245","","<b>What gave the narrator his greatest feeling of accomplishment?</b>","","","","1","swim-comprehension","","","","","","","","","","","","","{""Q0"":""Passing the water survival course""}","","","",""
"survey-multi-choice","32","939799","0.0-7.0-0.0-3.0-0.1","73f17b57c69e2bcf884e4f7acfada78ed0d56a4b87927589daddcacacbca65b4","swim","swim","7544","","<b>Where is the home of naval aviation?</b>","","","","1","swim-comprehension","","","","","","","","","","","","","{""Q0"":""Pensacola""}","","","",""
"survey-multi-choice","33","955305","0.0-7.0-0.0-3.0-0.2","73f17b57c69e2bcf884e4f7acfada78ed0d56a4b87927589daddcacacbca65b4","swim","swim","15251","","<b>How often does the narrator swim, now that he is a good swimmer?</b>","","","","0","swim-comprehension","","","","","","","","","","","","","{""Q0"":""Every weekend with his kids""}","","","",""
"survey-multi-choice","34","966246","0.0-7.0-0.0-3.0-0.3","73f17b57c69e2bcf884e4f7acfada78ed0d56a4b87927589daddcacacbca65b4","swim","swim","10685","","<b>How did the narrator train for his swim test?</b>","","","","0","swim-comprehension","","","","","","","","","","","","","{""Q0"":""Signed up for a swim class""}","","","",""
"survey-multi-choice","35","972902","0.0-7.0-0.0-3.0-0.4","73f17b57c69e2bcf884e4f7acfada78ed0d56a4b87927589daddcacacbca65b4","swim","swim","6403","","<b>How many times did the astronaut candidates have to complete the final exercise to pass?</b>","","","","1","swim-comprehension","","","","","","","","","","","","","{""Q0"":""Two""}","","","",""
"survey-multi-choice","36","983249","0.0-7.0-0.0-3.0-0.5","73f17b57c69e2bcf884e4f7acfada78ed0d56a4b87927589daddcacacbca65b4","swim","swim","10094","","<b>What were the astronaut candidates trained to do at the naval air station?</b>","","","","1","swim-comprehension","","","","","","","","","","","","","{""Q0"":""Eject out of aircraft and survive in water long enough to be rescued""}","","","",""
"survey-multi-choice","37","988038","0.0-7.0-0.0-3.0-0.6","73f17b57c69e2bcf884e4f7acfada78ed0d56a4b87927589daddcacacbca65b4","swim","swim","4536","","<b>What is the narrator afraid of, aside from the water?</b>","","","","1","swim-comprehension","","","","","","","","","","","","","{""Q0"":""Heights""}","","","",""
"survey-multi-choice","38","993313","0.0-7.0-0.0-3.0-0.7","73f17b57c69e2bcf884e4f7acfada78ed0d56a4b87927589daddcacacbca65b4","swim","swim","5023","","<b>How many astronaut candidates reported for duty at the Johnson Space Center?</b>","","","","1","swim-comprehension","","","","","","","","","","","","","{""Q0"":""Forty-four""}","","","",""
"survey-multi-choice","39","1003076","0.0-7.0-0.0-3.0-0.8","73f17b57c69e2bcf884e4f7acfada78ed0d56a4b87927589daddcacacbca65b4","swim","swim","9508","","<b>How many astronaut candidates passed the first swim test?</b>","","","","1","swim-comprehension","","","","","","","","","","","","","{""Q0"":""All of them""}","","","",""
"survey-multi-choice","40","1013972","0.0-7.0-0.0-3.0-0.9","73f17b57c69e2bcf884e4f7acfada78ed0d56a4b87927589daddcacacbca65b4","swim","swim","10643","","<b>What was the final step of the first swim test in the pool?</b>","","","","1","swim-comprehension","","","","","","","","","","","","","{""Q0"":""Tread water with hands above the water""}","","","",""
"html-button-response","41","1016605","0.0-7.0-0.0-4.0","73f17b57c69e2bcf884e4f7acfada78ed0d56a4b87927589daddcacacbca65b4","swim","swim","2381","","<p>Thank you for your responses.</p><p>You will now answer some questions about your impressions of the story.</p>","0","","","","","","","","","","","","","","","","","","","","",""
"html-button-response","42","1022542","0.0-7.0-0.0-5.0-0.0","73f17b57c69e2bcf884e4f7acfada78ed0d56a4b87927589daddcacacbca65b4","swim","swim","5937","","A5","5","","","","swim-engagement","","","","","","","","","","","","","","6","absorption","",""
"html-button-response","43","1027293","0.0-7.0-0.0-5.0-0.1","73f17b57c69e2bcf884e4f7acfada78ed0d56a4b87927589daddcacacbca65b4","swim","swim","4500","","E10","1","","","","swim-engagement","","","","","","","","","","","","","","2","enjoyment","",""
"html-button-response","44","1031363","0.0-7.0-0.0-5.0-0.2","73f17b57c69e2bcf884e4f7acfada78ed0d56a4b87927589daddcacacbca65b4","swim","swim","3817","","E1","3","","","","swim-engagement","","","","","","","","","","","","","","4","enjoyment","",""
"html-button-response","45","1034894","0.0-7.0-0.0-5.0-0.3","73f17b57c69e2bcf884e4f7acfada78ed0d56a4b87927589daddcacacbca65b4","swim","swim","3278","","EE4","4","","","","swim-engagement","","","","","","","","","","","","","","5","emo-engage","",""
"html-button-response","46","1040096","0.0-7.0-0.0-5.0-0.4","73f17b57c69e2bcf884e4f7acfada78ed0d56a4b87927589daddcacacbca65b4","swim","swim","4950","","EE1","4","","","","swim-engagement","","","","","","","","","","","","","","5","emo-engage","",""
"html-button-response","47","1042701","0.0-7.0-0.0-5.0-0.5","73f17b57c69e2bcf884e4f7acfada78ed0d56a4b87927589daddcacacbca65b4","swim","swim","2353","","EE3","4","","","","swim-engagement","","","","","","","","","","","","","","5","emo-engage","",""
"html-button-response","48","1045837","0.0-7.0-0.0-5.0-0.6","73f17b57c69e2bcf884e4f7acfada78ed0d56a4b87927589daddcacacbca65b4","swim","swim","2884","","E8","2","","","","swim-engagement","","","","","","","","","","","","","","3","enjoyment","",""
"html-button-response","49","1049463","0.0-7.0-0.0-5.0-0.7","73f17b57c69e2bcf884e4f7acfada78ed0d56a4b87927589daddcacacbca65b4","swim","swim","3375","","A1","5","","","","swim-engagement","","","","","","","","","","","","","","6","absorption","",""
"html-button-response","50","1053881","0.0-7.0-0.0-5.0-0.8","73f17b57c69e2bcf884e4f7acfada78ed0d56a4b87927589daddcacacbca65b4","swim","swim","4167","","MS2","3","","","","swim-engagement","","","","","","","","","","","","","","4","mental-sim","",""
"html-button-response","51","1057878","0.0-7.0-0.0-5.0-0.9","73f17b57c69e2bcf884e4f7acfada78ed0d56a4b87927589daddcacacbca65b4","swim","swim","3744","","A4","3","","","","swim-engagement","","","","","","","","","","","","","","4","absorption","",""
"html-button-response","52","1061542","0.0-7.0-0.0-5.0-0.10","73f17b57c69e2bcf884e4f7acfada78ed0d56a4b87927589daddcacacbca65b4","swim","swim","3413","","E6","3","","","","swim-engagement","","","","","","","","","","","","","","4","enjoyment","",""
"html-button-response","53","1065010","0.0-7.0-0.0-5.0-0.11","73f17b57c69e2bcf884e4f7acfada78ed0d56a4b87927589daddcacacbca65b4","swim","swim","3215","","A3","4","","","","swim-engagement","","","","","","","","","","","","","","5","absorption","",""
"html-button-response","54","1068102","0.0-7.0-0.0-5.0-0.12","73f17b57c69e2bcf884e4f7acfada78ed0d56a4b87927589daddcacacbca65b4","swim","swim","2841","","EE5","4","","","","swim-engagement","","","","","","","","","","","","","","5","emo-engage","",""
"html-button-response","55","1071021","0.0-7.0-0.0-5.0-0.13","73f17b57c69e2bcf884e4f7acfada78ed0d56a4b87927589daddcacacbca65b4","swim","swim","2666","","EE2","4","","","","swim-engagement","","","","","","","","","","","","","","5","emo-engage","",""
"html-button-response","56","1074297","0.0-7.0-0.0-5.0-0.14","73f17b57c69e2bcf884e4f7acfada78ed0d56a4b87927589daddcacacbca65b4","swim","swim","3024","","A2","5","","","","swim-engagement","","","","","","","","","","","","","","6","absorption","",""
"html-button-response","57","1078191","0.0-7.0-0.0-5.0-0.15","73f17b57c69e2bcf884e4f7acfada78ed0d56a4b87927589daddcacacbca65b4","swim","swim","3642","","MS1","5","","","","swim-engagement","","","","","","","","","","","","","","6","mental-sim","",""
"html-button-response","58","1081070","0.0-7.0-0.0-5.0-0.16","73f17b57c69e2bcf884e4f7acfada78ed0d56a4b87927589daddcacacbca65b4","swim","swim","2627","","E7","5","","","","swim-engagement","","","","","","","","","","","","","","6","enjoyment","",""
"html-button-response","59","1084630","0.0-7.0-0.0-5.0-0.17","73f17b57c69e2bcf884e4f7acfada78ed0d56a4b87927589daddcacacbca65b4","swim","swim","3308","","MS3","4","","","","swim-engagement","","","","","","","","","","","","","","5","mental-sim","",""
"html-keyboard-response","60","1091662","0.0-7.0-1.0","73f17b57c69e2bcf884e4f7acfada78ed0d56a4b87927589daddcacacbca65b4","swim","swim","6781","","<p>Thank you for your responses. You will now listen to the second story.</p><p>Remember, as you listen to the story you will see letters appear on the screen.</br>As quickly as possible, press <b>&lt;x&gt;</b> if the letter is lowercase and <b>&lt;m&gt;</b> if the letter is uppercase.</p><p>Press <b>&lt;x&gt;</b> or <b>&lt;m&gt;</b> to begin listening!</p>","","77","","","","","","","","","","","","","","","","","","","",""
"html-keyboard-response","61","1092163","0.0-7.0-2.0-0.0","73f17b57c69e2bcf884e4f7acfada78ed0d56a4b87927589daddcacacbca65b4","swim","swim","null","","<div style=""font-size:60px;"" tabindex=""0"">+</div>","","null","","","","","","","","","","","","","","","","","","","",""
"dual-task","null","null","null","","swim","swim","465.40000000596046","","q","null","88","88","1","arctic-dual-task","","q","lowercase","16000","0","4","73f17b57c69e2bcf884e4f7acfada78ed0d56a4b87927589daddcacacbca65b4","16008.40000000596","465.40000000596046","88","1","arctic","","","","",""
"dual-task","null","null","null","","swim","swim","457.59999999403954","","R","null","77","77","1","arctic-dual-task","","R","uppercase","22000","0","4","73f17b57c69e2bcf884e4f7acfada78ed0d56a4b87927589daddcacacbca65b4","22009.20000000298","457.59999999403954","77","1","arctic","","","","",""
"dual-task","null","null","null","","swim","swim","509.5","","F","null","77","77","1","arctic-dual-task","","F","uppercase","30000","0","4","73f17b57c69e2bcf884e4f7acfada78ed0d56a4b87927589daddcacacbca65b4","30013.09999999404","509.5","77","1","arctic","","","","",""
"dual-task","null","null","null","","swim","swim","533.2000000029802","","A","null","77","77","1","arctic-dual-task","","A","uppercase","40000","0","4","73f17b57c69e2bcf884e4f7acfada78ed0d56a4b87927589daddcacacbca65b4","40009.20000000298","533.2000000029802","77","1","arctic","","","","",""
"dual-task","null","null","null","","swim","swim","516.8999999910593","","r","null","88","88","1","arctic-dual-task","","r","lowercase","52000","0","4","73f17b57c69e2bcf884e4f7acfada78ed0d56a4b87927589daddcacacbca65b4","52009.29999999702","516.8999999910593","88","1","arctic","","","","",""
"dual-task","null","null","null","","swim","swim","472.5","","g","null","88","88","1","arctic-dual-task","","g","lowercase","60000","0","4","73f17b57c69e2bcf884e4f7acfada78ed0d56a4b87927589daddcacacbca65b4","60009.29999999702","472.5","88","1","arctic","","","","",""
"dual-task","null","null","null","","swim","swim","442.20000000298023","","d","null","88","88","1","arctic-dual-task","","d","lowercase","66000","0","4","73f17b57c69e2bcf884e4f7acfada78ed0d56a4b87927589daddcacacbca65b4","66009.20000000298","442.20000000298023","88","1","arctic","","","","",""
"dual-task","null","null","null","","swim","swim","470.59999999403954","","A","null","77","77","1","arctic-dual-task","","A","uppercase","74000","0","4","73f17b57c69e2bcf884e4f7acfada78ed0d56a4b87927589daddcacacbca65b4","74010.40000000596","470.59999999403954","77","1","arctic","","","","",""
"dual-task","null","null","null","","swim","swim","547.2999999970198","","F","null","77","77","1","arctic-dual-task","","F","uppercase","80000","0","4","73f17b57c69e2bcf884e4f7acfada78ed0d56a4b87927589daddcacacbca65b4","80008.40000000596","547.2999999970198","77","1","arctic","","","","",""
"dual-task","null","null","null","","swim","swim","504.70000000298023","","N","null","77","77","1","arctic-dual-task","","N","uppercase","94000","0","4","73f17b57c69e2bcf884e4f7acfada78ed0d56a4b87927589daddcacacbca65b4","94008.59999999404","504.70000000298023","77","1","arctic","","","","",""
"dual-task","null","null","null","","swim","swim","528.5","","f","null","88","88","1","arctic-dual-task","","f","lowercase","106000","0","4","73f17b57c69e2bcf884e4f7acfada78ed0d56a4b87927589daddcacacbca65b4","106007.09999999404","528.5","88","1","arctic","","","","",""
"dual-task","null","null","null","","swim","swim","541.6999999880791","","n","null","88","88","1","arctic-dual-task","","n","lowercase","118000","0","4","73f17b57c69e2bcf884e4f7acfada78ed0d56a4b87927589daddcacacbca65b4","118010.40000000596","541.6999999880791","88","1","arctic","","","","",""
"dual-task","null","null","null","","swim","swim","644.2999999970198","","B","null","77","77","1","arctic-dual-task","","B","uppercase","130000","0","4","73f17b57c69e2bcf884e4f7acfada78ed0d56a4b87927589daddcacacbca65b4","130007.20000000298","644.2999999970198","77","1","arctic","","","","",""
"dual-task","null","null","null","","swim","swim","531.9000000059605","","g","null","88","88","1","arctic-dual-task","","g","lowercase","142000","0","4","73f17b57c69e2bcf884e4f7acfada78ed0d56a4b87927589daddcacacbca65b4","142008.40000000596","531.9000000059605","88","1","arctic","","","","",""
"dual-task","null","null","null","","swim","swim","459.1000000089407","","e","null","88","88","1","arctic-dual-task","","e","lowercase","156000","0","4","73f17b57c69e2bcf884e4f7acfada78ed0d56a4b87927589daddcacacbca65b4","156004.29999999702","459.1000000089407","88","1","arctic","","","","",""
"dual-task","null","null","null","","swim","swim","532","","h","null","88","88","1","arctic-dual-task","","h","lowercase","162000","0","4","73f17b57c69e2bcf884e4f7acfada78ed0d56a4b87927589daddcacacbca65b4","162006","532","88","1","arctic","","","","",""
"dual-task","null","null","null","","swim","swim","443.80000001192093","","a","null","88","88","1","arctic-dual-task","","a","lowercase","176000","0","4","73f17b57c69e2bcf884e4f7acfada78ed0d56a4b87927589daddcacacbca65b4","176007","443.80000001192093","88","1","arctic","","","","",""
"dual-task","null","null","null","","swim","swim","602.1999999880791","","F","null","77","77","1","arctic-dual-task","","F","uppercase","184000","0","4","73f17b57c69e2bcf884e4f7acfada78ed0d56a4b87927589daddcacacbca65b4","184005.29999999702","602.1999999880791","77","1","arctic","","","","",""
"dual-task","null","null","null","","swim","swim","450.29999999701977","","q","null","88","88","1","arctic-dual-task","","q","lowercase","192000","0","4","73f17b57c69e2bcf884e4f7acfada78ed0d56a4b87927589daddcacacbca65b4","192006","450.29999999701977","88","1","arctic","","","","",""
"dual-task","null","null","null","","swim","swim","388.70000000298023","","a","null","88","88","1","arctic-dual-task","","a","lowercase","206000","0","4","73f17b57c69e2bcf884e4f7acfada78ed0d56a4b87927589daddcacacbca65b4","206008.09999999404","388.70000000298023","88","1","arctic","","","","",""
"dual-task","null","null","null","","swim","swim","493.79999999701977","","D","null","77","77","1","arctic-dual-task","","D","uppercase","216000","0","4","73f17b57c69e2bcf884e4f7acfada78ed0d56a4b87927589daddcacacbca65b4","216008.59999999404","493.79999999701977","77","1","arctic","","","","",""
"dual-task","null","null","null","","swim","swim","442.09999999403954","","q","null","88","88","1","arctic-dual-task","","q","lowercase","226000","0","4","73f17b57c69e2bcf884e4f7acfada78ed0d56a4b87927589daddcacacbca65b4","226005.40000000596","442.09999999403954","88","1","arctic","","","","",""
"dual-task","null","null","null","","swim","swim","468.29999999701977","","f","null","88","88","1","arctic-dual-task","","f","lowercase","238000","0","4","73f17b57c69e2bcf884e4f7acfada78ed0d56a4b87927589daddcacacbca65b4","238008.20000000298","468.29999999701977","88","1","arctic","","","","",""
"dual-task","null","null","null","","swim","swim","526.5","","T","null","77","77","1","arctic-dual-task","","T","uppercase","252000","0","4","73f17b57c69e2bcf884e4f7acfada78ed0d56a4b87927589daddcacacbca65b4","252008.29999999702","526.5","77","1","arctic","","","","",""
"dual-task","null","null","null","","swim","swim","523.1999999880791","","A","null","77","77","1","arctic-dual-task","","A","uppercase","262000","0","4","73f17b57c69e2bcf884e4f7acfada78ed0d56a4b87927589daddcacacbca65b4","262004.40000000596","523.1999999880791","77","1","arctic","","","","",""
"dual-task","null","null","null","","swim","swim","678.6999999880791","","T","null","77","77","1","arctic-dual-task","","T","uppercase","272000","0","4","73f17b57c69e2bcf884e4f7acfada78ed0d56a4b87927589daddcacacbca65b4","272006.40000000596","678.6999999880791","77","1","arctic","","","","",""
"dual-task","null","null","null","","swim","swim","621.3999999910593","","n","null","88","88","1","arctic-dual-task","","n","lowercase","280000","0","4","73f17b57c69e2bcf884e4f7acfada78ed0d56a4b87927589daddcacacbca65b4","280006.200000003","621.3999999910593","88","1","arctic","","","","",""
"dual-task","null","null","null","","swim","swim","512.7000000029802","","H","null","77","77","1","arctic-dual-task","","H","uppercase","288000","0","4","73f17b57c69e2bcf884e4f7acfada78ed0d56a4b87927589daddcacacbca65b4","288006.09999999404","512.7000000029802","77","1","arctic","","","","",""
"dual-task","null","null","null","","swim","swim","460.1000000089407","","Q","null","77","77","1","arctic-dual-task","","Q","uppercase","294000","0","4","73f17b57c69e2bcf884e4f7acfada78ed0d56a4b87927589daddcacacbca65b4","294008.299999997","460.1000000089407","77","1","arctic","","","","",""
"dual-task","null","null","null","","swim","swim","488.59999999403954","","B","null","77","77","1","arctic-dual-task","","B","uppercase","302000","0","4","73f17b57c69e2bcf884e4f7acfada78ed0d56a4b87927589daddcacacbca65b4","302023.90000000596","488.59999999403954","77","1","arctic","","","","",""
"dual-task","null","null","null","","swim","swim","557.1999999880791","","t","null","88","88","1","arctic-dual-task","","t","lowercase","308000","0","4","73f17b57c69e2bcf884e4f7acfada78ed0d56a4b87927589daddcacacbca65b4","308010.299999997","557.1999999880791","88","1","arctic","","","","",""
"dual-task","null","null","null","","swim","swim","581.7000000029802","","b","null","88","88","1","arctic-dual-task","","b","lowercase","318000","0","4","73f17b57c69e2bcf884e4f7acfada78ed0d56a4b87927589daddcacacbca65b4","318002.09999999404","581.7000000029802","88","1","arctic","","","","",""
"dual-task","null","null","null","","swim","swim","458.69999998807907","","e","null","88","88","1","arctic-dual-task","","e","lowercase","324000","0","4","73f17b57c69e2bcf884e4f7acfada78ed0d56a4b87927589daddcacacbca65b4","324007.299999997","458.69999998807907","88","1","arctic","","","","",""
"dual-task","null","null","null","","swim","swim","527.9000000059605","","q","null","88","88","1","arctic-dual-task","","q","lowercase","330000","0","4","73f17b57c69e2bcf884e4f7acfada78ed0d56a4b87927589daddcacacbca65b4","330008.40000000596","527.9000000059605","88","1","arctic","","","","",""
"dual-task","null","null","null","","swim","swim","478.09999999403954","","t","null","88","88","1","arctic-dual-task","","t","lowercase","338000","0","4","73f17b57c69e2bcf884e4f7acfada78ed0d56a4b87927589daddcacacbca65b4","338009.299999997","478.09999999403954","88","1","arctic","","","","",""
"dual-task","null","null","null","","swim","swim","499.20000000298023","","N","null","77","77","1","arctic-dual-task","","N","uppercase","348000","0","4","73f17b57c69e2bcf884e4f7acfada78ed0d56a4b87927589daddcacacbca65b4","348007.200000003","499.20000000298023","77","1","arctic","","","","",""
"dual-task","null","null","null","","swim","swim","525","","b","null","88","88","1","arctic-dual-task","","b","lowercase","362000","0","4","73f17b57c69e2bcf884e4f7acfada78ed0d56a4b87927589daddcacacbca65b4","362008.200000003","525","88","1","arctic","","","","",""
"dual-task","null","null","null","","swim","swim","480.8999999910593","","b","null","88","88","1","arctic-dual-task","","b","lowercase","374000","0","4","73f17b57c69e2bcf884e4f7acfada78ed0d56a4b87927589daddcacacbca65b4","374006.299999997","480.8999999910593","88","1","arctic","","","","",""
"dual-task","null","null","null","","swim","swim","466","","B","null","77","77","1","arctic-dual-task","","B","uppercase","384000","0","4","73f17b57c69e2bcf884e4f7acfada78ed0d56a4b87927589daddcacacbca65b4","384006.40000000596","466","77","1","arctic","","","","",""
"dual-task","null","null","null","","swim","swim","548.1000000089407","","H","null","77","77","1","arctic-dual-task","","H","uppercase","390000","0","4","73f17b57c69e2bcf884e4f7acfada78ed0d56a4b87927589daddcacacbca65b4","390006","548.1000000089407","77","1","arctic","","","","",""
"dual-task","null","null","null","","swim","swim","601.5999999940395","","Q","null","77","77","1","arctic-dual-task","","Q","uppercase","402000","0","4","73f17b57c69e2bcf884e4f7acfada78ed0d56a4b87927589daddcacacbca65b4","402008.09999999404","601.5999999940395","77","1","arctic","","","","",""
"dual-task","null","null","null","","swim","swim","748.0999999940395","","F","null","77","77","1","arctic-dual-task","","F","uppercase","410000","0","4","73f17b57c69e2bcf884e4f7acfada78ed0d56a4b87927589daddcacacbca65b4","410006.299999997","748.0999999940395","77","1","arctic","","","","",""
"dual-task","null","null","null","","swim","swim","598.8999999910593","","g","null","88","88","1","arctic-dual-task","","g","lowercase","416000","0","4","73f17b57c69e2bcf884e4f7acfada78ed0d56a4b87927589daddcacacbca65b4","416011.40000000596","598.8999999910593","88","1","arctic","","","","",""
"dual-task","null","null","null","","swim","swim","469.59999999403954","","n","null","88","88","1","arctic-dual-task","","n","lowercase","426000","0","4","73f17b57c69e2bcf884e4f7acfada78ed0d56a4b87927589daddcacacbca65b4","426011.09999999404","469.59999999403954","88","1","arctic","","","","",""
"dual-task","null","null","null","","swim","swim","454.79999999701977","","a","null","88","88","1","arctic-dual-task","","a","lowercase","434000","0","4","73f17b57c69e2bcf884e4f7acfada78ed0d56a4b87927589daddcacacbca65b4","434009.200000003","454.79999999701977","88","1","arctic","","","","",""
"dual-task","null","null","null","","swim","swim","498.79999999701977","","G","null","77","77","1","arctic-dual-task","","G","uppercase","444000","0","4","73f17b57c69e2bcf884e4f7acfada78ed0d56a4b87927589daddcacacbca65b4","444010","498.79999999701977","77","1","arctic","","","","",""
"dual-task","null","null","null","","swim","swim","589.5999999940395","","r","null","88","88","1","arctic-dual-task","","r","lowercase","458000","0","4","73f17b57c69e2bcf884e4f7acfada78ed0d56a4b87927589daddcacacbca65b4","458007.5","589.5999999940395","88","1","arctic","","","","",""
"dual-task","null","null","null","","swim","swim","498.69999998807907","","g","null","88","88","1","arctic-dual-task","","g","lowercase","466000","0","4","73f17b57c69e2bcf884e4f7acfada78ed0d56a4b87927589daddcacacbca65b4","466006.90000000596","498.69999998807907","88","1","arctic","","","","",""
"dual-task","null","null","null","","swim","swim","608.8999999910593","","t","null","88","88","1","arctic-dual-task","","t","lowercase","478000","0","4","73f17b57c69e2bcf884e4f7acfada78ed0d56a4b87927589daddcacacbca65b4","478009.09999999404","608.8999999910593","88","1","arctic","","","","",""
"dual-task","null","null","null","","swim","swim","544.3999999910593","","N","null","77","77","1","arctic-dual-task","","N","uppercase","492000","0","4","73f17b57c69e2bcf884e4f7acfada78ed0d56a4b87927589daddcacacbca65b4","492011.299999997","544.3999999910593","77","1","arctic","","","","",""
"dual-task","null","null","null","","swim","swim","496.3999999910593","","a","null","88","88","1","arctic-dual-task","","a","lowercase","506000","0","4","73f17b57c69e2bcf884e4f7acfada78ed0d56a4b87927589daddcacacbca65b4","506010.40000000596","496.3999999910593","88","1","arctic","","","","",""
"dual-task","null","null","null","","swim","swim","471.59999999403954","","d","null","88","88","1","arctic-dual-task","","d","lowercase","520000","0","4","73f17b57c69e2bcf884e4f7acfada78ed0d56a4b87927589daddcacacbca65b4","520008.09999999404","471.59999999403954","88","1","arctic","","","","",""
"dual-task","null","null","null","","swim","swim","482.59999999403954","","h","null","88","88","1","arctic-dual-task","","h","lowercase","532000","0","4","73f17b57c69e2bcf884e4f7acfada78ed0d56a4b87927589daddcacacbca65b4","532006.200000003","482.59999999403954","88","1","arctic","","","","",""
"dual-task","null","null","null","","swim","swim","488.19999998807907","","r","null","88","88","1","arctic-dual-task","","r","lowercase","544000","0","4","73f17b57c69e2bcf884e4f7acfada78ed0d56a4b87927589daddcacacbca65b4","544008.900000006","488.19999998807907","88","1","arctic","","","","",""
"dual-task","null","null","null","","swim","swim","461.20000000298023","","h","null","88","88","1","arctic-dual-task","","h","lowercase","550000","0","4","73f17b57c69e2bcf884e4f7acfada78ed0d56a4b87927589daddcacacbca65b4","550006.200000003","461.20000000298023","88","1","arctic","","","","",""
"dual-task","null","null","null","","swim","swim","529.2000000029802","","D","null","77","77","1","arctic-dual-task","","D","uppercase","558000","0","4","73f17b57c69e2bcf884e4f7acfada78ed0d56a4b87927589daddcacacbca65b4","558007","529.2000000029802","77","1","arctic","","","","",""
"dual-task","null","null","null","","swim","swim","565.5999999940395","","d","null","88","88","1","arctic-dual-task","","d","lowercase","566000","0","4","73f17b57c69e2bcf884e4f7acfada78ed0d56a4b87927589daddcacacbca65b4","566005.900000006","565.5999999940395","88","1","arctic","","","","",""
"dual-task","null","null","null","","swim","swim","522.1000000089407","","D","null","77","77","1","arctic-dual-task","","D","uppercase","580000","0","4","73f17b57c69e2bcf884e4f7acfada78ed0d56a4b87927589daddcacacbca65b4","580008","522.1000000089407","77","1","arctic","","","","",""
"dual-task","null","null","null","","swim","swim","475.79999999701977","","e","null","88","88","1","arctic-dual-task","","e","lowercase","588000","0","4","73f17b57c69e2bcf884e4f7acfada78ed0d56a4b87927589daddcacacbca65b4","588005.099999994","475.79999999701977","88","1","arctic","","","","",""
"dual-task","null","null","null","","swim","swim","524.7999999970198","","R","null","77","77","1","arctic-dual-task","","R","uppercase","598000","0","4","73f17b57c69e2bcf884e4f7acfada78ed0d56a4b87927589daddcacacbca65b4","598008.799999997","524.7999999970198","77","1","arctic","","","","",""
"dual-task","null","null","null","","swim","swim","577.4000000059605","","f","null","88","88","1","arctic-dual-task","","f","lowercase","606000","0","4","73f17b57c69e2bcf884e4f7acfada78ed0d56a4b87927589daddcacacbca65b4","606005.400000006","577.4000000059605","88","1","arctic","","","","",""
"dual-task","null","null","null","","swim","swim","515.4000000059605","","A","null","77","77","1","arctic-dual-task","","A","uppercase","616000","0","4","73f17b57c69e2bcf884e4f7acfada78ed0d56a4b87927589daddcacacbca65b4","616008.200000003","515.4000000059605","77","1","arctic","","","","",""
"dual-task","null","null","null","","swim","swim","472.5","","t","null","88","88","1","arctic-dual-task","","t","lowercase","630000","0","4","73f17b57c69e2bcf884e4f7acfada78ed0d56a4b87927589daddcacacbca65b4","630005.200000003","472.5","88","1","arctic","","","","",""
"dual-task","null","null","null","","swim","swim","535","","H","null","77","77","1","arctic-dual-task","","H","uppercase","640000","0","4","73f17b57c69e2bcf884e4f7acfada78ed0d56a4b87927589daddcacacbca65b4","640009.200000003","535","77","1","arctic","","","","",""
"dual-task","null","null","null","","swim","swim","505.09999999403954","","R","null","77","77","1","arctic-dual-task","","R","uppercase","652000","0","4","73f17b57c69e2bcf884e4f7acfada78ed0d56a4b87927589daddcacacbca65b4","652005.400000006","505.09999999403954","77","1","arctic","","","","",""
"dual-task","null","null","null","","swim","swim","482.29999999701977","","E","null","77","77","1","arctic-dual-task","","E","uppercase","666000","0","4","73f17b57c69e2bcf884e4f7acfada78ed0d56a4b87927589daddcacacbca65b4","666013","482.29999999701977","77","1","arctic","","","","",""
"dual-task","null","null","null","","swim","swim","520","","E","null","77","77","1","arctic-dual-task","","E","uppercase","676000","0","4","73f17b57c69e2bcf884e4f7acfada78ed0d56a4b87927589daddcacacbca65b4","676009.299999997","520","77","1","arctic","","","","",""
"dual-task","null","null","null","","swim","swim","529.5","","G","null","77","77","1","arctic-dual-task","","G","uppercase","684000","0","4","73f17b57c69e2bcf884e4f7acfada78ed0d56a4b87927589daddcacacbca65b4","684012.400000006","529.5","77","1","arctic","","","","",""
"dual-task","null","null","null","","swim","swim","481.6000000089407","","Q","null","77","77","1","arctic-dual-task","","Q","uppercase","694000","0","4","73f17b57c69e2bcf884e4f7acfada78ed0d56a4b87927589daddcacacbca65b4","694007.099999994","481.6000000089407","77","1","arctic","","","","",""
"dual-task","null","null","null","","swim","swim","476.29999999701977","","f","null","88","88","1","arctic-dual-task","","f","lowercase","706000","0","4","73f17b57c69e2bcf884e4f7acfada78ed0d56a4b87927589daddcacacbca65b4","706007.299999997","476.29999999701977","88","1","arctic","","","","",""
"dual-task","null","null","null","","swim","swim","521.7999999970198","","n","null","88","88","1","arctic-dual-task","","n","lowercase","714000","0","4","73f17b57c69e2bcf884e4f7acfada78ed0d56a4b87927589daddcacacbca65b4","714009.299999997","521.7999999970198","88","1","arctic","","","","",""
"dual-task","null","null","null","","swim","swim","517.5999999940395","","B","null","77","77","1","arctic-dual-task","","B","uppercase","728000","0","4","73f17b57c69e2bcf884e4f7acfada78ed0d56a4b87927589daddcacacbca65b4","728006.299999997","517.5999999940395","77","1","arctic","","","","",""
"dual-task","null","null","null","","swim","swim","499.59999999403954","","E","null","77","77","1","arctic-dual-task","","E","uppercase","742000","0","4","73f17b57c69e2bcf884e4f7acfada78ed0d56a4b87927589daddcacacbca65b4","742009.099999994","499.59999999403954","77","1","arctic","","","","",""
"dual-task","null","null","null","","swim","swim","483.70000000298023","","R","null","77","77","1","arctic-dual-task","","R","uppercase","756000","0","4","73f17b57c69e2bcf884e4f7acfada78ed0d56a4b87927589daddcacacbca65b4","756008.099999994","483.70000000298023","77","1","arctic","","","","",""
"dual-task","null","null","null","","swim","swim","660.2000000029802","","Q","null","77","77","1","arctic-dual-task","","Q","uppercase","762000","0","4","73f17b57c69e2bcf884e4f7acfada78ed0d56a4b87927589daddcacacbca65b4","762007.200000003","660.2000000029802","77","1","arctic","","","","",""
"dual-task","null","null","null","","swim","swim","504.20000000298023","","N","null","77","77","1","arctic-dual-task","","N","uppercase","770000","0","4","73f17b57c69e2bcf884e4f7acfada78ed0d56a4b87927589daddcacacbca65b4","770009.099999994","504.20000000298023","77","1","arctic","","","","",""
"dual-task","null","null","null","","swim","swim","753.5","","G","null","77","77","1","arctic-dual-task","","G","uppercase","776000","0","4","73f17b57c69e2bcf884e4f7acfada78ed0d56a4b87927589daddcacacbca65b4","776009.299999997","753.5","77","1","arctic","","","","",""
"dual-task","null","null","null","","swim","swim","502.1000000089407","","G","null","77","77","1","arctic-dual-task","","G","uppercase","784000","0","4","73f17b57c69e2bcf884e4f7acfada78ed0d56a4b87927589daddcacacbca65b4","784009.099999994","502.1000000089407","77","1","arctic","","","","",""
"audio-keyboard-response","62","1890232","0.0-7.0-2.0-1.0","73f17b57c69e2bcf884e4f7acfada78ed0d56a4b87927589daddcacacbca65b4","swim","swim","null","","audio/story_arctic.mp3","","null","","","","","","","","","","","","","","","","","","","",""
"html-button-response","63","1892408","0.0-7.0-2.0-2.0","73f17b57c69e2bcf884e4f7acfada78ed0d56a4b87927589daddcacacbca65b4","swim","swim","2176","","<p>This concludes the story. Thank you for listening.</p><p>You will now answer some questions about the content of the story.</p>","0","","","","","","","","","","","","","","","","","","","","",""
"survey-multi-choice","64","1896434","0.0-7.0-2.0-3.0-0.0","73f17b57c69e2bcf884e4f7acfada78ed0d56a4b87927589daddcacacbca65b4","swim","swim","4025","","<b>How many sponsorships did the narrator receive to support her expedition?</b>","","","","1","arctic-comprehension","","","","","","","","","","","","","{""Q0"":""None""}","","","",""
"survey-multi-choice","65","1903586","0.0-7.0-2.0-3.0-0.1","73f17b57c69e2bcf884e4f7acfada78ed0d56a4b87927589daddcacacbca65b4","swim","swim","6900","","<b>How did the narrator prepare for her expedition?</b>","","","","1","arctic-comprehension","","","","","","","","","","","","","{""Q0"":""Trained in Alaska learning how to dogsled""}","","","",""
"survey-multi-choice","66","1911962","0.0-7.0-2.0-3.0-0.2","73f17b57c69e2bcf884e4f7acfada78ed0d56a4b87927589daddcacacbca65b4","swim","swim","8121","","<b>What was the objective of the narrator&#39;s expedition?</b>","","","","1","arctic-comprehension","","","","","","","","","","","","","{""Q0"":""Dogsled across Arctic America""}","","","",""
"survey-multi-choice","67","1916409","0.0-7.0-2.0-3.0-0.3","73f17b57c69e2bcf884e4f7acfada78ed0d56a4b87927589daddcacacbca65b4","swim","swim","4195","","<b>What did the narrator do for leisure while in her tent?</b>","","","","1","arctic-comprehension","","","","","","","","","","","","","{""Q0"":""Read""}","","","",""
"survey-multi-choice","68","1922074","0.0-7.0-2.0-3.0-0.4","73f17b57c69e2bcf884e4f7acfada78ed0d56a4b87927589daddcacacbca65b4","swim","swim","5413","","<b>Which dog on the narrator&#39;s dog team never followed instructions?</b>","","","","1","arctic-comprehension","","","","","","","","","","","","","{""Q0"":""Robert""}","","","",""
"survey-multi-choice","69","1947151","0.0-7.0-2.0-3.0-0.5","73f17b57c69e2bcf884e4f7acfada78ed0d56a4b87927589daddcacacbca65b4","swim","swim","24823","","<b>How did the dogs respond when they saw the bears?</b>","","","","1","arctic-comprehension","","","","","","","","","","","","","{""Q0"":""Approached them""}","","","",""
"survey-multi-choice","70","1955331","0.0-7.0-2.0-3.0-0.6","73f17b57c69e2bcf884e4f7acfada78ed0d56a4b87927589daddcacacbca65b4","swim","swim","7929","","<b>How did the narrator&#39;s encounter with the polar bears end?</b>","","","","1","arctic-comprehension","","","","","","","","","","","","","{""Q0"":""The bears walked back to their den.""}","","","",""
"survey-multi-choice","71","1962486","0.0-7.0-2.0-3.0-0.7","73f17b57c69e2bcf884e4f7acfada78ed0d56a4b87927589daddcacacbca65b4","swim","swim","6903","","<b>What is the name of the narrator&#39;s neighbour?</b>","","","","1","arctic-comprehension","","","","","","","","","","","","","{""Q0"":""Dave""}","","","",""
"survey-multi-choice","72","1969315","0.0-7.0-2.0-3.0-0.8","73f17b57c69e2bcf884e4f7acfada78ed0d56a4b87927589daddcacacbca65b4","swim","swim","6578","","<b>What were the weather conditions in the Arctic like the winter of the narrator&#39;s expedition?</b>","","","","1","arctic-comprehension","","","","","","","","","","","","","{""Q0"":""There were more storms than any other winter in recorded history.""}","","","",""
"survey-multi-choice","73","1980151","0.0-7.0-2.0-3.0-0.9","73f17b57c69e2bcf884e4f7acfada78ed0d56a4b87927589daddcacacbca65b4","swim","swim","10583","","<b>How did the narrator&#39;s neighbour respond when she told him about her expedition?</b>","","","","1","arctic-comprehension","","","","","","","","","","","","","{""Q0"":""He said she was going to fail.""}","","","",""
"html-button-response","74","1982570","0.0-7.0-2.0-4.0","73f17b57c69e2bcf884e4f7acfada78ed0d56a4b87927589daddcacacbca65b4","swim","swim","2167","","<p>Thank you for your responses.</p><p>You will now answer some questions about your impressions of the story.</p>","0","","","","","","","","","","","","","","","","","","","","",""
"html-button-response","75","1984450","0.0-7.0-2.0-5.0-0.0","73f17b57c69e2bcf884e4f7acfada78ed0d56a4b87927589daddcacacbca65b4","swim","swim","1880","","EE3","6","","","","arctic-engagement","","","","","","","","","","","","","","7","emo-engage","",""
"html-button-response","76","1988044","0.0-7.0-2.0-5.0-0.1","73f17b57c69e2bcf884e4f7acfada78ed0d56a4b87927589daddcacacbca65b4","swim","swim","3341","","EE1","5","","","","arctic-engagement","","","","","","","","","","","","","","6","emo-engage","",""
"html-button-response","77","1990012","0.0-7.0-2.0-5.0-0.2","73f17b57c69e2bcf884e4f7acfada78ed0d56a4b87927589daddcacacbca65b4","swim","swim","1715","","EE5","6","","","","arctic-engagement","","","","","","","","","","","","","","7","emo-engage","",""
"html-button-response","78","1991462","0.0-7.0-2.0-5.0-0.3","73f17b57c69e2bcf884e4f7acfada78ed0d56a4b87927589daddcacacbca65b4","swim","swim","1199","","A3","6","","","","arctic-engagement","","","","","","","","","","","","","","7","absorption","",""
"html-button-response","79","1993155","0.0-7.0-2.0-5.0-0.4","73f17b57c69e2bcf884e4f7acfada78ed0d56a4b87927589daddcacacbca65b4","swim","swim","1441","","E10","6","","","","arctic-engagement","","","","","","","","","","","","","","7","enjoyment","",""
"html-button-response","80","1995384","0.0-7.0-2.0-5.0-0.5","73f17b57c69e2bcf884e4f7acfada78ed0d56a4b87927589daddcacacbca65b4","swim","swim","1977","","EE4","6","","","","arctic-engagement","","","","","","","","","","","","","","7","emo-engage","",""
"html-button-response","81","1997899","0.0-7.0-2.0-5.0-0.6","73f17b57c69e2bcf884e4f7acfada78ed0d56a4b87927589daddcacacbca65b4","swim","swim","2263","","MS1","6","","","","arctic-engagement","","","","","","","","","","","","","","7","mental-sim","",""
"html-button-response","82","1999513","0.0-7.0-2.0-5.0-0.7","73f17b57c69e2bcf884e4f7acfada78ed0d56a4b87927589daddcacacbca65b4","swim","swim","1362","","E1","6","","","","arctic-engagement","","","","","","","","","","","","","","7","enjoyment","",""
"html-button-response","83","2002057","0.0-7.0-2.0-5.0-0.8","73f17b57c69e2bcf884e4f7acfada78ed0d56a4b87927589daddcacacbca65b4","swim","swim","2291","","A5","6","","","","arctic-engagement","","","","","","","","","","","","","","7","absorption","",""
"html-button-response","84","2003904","0.0-7.0-2.0-5.0-0.9","73f17b57c69e2bcf884e4f7acfada78ed0d56a4b87927589daddcacacbca65b4","swim","swim","1595","","EE2","6","","","","arctic-engagement","","","","","","","","","","","","","","7","emo-engage","",""
"html-button-response","85","2005629","0.0-7.0-2.0-5.0-0.10","73f17b57c69e2bcf884e4f7acfada78ed0d56a4b87927589daddcacacbca65b4","swim","swim","1473","","E7","6","","","","arctic-engagement","","","","","","","","","","","","","","7","enjoyment","",""
"html-button-response","86","2010173","0.0-7.0-2.0-5.0-0.11","73f17b57c69e2bcf884e4f7acfada78ed0d56a4b87927589daddcacacbca65b4","swim","swim","4293","","MS2","6","","","","arctic-engagement","","","","","","","","","","","","","","7","mental-sim","",""
"html-button-response","87","2013281","0.0-7.0-2.0-5.0-0.12","73f17b57c69e2bcf884e4f7acfada78ed0d56a4b87927589daddcacacbca65b4","swim","swim","2856","","MS3","6","","","","arctic-engagement","","","","","","","","","","","","","","7","mental-sim","",""
"html-button-response","88","2015054","0.0-7.0-2.0-5.0-0.13","73f17b57c69e2bcf884e4f7acfada78ed0d56a4b87927589daddcacacbca65b4","swim","swim","1521","","E6","6","","","","arctic-engagement","","","","","","","","","","","","","","7","enjoyment","",""
"html-button-response","89","2019375","0.0-7.0-2.0-5.0-0.14","73f17b57c69e2bcf884e4f7acfada78ed0d56a4b87927589daddcacacbca65b4","swim","swim","4068","","A1","5","","","","arctic-engagement","","","","","","","","","","","","","","6","absorption","",""
"html-button-response","90","2023225","0.0-7.0-2.0-5.0-0.15","73f17b57c69e2bcf884e4f7acfada78ed0d56a4b87927589daddcacacbca65b4","swim","swim","3598","","A4","6","","","","arctic-engagement","","","","","","","","","","","","","","7","absorption","",""
"html-button-response","91","2025470","0.0-7.0-2.0-5.0-0.16","73f17b57c69e2bcf884e4f7acfada78ed0d56a4b87927589daddcacacbca65b4","swim","swim","1992","","A2","6","","","","arctic-engagement","","","","","","","","","","","","","","7","absorption","",""
"html-button-response","92","2028067","0.0-7.0-2.0-5.0-0.17","73f17b57c69e2bcf884e4f7acfada78ed0d56a4b87927589daddcacacbca65b4","swim","swim","2346","","E8","6","","","","arctic-engagement","","","","","","","","","","","","","","7","enjoyment","",""
"html-button-response","93","2030227","0.0-8.0","73f17b57c69e2bcf884e4f7acfada78ed0d56a4b87927589daddcacacbca65b4","swim","swim","1908","","<p>Thank you for your responses.</p><p>You will now answer some demographic, hearing, and general health questions.</p>","0","","","","","","","","","","","","","","","","","","","","",""
"survey-multi-choice","94","2032831","0.0-9.0-0.0","73f17b57c69e2bcf884e4f7acfada78ed0d56a4b87927589daddcacacbca65b4","swim","swim","2603","","","","","","","survey","","","","","","","","","","","","","{""Q0"":""Chrome""}","","","browser",""
"survey-text","95","2035380","0.0-9.0-1.0","73f17b57c69e2bcf884e4f7acfada78ed0d56a4b87927589daddcacacbca65b4","swim","swim","2295.0999999940395","","","","","","","survey","","","","","","","","","","","","","{""AGE"":""34""}","","","age","34"
"survey-multi-choice","96","2037380","0.0-9.0-2.0","73f17b57c69e2bcf884e4f7acfada78ed0d56a4b87927589daddcacacbca65b4","swim","swim","1747","","","","","","","survey","","","","","","","","","","","","","{""Q0"":""Male""}","","","gender","Male"
"survey-multi-choice","97","2039643","0.0-9.0-4.0","73f17b57c69e2bcf884e4f7acfada78ed0d56a4b87927589daddcacacbca65b4","swim","swim","2009","","","","","","","survey","","","","","","","","","","","","","{""Q0"":""Right""}","","","handedness","Right"
"survey-multi-choice","98","2041687","0.0-9.0-5.0","73f17b57c69e2bcf884e4f7acfada78ed0d56a4b87927589daddcacacbca65b4","swim","swim","1792","","","","","","","survey","","","","","","","","","","","","","{""Q0"":""Bachelor's Degree""}","","","education","Bachelor's Degree"
"survey-text","99","2045442","0.0-10.0-0.0","73f17b57c69e2bcf884e4f7acfada78ed0d56a4b87927589daddcacacbca65b4","swim","swim","3502.7000000029802","","","","","","","survey","","","","","","","","","","","","","{""L1"":""English""}","","","first-language","English"
"survey-text","100","2063696","0.0-10.0-1.0","73f17b57c69e2bcf884e4f7acfada78ed0d56a4b87927589daddcacacbca65b4","swim","swim","17995.89999999106","","","","","","","survey","","","","","","","","","","","","","{""L2name"":""Cantonese"",""L2fluency"":""3"",""L3name"":"""",""L3fluency"":"""",""L4name"":"""",""L4fluency"":""""}","","","additional-languages","{""L2name"":""Cantonese"",""L2fluency"":""3"",""L3name"":"""",""L3fluency"":"""",""L4name"":"""",""L4fluency"":""""}"
"survey-multi-choice","101","2065627","0.0-10.0-2.0","73f17b57c69e2bcf884e4f7acfada78ed0d56a4b87927589daddcacacbca65b4","swim","swim","1676","","","","","","","survey","","","","","","","","","","","","","{""Q0"":""No""}","","","hearing-aid","No"
"survey-multi-choice","102","2072213","0.0-10.0-3.0","73f17b57c69e2bcf884e4f7acfada78ed0d56a4b87927589daddcacacbca65b4","swim","swim","6334","","","","","","","survey","","","","","","","","","","","","","{""Q0"":""Never""}","","","ringing-ears","Never"
"survey-multi-choice","103","2074774","0.0-10.0-5.0","73f17b57c69e2bcf884e4f7acfada78ed0d56a4b87927589daddcacacbca65b4","swim","swim","2308","","","","","","","survey","","","","","","","","","","","","","{""Q0"":""No""}","","","neuro-disease","No"
"survey-multi-choice","104","2078767","0.0-10.0-7.0","73f17b57c69e2bcf884e4f7acfada78ed0d56a4b87927589daddcacacbca65b4","swim","swim","3742","","","","","","","survey","","","","","","","","","","","","","{""Q0"":""No""}","","","take-meds","No"
"survey-text","105","2082369","0.0-10.0-9.0","73f17b57c69e2bcf884e4f7acfada78ed0d56a4b87927589daddcacacbca65b4","swim","swim","3347.4000000059605","","","","","","","survey","","","","","","","","","","","","","{""HC"":""""}","","","health-concerns",""
"html-button-response","106","2086013","0.0-11.0-0.0","73f17b57c69e2bcf884e4f7acfada78ed0d56a4b87927589daddcacacbca65b4","swim","swim","3392","","<p>How would you describe your musical skills/experiences?</p>","1","","","","survey","","","","","","","","","","","","","","","","music-skill","2"
"survey-multi-choice","107","2088832","0.0-11.0-1.0","73f17b57c69e2bcf884e4f7acfada78ed0d56a4b87927589daddcacacbca65b4","swim","swim","2567","","","","","","","survey","","","","","","","","","","","","","{""Q0"":""Yes""}","","","music-instrument","Yes"
"survey-text","108","2093577","0.0-11.0-2.0-0.0","73f17b57c69e2bcf884e4f7acfada78ed0d56a4b87927589daddcacacbca65b4","swim","swim","4491.20000000298","","","","","","","survey","","","","","","","","","","","","","{""MEXP"":""3""}","","","music-training-yrs","3"
"html-button-response","109","2097332","0.0-12.0-0.0","73f17b57c69e2bcf884e4f7acfada78ed0d56a4b87927589daddcacacbca65b4","swim","swim","3504","","<p>How would you describe your general hearing abilities?</p>","3","","","","survey","","","","","","","","","","","","","","","","ssq-01","4"
"html-button-response","110","2102762","0.0-12.0-1.0","73f17b57c69e2bcf884e4f7acfada78ed0d56a4b87927589daddcacacbca65b4","swim","swim","5179","","<p>When you talk with someone at a place that strongly reverberates/echoes (e.g., in a church or train station),</br>can you understand what the person says?</p>","7","","","","survey","","","","","","","","","","","","","","","","ssq-02","7"
"html-button-response","111","2106706","0.0-12.0-2.0","73f17b57c69e2bcf884e4f7acfada78ed0d56a4b87927589daddcacacbca65b4","swim","swim","3692","","<p>When you are with a group (~5 people) in a lively restaurant, can you follow the group's conversation?</p>","8","","","","survey","","","","","","","","","","","","","","","","ssq-03","8"
"html-button-response","112","2111837","0.0-12.0-3.0","73f17b57c69e2bcf884e4f7acfada78ed0d56a4b87927589daddcacacbca65b4","swim","swim","4879","","<p>Based on the sound of a bus or truck, can you tell whether it is moving towards or away from you?</p>","6","","","","survey","","","","","","","","","","","","","","","","ssq-04","6"
"html-button-response","113","2115925","0.0-12.0-4.0","73f17b57c69e2bcf884e4f7acfada78ed0d56a4b87927589daddcacacbca65b4","swim","swim","3835","","<p>When you are in an unknown environment, can you tell from which direction a brief sound originates?</p>","5","","","","survey","","","","","","","","","","","","","","","","ssq-05","5"
"html-button-response","114","2121057","0.0-12.0-5.0","73f17b57c69e2bcf884e4f7acfada78ed0d56a4b87927589daddcacacbca65b4","swim","swim","4879","","<p>Are you able to ignore distracting sounds when you concentrate on a specific aspect of your acoustic surrounding?</p>","7","","","","survey","","","","","","","","","","","","","","","","ssq-06","7"
"fullscreen","115","2122309","0.0-13.0","73f17b57c69e2bcf884e4f7acfada78ed0d56a4b87927589daddcacacbca65b4","swim","swim","","","","","","","","","true","","","","","","","","","","","","","","","",""
