"trial_type","trial_index","time_elapsed","internal_node_id","ParticipantID","firstStory","scramStory","rt","url","stimulus","button_pressed","key_press","correctRESP","correct","designation","success","letterStim","letterType","ONSET","TIMEOUT","CONDITION","Participant","ONSET_ACTUAL","RT","RESP","ACC","STORY","responses","response","type","surveyQuestion","QRESP"
"pavlovia","0","8","0.0-0.0","f187a20d11928979079437d14ad6dc5ae88adb1f5006ba55dea52ec78452f221","arctic","swim","","","","","","","","","","","","","","","","","","","","","","","","",""
"external-html","1","9165","0.0-1.0","f187a20d11928979079437d14ad6dc5ae88adb1f5006ba55dea52ec78452f221","arctic","swim","8926","consent/consent_updated.html","","","","","","","","","","","","","","","","","","","","","","",""
"html-button-response","2","15719","0.0-2.0-0.0","f187a20d11928979079437d14ad6dc5ae88adb1f5006ba55dea52ec78452f221","arctic","swim","6551","","<p>Before we begin the main task, you will complete a short volume calibration and headphone check.</p><p>Please make sure you are in a quiet listening environment, that you are wearing headphones, and that your computer's volume is turned on.<p></p>","0","","","","","","","","","","","","","","","","","","","","",""
"html-button-response","3","20996","0.0-2.0-1.0","f187a20d11928979079437d14ad6dc5ae88adb1f5006ba55dea52ec78452f221","arctic","swim","5026","","<p>The volume calibration will be first.</p><p>You will hear a thirty-second noise. Please adjust your computer's volume so that this noise is being presented at a comfortable level.<p></p>","0","","","","","","","","","","","","","","","","","","","","",""
"audio-button-response","4","51284","0.0-2.0-2.0","f187a20d11928979079437d14ad6dc5ae88adb1f5006ba55dea52ec78452f221","arctic","swim","null","","audio/volumetest.mp3","null","","","","","","","","","","","","","","","","","","","","",""
"html-keyboard-response","5","59316","0.0-3.0-0.0","f187a20d11928979079437d14ad6dc5ae88adb1f5006ba55dea52ec78452f221","arctic","swim","8028","","<p>You will now complete a short headphone check.</p><p>On each trial, you will hear three tones. One of these tones will be quieter than the others. Your task is to identify whether the quiet tone occurred first, second, or third.</p><p>There are six trials in total.<p></p><p></p>(Press SPACEBAR to begin)","","32","","","","","","","","","","","","","","","","","","","",""
"html-keyboard-response","6","60071","0.0-3.0-1.0-0.0","f187a20d11928979079437d14ad6dc5ae88adb1f5006ba55dea52ec78452f221","arctic","swim","null","","<div style=""font-size:60px;"">+</div>","","null","","","","","","","","","","","","","","","","","","","",""
"audio-button-response","7","64841","0.0-3.0-1.0-1.0","f187a20d11928979079437d14ad6dc5ae88adb1f5006ba55dea52ec78452f221","arctic","swim","4767","","audio/t2_2.mp3","2","","1","0","headphone-test","","","","","","","","","","","","","","","","",""
"html-keyboard-response","8","65344","0.0-3.0-1.0-2.0","f187a20d11928979079437d14ad6dc5ae88adb1f5006ba55dea52ec78452f221","arctic","swim","null","","<p>Incorrect</p>","","null","","","","","","","","","","","","","","","","","","","",""
"html-keyboard-response","9","65853","0.0-3.0-1.0-0.1","f187a20d11928979079437d14ad6dc5ae88adb1f5006ba55dea52ec78452f221","arctic","swim","null","","<div style=""font-size:60px;"">+</div>","","null","","","","","","","","","","","","","","","","","","","",""
"audio-button-response","10","71247","0.0-3.0-1.0-1.1","f187a20d11928979079437d14ad6dc5ae88adb1f5006ba55dea52ec78452f221","arctic","swim","5392","","audio/t2_1.mp3","0","","1","0","headphone-test","","","","","","","","","","","","","","","","",""
"html-keyboard-response","11","71749","0.0-3.0-1.0-2.1","f187a20d11928979079437d14ad6dc5ae88adb1f5006ba55dea52ec78452f221","arctic","swim","null","","<p>Incorrect</p>","","null","","","","","","","","","","","","","","","","","","","",""
"html-keyboard-response","12","72251","0.0-3.0-1.0-0.2","f187a20d11928979079437d14ad6dc5ae88adb1f5006ba55dea52ec78452f221","arctic","swim","null","","<div style=""font-size:60px;"">+</div>","","null","","","","","","","","","","","","","","","","","","","",""
"audio-button-response","13","77021","0.0-3.0-1.0-1.2","f187a20d11928979079437d14ad6dc5ae88adb1f5006ba55dea52ec78452f221","arctic","swim","4768","","audio/t1_1.mp3","1","","0","0","headphone-test","","","","","","","","","","","","","","","","",""
"html-keyboard-response","14","77523","0.0-3.0-1.0-2.2","f187a20d11928979079437d14ad6dc5ae88adb1f5006ba55dea52ec78452f221","arctic","swim","null","","<p>Incorrect</p>","","null","","","","","","","","","","","","","","","","","","","",""
"html-keyboard-response","15","78026","0.0-3.0-1.0-0.3","f187a20d11928979079437d14ad6dc5ae88adb1f5006ba55dea52ec78452f221","arctic","swim","null","","<div style=""font-size:60px;"">+</div>","","null","","","","","","","","","","","","","","","","","","","",""
"audio-button-response","16","82452","0.0-3.0-1.0-1.3","f187a20d11928979079437d14ad6dc5ae88adb1f5006ba55dea52ec78452f221","arctic","swim","4423","","audio/t3_2.mp3","2","","2","1","headphone-test","","","","","","","","","","","","","","","","",""
"html-keyboard-response","17","82954","0.0-3.0-1.0-2.3","f187a20d11928979079437d14ad6dc5ae88adb1f5006ba55dea52ec78452f221","arctic","swim","null","","<p>Correct</p>","","null","","","","","","","","","","","","","","","","","","","",""
"html-keyboard-response","18","83455","0.0-3.0-1.0-0.4","f187a20d11928979079437d14ad6dc5ae88adb1f5006ba55dea52ec78452f221","arctic","swim","null","","<div style=""font-size:60px;"">+</div>","","null","","","","","","","","","","","","","","","","","","","",""
"audio-button-response","19","88643","0.0-3.0-1.0-1.4","f187a20d11928979079437d14ad6dc5ae88adb1f5006ba55dea52ec78452f221","arctic","swim","5186","","audio/t1_2.mp3","0","","0","1","headphone-test","","","","","","","","","","","","","","","","",""
"html-keyboard-response","20","89145","0.0-3.0-1.0-2.4","f187a20d11928979079437d14ad6dc5ae88adb1f5006ba55dea52ec78452f221","arctic","swim","null","","<p>Correct</p>","","null","","","","","","","","","","","","","","","","","","","",""
"html-keyboard-response","21","89647","0.0-3.0-1.0-0.5","f187a20d11928979079437d14ad6dc5ae88adb1f5006ba55dea52ec78452f221","arctic","swim","null","","<div style=""font-size:60px;"">+</div>","","null","","","","","","","","","","","","","","","","","","","",""
"audio-button-response","22","95956","0.0-3.0-1.0-1.5","f187a20d11928979079437d14ad6dc5ae88adb1f5006ba55dea52ec78452f221","arctic","swim","6305","","audio/t3_1.mp3","2","","2","1","headphone-test","","","","","","","","","","","","","","","","",""
"html-keyboard-response","23","96459","0.0-3.0-1.0-2.5","f187a20d11928979079437d14ad6dc5ae88adb1f5006ba55dea52ec78452f221","arctic","swim","null","","<p>Correct</p>","","null","","","","","","","","","","","","","","","","","","","",""
"fullscreen","24","100013","0.0-4.0","f187a20d11928979079437d14ad6dc5ae88adb1f5006ba55dea52ec78452f221","arctic","swim","","","","","","","","","true","","","","","","","","","","","","","","","",""
"html-button-response","25","109345","0.0-5.0-0.0","f187a20d11928979079437d14ad6dc5ae88adb1f5006ba55dea52ec78452f221","arctic","swim","9332","","<p>There are two blocks to this experiment.</p><p>In each block, you will hear a ~13.5 minute story. One of the stories will be scrambled. Please listen carefully to both stories and understand them as best you can.</p><p>After each story, you will be asked some questions to assess your comprehension.</p>","0","","","","","","","","","","","","","","","","","","","","",""
"html-button-response","26","129769","0.0-5.0-1.0","f187a20d11928979079437d14ad6dc5ae88adb1f5006ba55dea52ec78452f221","arctic","swim","20423","","<p>During each story, there will be an additional task.</p><p>A letter will occasionally appear on the screen.</br>Your job is to - as quickly as you can - decide whether the letter is lowercase or uppercase and press one of two keys on the keyboard:</p><p>If the letter is <b>lowercase</b>, press key &lt;<b>x</b>&gt;.</p><p>If the letter is <b>uppercase</b>, press key &lt;<b>m</b>&gt;.</p>","0","","","","","","","","","","","","","","","","","","","","",""
"html-keyboard-response","27","137454","0.0-5.0-2.0","f187a20d11928979079437d14ad6dc5ae88adb1f5006ba55dea52ec78452f221","arctic","swim","7684","","<p>Because we want your responses to be as quick as possible, please keep your index fingers over the keys while listening.</p><p>Each block lasts about 20 minutes.</p><p><b>Press &lt;x&gt; or &lt;m&gt; to start the first block!</b></p>","","88","","","","","","","","","","","","","","","","","","","",""
"html-keyboard-response","28","137955","0.0-6.0-0.0-0.0","f187a20d11928979079437d14ad6dc5ae88adb1f5006ba55dea52ec78452f221","arctic","swim","null","","<div style=""font-size:60px;"" tabindex=""0"">+</div>","","null","","","","","","","","","","","","","","","","","","","",""
"dual-task","null","null","null","","arctic","swim","588.6999999880791","","T","null","77","77","1","arctic-dual-task","","T","uppercase","14000","0","3","f187a20d11928979079437d14ad6dc5ae88adb1f5006ba55dea52ec78452f221","14001.100000023842","588.6999999880791","77","1","arctic","","","","",""
"dual-task","null","null","null","","arctic","swim","516.9000000059605","","N","null","77","77","1","arctic-dual-task","","N","uppercase","28000","0","3","f187a20d11928979079437d14ad6dc5ae88adb1f5006ba55dea52ec78452f221","27999.5","516.9000000059605","77","1","arctic","","","","",""
"dual-task","null","null","null","","arctic","swim","503.09999999403954","","E","null","77","77","1","arctic-dual-task","","E","uppercase","38000","0","3","f187a20d11928979079437d14ad6dc5ae88adb1f5006ba55dea52ec78452f221","38000.10000002384","503.09999999403954","77","1","arctic","","","","",""
"dual-task","null","null","null","","arctic","swim","455.90000000596046","","T","null","77","77","1","arctic-dual-task","","T","uppercase","50000","0","3","f187a20d11928979079437d14ad6dc5ae88adb1f5006ba55dea52ec78452f221","49999.70000001788","455.90000000596046","77","1","arctic","","","","",""
"dual-task","null","null","null","","arctic","swim","445.80000001192093","","D","null","77","77","1","arctic-dual-task","","D","uppercase","58000","0","3","f187a20d11928979079437d14ad6dc5ae88adb1f5006ba55dea52ec78452f221","57999.80000001192","445.80000001192093","77","1","arctic","","","","",""
"dual-task","null","null","null","","arctic","swim","423.30000001192093","","t","null","88","88","1","arctic-dual-task","","t","lowercase","70000","0","3","f187a20d11928979079437d14ad6dc5ae88adb1f5006ba55dea52ec78452f221","69999.20000001788","423.30000001192093","88","1","arctic","","","","",""
"dual-task","null","null","null","","arctic","swim","564.8999999761581","","f","null","88","88","1","arctic-dual-task","","f","lowercase","84000","0","3","f187a20d11928979079437d14ad6dc5ae88adb1f5006ba55dea52ec78452f221","84000.10000002384","564.8999999761581","88","1","arctic","","","","",""
"dual-task","null","null","null","","arctic","swim","481.30000001192093","","q","null","88","88","1","arctic-dual-task","","q","lowercase","98000","0","3","f187a20d11928979079437d14ad6dc5ae88adb1f5006ba55dea52ec78452f221","98001.40000000596","481.30000001192093","88","1","arctic","","","","",""
"dual-task","null","null","null","","arctic","swim","488.09999999403954","","A","null","77","77","1","arctic-dual-task","","A","uppercase","112000","0","3","f187a20d11928979079437d14ad6dc5ae88adb1f5006ba55dea52ec78452f221","111999.70000001788","488.09999999403954","77","1","arctic","","","","",""
"dual-task","null","null","null","","arctic","swim","447.40000000596046","","G","null","77","77","1","arctic-dual-task","","G","uppercase","120000","0","3","f187a20d11928979079437d14ad6dc5ae88adb1f5006ba55dea52ec78452f221","119999.40000000596","447.40000000596046","77","1","arctic","","","","",""
"dual-task","null","null","null","","arctic","swim","457.5","","r","null","88","88","1","arctic-dual-task","","r","lowercase","132000","0","3","f187a20d11928979079437d14ad6dc5ae88adb1f5006ba55dea52ec78452f221","132000.10000002384","457.5","88","1","arctic","","","","",""
"dual-task","null","null","null","","arctic","swim","439.40000000596046","","D","null","77","77","1","arctic-dual-task","","D","uppercase","146000","0","3","f187a20d11928979079437d14ad6dc5ae88adb1f5006ba55dea52ec78452f221","145999.90000000596","439.40000000596046","77","1","arctic","","","","",""
"dual-task","null","null","null","","arctic","swim","538.8000000119209","","B","null","77","77","1","arctic-dual-task","","B","uppercase","154000","0","3","f187a20d11928979079437d14ad6dc5ae88adb1f5006ba55dea52ec78452f221","153999.80000001192","538.8000000119209","77","1","arctic","","","","",""
"dual-task","null","null","null","","arctic","swim","415.5","","B","null","77","77","1","arctic-dual-task","","B","uppercase","164000","0","3","f187a20d11928979079437d14ad6dc5ae88adb1f5006ba55dea52ec78452f221","163999.60000002384","415.5","77","1","arctic","","","","",""
"dual-task","null","null","null","","arctic","swim","479.7999999821186","","d","null","77","88","0","arctic-dual-task","","d","lowercase","178000","0","3","f187a20d11928979079437d14ad6dc5ae88adb1f5006ba55dea52ec78452f221","177999.70000001788","479.7999999821186","77","0","arctic","","","","",""
"dual-task","null","null","null","","arctic","swim","470.2999999821186","","a","null","88","88","1","arctic-dual-task","","a","lowercase","186000","0","3","f187a20d11928979079437d14ad6dc5ae88adb1f5006ba55dea52ec78452f221","186000","470.2999999821186","88","1","arctic","","","","",""
"dual-task","null","null","null","","arctic","swim","482.59999999403954","","a","null","88","88","1","arctic-dual-task","","a","lowercase","200000","0","3","f187a20d11928979079437d14ad6dc5ae88adb1f5006ba55dea52ec78452f221","200000.20000001788","482.59999999403954","88","1","arctic","","","","",""
"dual-task","null","null","null","","arctic","swim","475.69999998807907","","H","null","77","77","1","arctic-dual-task","","H","uppercase","212000","0","3","f187a20d11928979079437d14ad6dc5ae88adb1f5006ba55dea52ec78452f221","212000.5","475.69999998807907","77","1","arctic","","","","",""
"dual-task","null","null","null","","arctic","swim","444.90000000596046","","F","null","77","77","1","arctic-dual-task","","F","uppercase","220000","0","3","f187a20d11928979079437d14ad6dc5ae88adb1f5006ba55dea52ec78452f221","219999.90000000596","444.90000000596046","77","1","arctic","","","","",""
"dual-task","null","null","null","","arctic","swim","435.90000000596046","","N","null","88","77","0","arctic-dual-task","","N","uppercase","234000","0","3","f187a20d11928979079437d14ad6dc5ae88adb1f5006ba55dea52ec78452f221","233999.70000001788","435.90000000596046","88","0","arctic","","","","",""
"dual-task","null","null","null","","arctic","swim","408.80000001192093","","T","null","77","77","1","arctic-dual-task","","T","uppercase","246000","0","3","f187a20d11928979079437d14ad6dc5ae88adb1f5006ba55dea52ec78452f221","245999.60000002384","408.80000001192093","77","1","arctic","","","","",""
"dual-task","null","null","null","","arctic","swim","445","","f","null","77","88","0","arctic-dual-task","","f","lowercase","256000","0","3","f187a20d11928979079437d14ad6dc5ae88adb1f5006ba55dea52ec78452f221","256006.20000001788","445","77","0","arctic","","","","",""
"dual-task","null","null","null","","arctic","swim","480.2999999821186","","t","null","88","88","1","arctic-dual-task","","t","lowercase","264000","0","3","f187a20d11928979079437d14ad6dc5ae88adb1f5006ba55dea52ec78452f221","264000.10000002384","480.2999999821186","88","1","arctic","","","","",""
"dual-task","null","null","null","","arctic","swim","466","","r","null","88","88","1","arctic-dual-task","","r","lowercase","274000","0","3","f187a20d11928979079437d14ad6dc5ae88adb1f5006ba55dea52ec78452f221","274000.7000000179","466","88","1","arctic","","","","",""
"dual-task","null","null","null","","arctic","swim","481.2000000178814","","q","null","88","88","1","arctic-dual-task","","q","lowercase","286000","0","3","f187a20d11928979079437d14ad6dc5ae88adb1f5006ba55dea52ec78452f221","285999.90000000596","481.2000000178814","88","1","arctic","","","","",""
"dual-task","null","null","null","","arctic","swim","446.2999999821186","","D","null","77","77","1","arctic-dual-task","","D","uppercase","296000","0","3","f187a20d11928979079437d14ad6dc5ae88adb1f5006ba55dea52ec78452f221","296002.10000002384","446.2999999821186","77","1","arctic","","","","",""
"dual-task","null","null","null","","arctic","swim","577.7999999821186","","B","null","77","77","1","arctic-dual-task","","B","uppercase","306000","0","3","f187a20d11928979079437d14ad6dc5ae88adb1f5006ba55dea52ec78452f221","306000.10000002384","577.7999999821186","77","1","arctic","","","","",""
"dual-task","null","null","null","","arctic","swim","507.19999998807907","","n","null","88","88","1","arctic-dual-task","","n","lowercase","314000","0","3","f187a20d11928979079437d14ad6dc5ae88adb1f5006ba55dea52ec78452f221","314000.10000002384","507.19999998807907","88","1","arctic","","","","",""
"dual-task","null","null","null","","arctic","swim","572.4000000059605","","Q","null","77","77","1","arctic-dual-task","","Q","uppercase","326000","0","3","f187a20d11928979079437d14ad6dc5ae88adb1f5006ba55dea52ec78452f221","325999.7000000179","572.4000000059605","77","1","arctic","","","","",""
"dual-task","null","null","null","","arctic","swim","565.0999999940395","","b","null","88","88","1","arctic-dual-task","","b","lowercase","334000","0","3","f187a20d11928979079437d14ad6dc5ae88adb1f5006ba55dea52ec78452f221","334000.60000002384","565.0999999940395","88","1","arctic","","","","",""
"dual-task","null","null","null","","arctic","swim","598.8000000119209","","T","null","77","77","1","arctic-dual-task","","T","uppercase","346000","0","3","f187a20d11928979079437d14ad6dc5ae88adb1f5006ba55dea52ec78452f221","346001","598.8000000119209","77","1","arctic","","","","",""
"dual-task","null","null","null","","arctic","swim","375","","H","null","77","77","1","arctic-dual-task","","H","uppercase","356000","0","3","f187a20d11928979079437d14ad6dc5ae88adb1f5006ba55dea52ec78452f221","355999.7000000179","375","77","1","arctic","","","","",""
"dual-task","null","null","null","","arctic","swim","475.09999999403954","","e","null","88","88","1","arctic-dual-task","","e","lowercase","366000","0","3","f187a20d11928979079437d14ad6dc5ae88adb1f5006ba55dea52ec78452f221","365999.8000000119","475.09999999403954","88","1","arctic","","","","",""
"dual-task","null","null","null","","arctic","swim","545.7000000178814","","f","null","88","88","1","arctic-dual-task","","f","lowercase","376000","0","3","f187a20d11928979079437d14ad6dc5ae88adb1f5006ba55dea52ec78452f221","376000.90000000596","545.7000000178814","88","1","arctic","","","","",""
"dual-task","null","null","null","","arctic","swim","427.69999998807907","","g","null","88","88","1","arctic-dual-task","","g","lowercase","386000","0","3","f187a20d11928979079437d14ad6dc5ae88adb1f5006ba55dea52ec78452f221","386000.5","427.69999998807907","88","1","arctic","","","","",""
"dual-task","null","null","null","","arctic","swim","432","","A","null","77","77","1","arctic-dual-task","","A","uppercase","398000","0","3","f187a20d11928979079437d14ad6dc5ae88adb1f5006ba55dea52ec78452f221","398000.2000000179","432","77","1","arctic","","","","",""
"dual-task","null","null","null","","arctic","swim","505.19999998807907","","R","null","77","77","1","arctic-dual-task","","R","uppercase","404000","0","3","f187a20d11928979079437d14ad6dc5ae88adb1f5006ba55dea52ec78452f221","404000.60000002384","505.19999998807907","77","1","arctic","","","","",""
"dual-task","null","null","null","","arctic","swim","448.2999999821186","","h","null","88","88","1","arctic-dual-task","","h","lowercase","418000","0","3","f187a20d11928979079437d14ad6dc5ae88adb1f5006ba55dea52ec78452f221","418000.5","448.2999999821186","88","1","arctic","","","","",""
"dual-task","null","null","null","","arctic","swim","532.8000000119209","","G","null","77","77","1","arctic-dual-task","","G","uppercase","424000","0","3","f187a20d11928979079437d14ad6dc5ae88adb1f5006ba55dea52ec78452f221","424000.90000000596","532.8000000119209","77","1","arctic","","","","",""
"dual-task","null","null","null","","arctic","swim","442.7000000178814","","D","null","77","77","1","arctic-dual-task","","D","uppercase","436000","0","3","f187a20d11928979079437d14ad6dc5ae88adb1f5006ba55dea52ec78452f221","436000.40000000596","442.7000000178814","77","1","arctic","","","","",""
"dual-task","null","null","null","","arctic","swim","419","","Q","null","77","77","1","arctic-dual-task","","Q","uppercase","446000","0","3","f187a20d11928979079437d14ad6dc5ae88adb1f5006ba55dea52ec78452f221","446001.40000000596","419","77","1","arctic","","","","",""
"dual-task","null","null","null","","arctic","swim","600.3999999761581","","H","null","77","77","1","arctic-dual-task","","H","uppercase","452000","0","3","f187a20d11928979079437d14ad6dc5ae88adb1f5006ba55dea52ec78452f221","452000.5","600.3999999761581","77","1","arctic","","","","",""
"dual-task","null","null","null","","arctic","swim","526.5","","q","null","88","88","1","arctic-dual-task","","q","lowercase","460000","0","3","f187a20d11928979079437d14ad6dc5ae88adb1f5006ba55dea52ec78452f221","459999.8000000119","526.5","88","1","arctic","","","","",""
"dual-task","null","null","null","","arctic","swim","645.3000000119209","","A","null","77","77","1","arctic-dual-task","","A","uppercase","468000","0","3","f187a20d11928979079437d14ad6dc5ae88adb1f5006ba55dea52ec78452f221","468000.40000000596","645.3000000119209","77","1","arctic","","","","",""
"dual-task","null","null","null","","arctic","swim","627.6999999880791","","E","null","77","77","1","arctic-dual-task","","E","uppercase","474000","0","3","f187a20d11928979079437d14ad6dc5ae88adb1f5006ba55dea52ec78452f221","473999.7000000179","627.6999999880791","77","1","arctic","","","","",""
"dual-task","null","null","null","","arctic","swim","393.19999998807907","","t","null","88","88","1","arctic-dual-task","","t","lowercase","484000","0","3","f187a20d11928979079437d14ad6dc5ae88adb1f5006ba55dea52ec78452f221","484000.7000000179","393.19999998807907","88","1","arctic","","","","",""
"dual-task","null","null","null","","arctic","swim","424.69999998807907","","G","null","77","77","1","arctic-dual-task","","G","uppercase","498000","0","3","f187a20d11928979079437d14ad6dc5ae88adb1f5006ba55dea52ec78452f221","498000.3000000119","424.69999998807907","77","1","arctic","","","","",""
"dual-task","null","null","null","","arctic","swim","610.3000000119209","","R","null","77","77","1","arctic-dual-task","","R","uppercase","504000","0","3","f187a20d11928979079437d14ad6dc5ae88adb1f5006ba55dea52ec78452f221","504000.3000000119","610.3000000119209","77","1","arctic","","","","",""
"dual-task","null","null","null","","arctic","swim","493.09999999403954","","d","null","88","88","1","arctic-dual-task","","d","lowercase","512000","0","3","f187a20d11928979079437d14ad6dc5ae88adb1f5006ba55dea52ec78452f221","512000.60000002384","493.09999999403954","88","1","arctic","","","","",""
"dual-task","null","null","null","","arctic","swim","486.80000001192093","","f","null","88","88","1","arctic-dual-task","","f","lowercase","518000","0","3","f187a20d11928979079437d14ad6dc5ae88adb1f5006ba55dea52ec78452f221","518000.3000000119","486.80000001192093","88","1","arctic","","","","",""
"dual-task","null","null","null","","arctic","swim","444.69999998807907","","t","null","88","88","1","arctic-dual-task","","t","lowercase","528000","0","3","f187a20d11928979079437d14ad6dc5ae88adb1f5006ba55dea52ec78452f221","528001.6000000238","444.69999998807907","88","1","arctic","","","","",""
"dual-task","null","null","null","","arctic","swim","420.80000001192093","","N","null","77","77","1","arctic-dual-task","","N","uppercase","536000","0","3","f187a20d11928979079437d14ad6dc5ae88adb1f5006ba55dea52ec78452f221","536000.1000000238","420.80000001192093","77","1","arctic","","","","",""
"dual-task","null","null","null","","arctic","swim","455.40000000596046","","E","null","77","77","1","arctic-dual-task","","E","uppercase","548000","0","3","f187a20d11928979079437d14ad6dc5ae88adb1f5006ba55dea52ec78452f221","548000.5","455.40000000596046","77","1","arctic","","","","",""
"dual-task","null","null","null","","arctic","swim","699.3999999761581","","b","null","88","88","1","arctic-dual-task","","b","lowercase","556000","0","3","f187a20d11928979079437d14ad6dc5ae88adb1f5006ba55dea52ec78452f221","556001","699.3999999761581","88","1","arctic","","","","",""
"dual-task","null","null","null","","arctic","swim","422.30000001192093","","A","null","77","77","1","arctic-dual-task","","A","uppercase","568000","0","3","f187a20d11928979079437d14ad6dc5ae88adb1f5006ba55dea52ec78452f221","568012.900000006","422.30000001192093","77","1","arctic","","","","",""
"dual-task","null","null","null","","arctic","swim","756.1999999880791","","d","null","88","88","1","arctic-dual-task","","d","lowercase","576000","0","3","f187a20d11928979079437d14ad6dc5ae88adb1f5006ba55dea52ec78452f221","576000","756.1999999880791","88","1","arctic","","","","",""
"dual-task","null","null","null","","arctic","swim","518.7999999821186","","b","null","88","88","1","arctic-dual-task","","b","lowercase","584000","0","3","f187a20d11928979079437d14ad6dc5ae88adb1f5006ba55dea52ec78452f221","584000.5","518.7999999821186","88","1","arctic","","","","",""
"dual-task","null","null","null","","arctic","swim","503.09999999403954","","H","null","77","77","1","arctic-dual-task","","H","uppercase","592000","0","3","f187a20d11928979079437d14ad6dc5ae88adb1f5006ba55dea52ec78452f221","592006","503.09999999403954","77","1","arctic","","","","",""
"dual-task","null","null","null","","arctic","swim","533.7000000178814","","F","null","77","77","1","arctic-dual-task","","F","uppercase","600000","0","3","f187a20d11928979079437d14ad6dc5ae88adb1f5006ba55dea52ec78452f221","600000.8000000119","533.7000000178814","77","1","arctic","","","","",""
"dual-task","null","null","null","","arctic","swim","518.7999999821186","","n","null","88","88","1","arctic-dual-task","","n","lowercase","614000","0","3","f187a20d11928979079437d14ad6dc5ae88adb1f5006ba55dea52ec78452f221","614000","518.7999999821186","88","1","arctic","","","","",""
"dual-task","null","null","null","","arctic","swim","530.6999999880791","","r","null","88","88","1","arctic-dual-task","","r","lowercase","622000","0","3","f187a20d11928979079437d14ad6dc5ae88adb1f5006ba55dea52ec78452f221","622000.5","530.6999999880791","88","1","arctic","","","","",""
"dual-task","null","null","null","","arctic","swim","561.7000000178814","","h","null","88","88","1","arctic-dual-task","","h","lowercase","628000","0","3","f187a20d11928979079437d14ad6dc5ae88adb1f5006ba55dea52ec78452f221","628001.400000006","561.7000000178814","88","1","arctic","","","","",""
"dual-task","null","null","null","","arctic","swim","469.09999999403954","","h","null","88","88","1","arctic-dual-task","","h","lowercase","636000","0","3","f187a20d11928979079437d14ad6dc5ae88adb1f5006ba55dea52ec78452f221","636000.6000000238","469.09999999403954","88","1","arctic","","","","",""
"dual-task","null","null","null","","arctic","swim","500.60000002384186","","R","null","77","77","1","arctic-dual-task","","R","uppercase","642000","0","3","f187a20d11928979079437d14ad6dc5ae88adb1f5006ba55dea52ec78452f221","642001.3000000119","500.60000002384186","77","1","arctic","","","","",""
"dual-task","null","null","null","","arctic","swim","687.5","","b","null","88","88","1","arctic-dual-task","","b","lowercase","650000","0","3","f187a20d11928979079437d14ad6dc5ae88adb1f5006ba55dea52ec78452f221","650000.8000000119","687.5","88","1","arctic","","","","",""
"dual-task","null","null","null","","arctic","swim","345.2999999821186","","R","null","77","77","1","arctic-dual-task","","R","uppercase","662000","0","3","f187a20d11928979079437d14ad6dc5ae88adb1f5006ba55dea52ec78452f221","662000.400000006","345.2999999821186","77","1","arctic","","","","",""
"dual-task","null","null","null","","arctic","swim","447.09999999403954","","n","null","88","88","1","arctic-dual-task","","n","lowercase","668000","0","3","f187a20d11928979079437d14ad6dc5ae88adb1f5006ba55dea52ec78452f221","668001.7000000179","447.09999999403954","88","1","arctic","","","","",""
"dual-task","null","null","null","","arctic","swim","470.2000000178814","","E","null","77","77","1","arctic-dual-task","","E","uppercase","674000","0","3","f187a20d11928979079437d14ad6dc5ae88adb1f5006ba55dea52ec78452f221","674000.900000006","470.2000000178814","77","1","arctic","","","","",""
"dual-task","null","null","null","","arctic","swim","455.7000000178814","","N","null","77","77","1","arctic-dual-task","","N","uppercase","682000","0","3","f187a20d11928979079437d14ad6dc5ae88adb1f5006ba55dea52ec78452f221","682001.400000006","455.7000000178814","77","1","arctic","","","","",""
"dual-task","null","null","null","","arctic","swim","447.09999999403954","","a","null","88","88","1","arctic-dual-task","","a","lowercase","696000","0","3","f187a20d11928979079437d14ad6dc5ae88adb1f5006ba55dea52ec78452f221","696000.5","447.09999999403954","88","1","arctic","","","","",""
"dual-task","null","null","null","","arctic","swim","567.0999999940395","","q","null","88","88","1","arctic-dual-task","","q","lowercase","704000","0","3","f187a20d11928979079437d14ad6dc5ae88adb1f5006ba55dea52ec78452f221","704000.3000000119","567.0999999940395","88","1","arctic","","","","",""
"dual-task","null","null","null","","arctic","swim","475.30000001192093","","B","null","77","77","1","arctic-dual-task","","B","uppercase","710000","0","3","f187a20d11928979079437d14ad6dc5ae88adb1f5006ba55dea52ec78452f221","710001.1000000238","475.30000001192093","77","1","arctic","","","","",""
"dual-task","null","null","null","","arctic","swim","476.80000001192093","","e","null","88","88","1","arctic-dual-task","","e","lowercase","722000","0","3","f187a20d11928979079437d14ad6dc5ae88adb1f5006ba55dea52ec78452f221","722001.3000000119","476.80000001192093","88","1","arctic","","","","",""
"dual-task","null","null","null","","arctic","swim","420.90000000596046","","Q","null","77","77","1","arctic-dual-task","","Q","uppercase","730000","0","3","f187a20d11928979079437d14ad6dc5ae88adb1f5006ba55dea52ec78452f221","730001.3000000119","420.90000000596046","77","1","arctic","","","","",""
"dual-task","null","null","null","","arctic","swim","477.5","","G","null","77","77","1","arctic-dual-task","","G","uppercase","740000","0","3","f187a20d11928979079437d14ad6dc5ae88adb1f5006ba55dea52ec78452f221","740001.400000006","477.5","77","1","arctic","","","","",""
"dual-task","null","null","null","","arctic","swim","469.10000002384186","","F","null","77","77","1","arctic-dual-task","","F","uppercase","750000","0","3","f187a20d11928979079437d14ad6dc5ae88adb1f5006ba55dea52ec78452f221","750000.3000000119","469.10000002384186","77","1","arctic","","","","",""
"dual-task","null","null","null","","arctic","swim","499.59999999403954","","d","null","88","88","1","arctic-dual-task","","d","lowercase","758000","0","3","f187a20d11928979079437d14ad6dc5ae88adb1f5006ba55dea52ec78452f221","758000.7000000179","499.59999999403954","88","1","arctic","","","","",""
"dual-task","null","null","null","","arctic","swim","454.40000000596046","","Q","null","77","77","1","arctic-dual-task","","Q","uppercase","772000","0","3","f187a20d11928979079437d14ad6dc5ae88adb1f5006ba55dea52ec78452f221","772000.400000006","454.40000000596046","77","1","arctic","","","","",""
"dual-task","null","null","null","","arctic","swim","438.59999999403954","","a","null","88","88","1","arctic-dual-task","","a","lowercase","782000","0","3","f187a20d11928979079437d14ad6dc5ae88adb1f5006ba55dea52ec78452f221","782000.2000000179","438.59999999403954","88","1","arctic","","","","",""
"audio-keyboard-response","29","936036","0.0-6.0-0.0-1.0","f187a20d11928979079437d14ad6dc5ae88adb1f5006ba55dea52ec78452f221","arctic","swim","null","","audio/story_arctic.mp3","","null","","","","","","","","","","","","","","","","","","","",""
"html-button-response","30","939471","0.0-6.0-0.0-2.0","f187a20d11928979079437d14ad6dc5ae88adb1f5006ba55dea52ec78452f221","arctic","swim","3428","","<p>This concludes the story. Thank you for listening.</p><p>You will now answer some questions about the content of the story.</p>","0","","","","","","","","","","","","","","","","","","","","",""
"survey-multi-choice","31","949129","0.0-6.0-0.0-3.0-0.0","f187a20d11928979079437d14ad6dc5ae88adb1f5006ba55dea52ec78452f221","arctic","swim","9655","","<b>How did the narrator&#39;s neighbour respond when she told him about her expedition?</b>","","","","1","arctic-comprehension","","","","","","","","","","","","","{""Q0"":""He said she was going to fail.""}","","","",""
"survey-multi-choice","32","955285","0.0-6.0-0.0-3.0-0.1","f187a20d11928979079437d14ad6dc5ae88adb1f5006ba55dea52ec78452f221","arctic","swim","5900","","<b>Which dog on the narrator&#39;s dog team never followed instructions?</b>","","","","1","arctic-comprehension","","","","","","","","","","","","","{""Q0"":""Robert""}","","","",""
"survey-multi-choice","33","959859","0.0-6.0-0.0-3.0-0.2","f187a20d11928979079437d14ad6dc5ae88adb1f5006ba55dea52ec78452f221","arctic","swim","4318","","<b>What did the narrator do for leisure while in her tent?</b>","","","","1","arctic-comprehension","","","","","","","","","","","","","{""Q0"":""Read""}","","","",""
"survey-multi-choice","34","970545","0.0-6.0-0.0-3.0-0.3","f187a20d11928979079437d14ad6dc5ae88adb1f5006ba55dea52ec78452f221","arctic","swim","10426","","<b>How did the narrator prepare for her expedition?</b>","","","","1","arctic-comprehension","","","","","","","","","","","","","{""Q0"":""Trained in Alaska learning how to dogsled""}","","","",""
"survey-multi-choice","35","977086","0.0-6.0-0.0-3.0-0.4","f187a20d11928979079437d14ad6dc5ae88adb1f5006ba55dea52ec78452f221","arctic","swim","6287","","<b>How many sponsorships did the narrator receive to support her expedition?</b>","","","","1","arctic-comprehension","","","","","","","","","","","","","{""Q0"":""None""}","","","",""
"survey-multi-choice","36","984082","0.0-6.0-0.0-3.0-0.5","f187a20d11928979079437d14ad6dc5ae88adb1f5006ba55dea52ec78452f221","arctic","swim","6741","","<b>How did the narrator&#39;s encounter with the polar bears end?</b>","","","","1","arctic-comprehension","","","","","","","","","","","","","{""Q0"":""The bears walked back to their den.""}","","","",""
"survey-multi-choice","37","994769","0.0-6.0-0.0-3.0-0.6","f187a20d11928979079437d14ad6dc5ae88adb1f5006ba55dea52ec78452f221","arctic","swim","10430","","<b>How did the dogs respond when they saw the bears?</b>","","","","1","arctic-comprehension","","","","","","","","","","","","","{""Q0"":""Approached them""}","","","",""
"survey-multi-choice","38","1001951","0.0-6.0-0.0-3.0-0.7","f187a20d11928979079437d14ad6dc5ae88adb1f5006ba55dea52ec78452f221","arctic","swim","6924","","<b>What were the weather conditions in the Arctic like the winter of the narrator&#39;s expedition?</b>","","","","1","arctic-comprehension","","","","","","","","","","","","","{""Q0"":""There were more storms than any other winter in recorded history.""}","","","",""
"survey-multi-choice","39","1009263","0.0-6.0-0.0-3.0-0.8","f187a20d11928979079437d14ad6dc5ae88adb1f5006ba55dea52ec78452f221","arctic","swim","7054","","<b>What was the objective of the narrator&#39;s expedition?</b>","","","","1","arctic-comprehension","","","","","","","","","","","","","{""Q0"":""Dogsled across Arctic America""}","","","",""
"survey-multi-choice","40","1015919","0.0-6.0-0.0-3.0-0.9","f187a20d11928979079437d14ad6dc5ae88adb1f5006ba55dea52ec78452f221","arctic","swim","6397","","<b>What is the name of the narrator&#39;s neighbour?</b>","","","","1","arctic-comprehension","","","","","","","","","","","","","{""Q0"":""Dave""}","","","",""
"html-button-response","41","1017885","0.0-6.0-0.0-4.0","f187a20d11928979079437d14ad6dc5ae88adb1f5006ba55dea52ec78452f221","arctic","swim","1713","","<p>Thank you for your responses.</p><p>You will now answer some questions about your impressions of the story.</p>","0","","","","","","","","","","","","","","","","","","","","",""
"html-button-response","42","1023548","0.0-6.0-0.0-5.0-0.0","f187a20d11928979079437d14ad6dc5ae88adb1f5006ba55dea52ec78452f221","arctic","swim","5661","","MS2","4","","","","arctic-engagement","","","","","","","","","","","","","","5","mental-sim","",""
"html-button-response","43","1027218","0.0-6.0-0.0-5.0-0.1","f187a20d11928979079437d14ad6dc5ae88adb1f5006ba55dea52ec78452f221","arctic","swim","3416","","EE1","5","","","","arctic-engagement","","","","","","","","","","","","","","6","emo-engage","",""
"html-button-response","44","1030326","0.0-6.0-0.0-5.0-0.2","f187a20d11928979079437d14ad6dc5ae88adb1f5006ba55dea52ec78452f221","arctic","swim","2855","","MS1","5","","","","arctic-engagement","","","","","","","","","","","","","","6","mental-sim","",""
"html-button-response","45","1032958","0.0-6.0-0.0-5.0-0.3","f187a20d11928979079437d14ad6dc5ae88adb1f5006ba55dea52ec78452f221","arctic","swim","2379","","E8","4","","","","arctic-engagement","","","","","","","","","","","","","","5","enjoyment","",""
"html-button-response","46","1035705","0.0-6.0-0.0-5.0-0.4","f187a20d11928979079437d14ad6dc5ae88adb1f5006ba55dea52ec78452f221","arctic","swim","2492","","EE3","5","","","","arctic-engagement","","","","","","","","","","","","","","6","emo-engage","",""
"html-button-response","47","1039390","0.0-6.0-0.0-5.0-0.5","f187a20d11928979079437d14ad6dc5ae88adb1f5006ba55dea52ec78452f221","arctic","swim","3431","","A1","2","","","","arctic-engagement","","","","","","","","","","","","","","3","absorption","",""
"html-button-response","48","1043961","0.0-6.0-0.0-5.0-0.6","f187a20d11928979079437d14ad6dc5ae88adb1f5006ba55dea52ec78452f221","arctic","swim","4316","","A4","3","","","","arctic-engagement","","","","","","","","","","","","","","4","absorption","",""
"html-button-response","49","1046865","0.0-6.0-0.0-5.0-0.7","f187a20d11928979079437d14ad6dc5ae88adb1f5006ba55dea52ec78452f221","arctic","swim","2649","","A2","5","","","","arctic-engagement","","","","","","","","","","","","","","6","absorption","",""
"html-button-response","50","1049379","0.0-6.0-0.0-5.0-0.8","f187a20d11928979079437d14ad6dc5ae88adb1f5006ba55dea52ec78452f221","arctic","swim","2262","","EE2","4","","","","arctic-engagement","","","","","","","","","","","","","","5","emo-engage","",""
"html-button-response","51","1051957","0.0-6.0-0.0-5.0-0.9","f187a20d11928979079437d14ad6dc5ae88adb1f5006ba55dea52ec78452f221","arctic","swim","2325","","E6","6","","","","arctic-engagement","","","","","","","","","","","","","","7","enjoyment","",""
"html-button-response","52","1054409","0.0-6.0-0.0-5.0-0.10","f187a20d11928979079437d14ad6dc5ae88adb1f5006ba55dea52ec78452f221","arctic","swim","2199","","E10","5","","","","arctic-engagement","","","","","","","","","","","","","","6","enjoyment","",""
"html-button-response","53","1057629","0.0-6.0-0.0-5.0-0.11","f187a20d11928979079437d14ad6dc5ae88adb1f5006ba55dea52ec78452f221","arctic","swim","2969","","EE4","5","","","","arctic-engagement","","","","","","","","","","","","","","6","emo-engage","",""
"html-button-response","54","1061064","0.0-6.0-0.0-5.0-0.12","f187a20d11928979079437d14ad6dc5ae88adb1f5006ba55dea52ec78452f221","arctic","swim","3181","","MS3","6","","","","arctic-engagement","","","","","","","","","","","","","","7","mental-sim","",""
"html-button-response","55","1063170","0.0-6.0-0.0-5.0-0.13","f187a20d11928979079437d14ad6dc5ae88adb1f5006ba55dea52ec78452f221","arctic","swim","1852","","A3","5","","","","arctic-engagement","","","","","","","","","","","","","","6","absorption","",""
"html-button-response","56","1064851","0.0-6.0-0.0-5.0-0.14","f187a20d11928979079437d14ad6dc5ae88adb1f5006ba55dea52ec78452f221","arctic","swim","1428","","E1","5","","","","arctic-engagement","","","","","","","","","","","","","","6","enjoyment","",""
"html-button-response","57","1066701","0.0-6.0-0.0-5.0-0.15","f187a20d11928979079437d14ad6dc5ae88adb1f5006ba55dea52ec78452f221","arctic","swim","1597","","E7","6","","","","arctic-engagement","","","","","","","","","","","","","","7","enjoyment","",""
"html-button-response","58","1070476","0.0-6.0-0.0-5.0-0.16","f187a20d11928979079437d14ad6dc5ae88adb1f5006ba55dea52ec78452f221","arctic","swim","3522","","A5","4","","","","arctic-engagement","","","","","","","","","","","","","","5","absorption","",""
"html-button-response","59","1075839","0.0-6.0-0.0-5.0-0.17","f187a20d11928979079437d14ad6dc5ae88adb1f5006ba55dea52ec78452f221","arctic","swim","5108","","EE5","5","","","","arctic-engagement","","","","","","","","","","","","","","6","emo-engage","",""
"html-keyboard-response","60","1160465","0.0-6.0-1.0","f187a20d11928979079437d14ad6dc5ae88adb1f5006ba55dea52ec78452f221","arctic","swim","84373","","<p>Thank you for your responses. You will now listen to the second story.</p><p>Remember, as you listen to the story you will see letters appear on the screen.</br>As quickly as possible, press <b>&lt;x&gt;</b> if the letter is lowercase and <b>&lt;m&gt;</b> if the letter is uppercase.</p><p>Press <b>&lt;x&gt;</b> or <b>&lt;m&gt;</b> to begin listening!</p>","","88","","","","","","","","","","","","","","","","","","","",""
"html-keyboard-response","61","1160968","0.0-6.0-2.0-0.0","f187a20d11928979079437d14ad6dc5ae88adb1f5006ba55dea52ec78452f221","arctic","swim","null","","<div style=""font-size:60px;"" tabindex=""0"">+</div>","","null","","","","","","","","","","","","","","","","","","","",""
"dual-task","null","null","null","","arctic","swim","539.5999999940395","","h","null","88","88","1","swim-dual-task","","h","lowercase","14000","0","3","f187a20d11928979079437d14ad6dc5ae88adb1f5006ba55dea52ec78452f221","13999.5","539.5999999940395","88","1","swim","","","","",""
"dual-task","null","null","null","","arctic","swim","466","","e","null","88","88","1","swim-dual-task","","e","lowercase","20000","0","3","f187a20d11928979079437d14ad6dc5ae88adb1f5006ba55dea52ec78452f221","19999.09999999404","466","88","1","swim","","","","",""
"dual-task","null","null","null","","arctic","swim","413.30000001192093","","B","null","77","77","1","swim-dual-task","","B","uppercase","32000","0","3","f187a20d11928979079437d14ad6dc5ae88adb1f5006ba55dea52ec78452f221","31998.80000001192","413.30000001192093","77","1","swim","","","","",""
"dual-task","null","null","null","","arctic","swim","505.10000002384186","","A","null","77","77","1","swim-dual-task","","A","uppercase","44000","0","3","f187a20d11928979079437d14ad6dc5ae88adb1f5006ba55dea52ec78452f221","43999.40000000596","505.10000002384186","77","1","swim","","","","",""
"dual-task","null","null","null","","arctic","swim","479.19999998807907","","h","null","88","88","1","swim-dual-task","","h","lowercase","56000","0","3","f187a20d11928979079437d14ad6dc5ae88adb1f5006ba55dea52ec78452f221","55999.09999999404","479.19999998807907","88","1","swim","","","","",""
"dual-task","null","null","null","","arctic","swim","591.5","","n","null","88","88","1","swim-dual-task","","n","lowercase","66000","0","3","f187a20d11928979079437d14ad6dc5ae88adb1f5006ba55dea52ec78452f221","65998.59999999404","591.5","88","1","swim","","","","",""
"dual-task","null","null","null","","arctic","swim","445.7999999821186","","D","null","77","77","1","swim-dual-task","","D","uppercase","80000","0","3","f187a20d11928979079437d14ad6dc5ae88adb1f5006ba55dea52ec78452f221","79999.5","445.7999999821186","77","1","swim","","","","",""
"dual-task","null","null","null","","arctic","swim","450.2999999821186","","e","null","88","88","1","swim-dual-task","","e","lowercase","88000","0","3","f187a20d11928979079437d14ad6dc5ae88adb1f5006ba55dea52ec78452f221","87999.20000001788","450.2999999821186","88","1","swim","","","","",""
"dual-task","null","null","null","","arctic","swim","520","","b","null","88","88","1","swim-dual-task","","b","lowercase","96000","0","3","f187a20d11928979079437d14ad6dc5ae88adb1f5006ba55dea52ec78452f221","95999.40000000596","520","88","1","swim","","","","",""
"dual-task","null","null","null","","arctic","swim","493.7999999821186","","a","null","88","88","1","swim-dual-task","","a","lowercase","106000","0","3","f187a20d11928979079437d14ad6dc5ae88adb1f5006ba55dea52ec78452f221","106000.20000001788","493.7999999821186","88","1","swim","","","","",""
"dual-task","null","null","null","","arctic","swim","456.80000001192093","","R","null","77","77","1","swim-dual-task","","R","uppercase","112000","0","3","f187a20d11928979079437d14ad6dc5ae88adb1f5006ba55dea52ec78452f221","111999.5","456.80000001192093","77","1","swim","","","","",""
"dual-task","null","null","null","","arctic","swim","407.5","","r","null","88","88","1","swim-dual-task","","r","lowercase","120000","0","3","f187a20d11928979079437d14ad6dc5ae88adb1f5006ba55dea52ec78452f221","119999.59999999404","407.5","88","1","swim","","","","",""
"dual-task","null","null","null","","arctic","swim","481.80000001192093","","d","null","88","88","1","swim-dual-task","","d","lowercase","134000","0","3","f187a20d11928979079437d14ad6dc5ae88adb1f5006ba55dea52ec78452f221","133998.80000001192","481.80000001192093","88","1","swim","","","","",""
"dual-task","null","null","null","","arctic","swim","453.2000000178814","","E","null","77","77","1","swim-dual-task","","E","uppercase","144000","0","3","f187a20d11928979079437d14ad6dc5ae88adb1f5006ba55dea52ec78452f221","144000.20000001788","453.2000000178814","77","1","swim","","","","",""
"dual-task","null","null","null","","arctic","swim","455.7000000178814","","r","null","88","88","1","swim-dual-task","","r","lowercase","152000","0","3","f187a20d11928979079437d14ad6dc5ae88adb1f5006ba55dea52ec78452f221","151999.5","455.7000000178814","88","1","swim","","","","",""
"dual-task","null","null","null","","arctic","swim","419.40000000596046","","D","null","77","77","1","swim-dual-task","","D","uppercase","164000","0","3","f187a20d11928979079437d14ad6dc5ae88adb1f5006ba55dea52ec78452f221","164000.40000000596","419.40000000596046","77","1","swim","","","","",""
"dual-task","null","null","null","","arctic","swim","414.2000000178814","","e","null","88","88","1","swim-dual-task","","e","lowercase","176000","0","3","f187a20d11928979079437d14ad6dc5ae88adb1f5006ba55dea52ec78452f221","176006","414.2000000178814","88","1","swim","","","","",""
"dual-task","null","null","null","","arctic","swim","531.5999999940395","","a","null","88","88","1","swim-dual-task","","a","lowercase","188000","0","3","f187a20d11928979079437d14ad6dc5ae88adb1f5006ba55dea52ec78452f221","188000.30000001192","531.5999999940395","88","1","swim","","","","",""
"dual-task","null","null","null","","arctic","swim","418.09999999403954","","f","null","88","88","1","swim-dual-task","","f","lowercase","198000","0","3","f187a20d11928979079437d14ad6dc5ae88adb1f5006ba55dea52ec78452f221","197999.70000001788","418.09999999403954","88","1","swim","","","","",""
"dual-task","null","null","null","","arctic","swim","449.80000001192093","","b","null","88","88","1","swim-dual-task","","b","lowercase","208000","0","3","f187a20d11928979079437d14ad6dc5ae88adb1f5006ba55dea52ec78452f221","208000.09999999404","449.80000001192093","88","1","swim","","","","",""
"dual-task","null","null","null","","arctic","swim","459.09999999403954","","T","null","77","77","1","swim-dual-task","","T","uppercase","218000","0","3","f187a20d11928979079437d14ad6dc5ae88adb1f5006ba55dea52ec78452f221","218000.40000000596","459.09999999403954","77","1","swim","","","","",""
"dual-task","null","null","null","","arctic","swim","501.19999998807907","","A","null","77","77","1","swim-dual-task","","A","uppercase","228000","0","3","f187a20d11928979079437d14ad6dc5ae88adb1f5006ba55dea52ec78452f221","228000.20000001788","501.19999998807907","77","1","swim","","","","",""
"dual-task","null","null","null","","arctic","swim","494.40000000596046","","b","null","88","88","1","swim-dual-task","","b","lowercase","240000","0","3","f187a20d11928979079437d14ad6dc5ae88adb1f5006ba55dea52ec78452f221","240000.70000001788","494.40000000596046","88","1","swim","","","","",""
"dual-task","null","null","null","","arctic","swim","491.69999998807907","","n","null","88","88","1","swim-dual-task","","n","lowercase","252000","0","3","f187a20d11928979079437d14ad6dc5ae88adb1f5006ba55dea52ec78452f221","251999.20000001788","491.69999998807907","88","1","swim","","","","",""
"dual-task","null","null","null","","arctic","swim","424.60000002384186","","q","null","88","88","1","swim-dual-task","","q","lowercase","260000","0","3","f187a20d11928979079437d14ad6dc5ae88adb1f5006ba55dea52ec78452f221","260000.59999999404","424.60000002384186","88","1","swim","","","","",""
"dual-task","null","null","null","","arctic","swim","404.7999999821186","","E","null","77","77","1","swim-dual-task","","E","uppercase","274000","0","3","f187a20d11928979079437d14ad6dc5ae88adb1f5006ba55dea52ec78452f221","273999.3000000119","404.7999999821186","77","1","swim","","","","",""
"dual-task","null","null","null","","arctic","swim","664.5","","q","null","88","88","1","swim-dual-task","","q","lowercase","284000","0","3","f187a20d11928979079437d14ad6dc5ae88adb1f5006ba55dea52ec78452f221","284000.3000000119","664.5","88","1","swim","","","","",""
"dual-task","null","null","null","","arctic","swim","440.30000001192093","","q","null","88","88","1","swim-dual-task","","q","lowercase","296000","0","3","f187a20d11928979079437d14ad6dc5ae88adb1f5006ba55dea52ec78452f221","295999.5","440.30000001192093","88","1","swim","","","","",""
"dual-task","null","null","null","","arctic","swim","513.5999999940395","","g","null","88","88","1","swim-dual-task","","g","lowercase","310000","0","3","f187a20d11928979079437d14ad6dc5ae88adb1f5006ba55dea52ec78452f221","309999.2000000179","513.5999999940395","88","1","swim","","","","",""
"dual-task","null","null","null","","arctic","swim","521","","d","null","88","88","1","swim-dual-task","","d","lowercase","318000","0","3","f187a20d11928979079437d14ad6dc5ae88adb1f5006ba55dea52ec78452f221","317999.7000000179","521","88","1","swim","","","","",""
"dual-task","null","null","null","","arctic","swim","602.4000000059605","","D","null","77","77","1","swim-dual-task","","D","uppercase","328000","0","3","f187a20d11928979079437d14ad6dc5ae88adb1f5006ba55dea52ec78452f221","328000.90000000596","602.4000000059605","77","1","swim","","","","",""
"dual-task","null","null","null","","arctic","swim","438.59999999403954","","H","null","77","77","1","swim-dual-task","","H","uppercase","334000","0","3","f187a20d11928979079437d14ad6dc5ae88adb1f5006ba55dea52ec78452f221","334000","438.59999999403954","77","1","swim","","","","",""
"dual-task","null","null","null","","arctic","swim","390.60000002384186","","h","null","88","88","1","swim-dual-task","","h","lowercase","344000","0","3","f187a20d11928979079437d14ad6dc5ae88adb1f5006ba55dea52ec78452f221","344000.09999999404","390.60000002384186","88","1","swim","","","","",""
"dual-task","null","null","null","","arctic","swim","402.5","","e","null","88","88","1","swim-dual-task","","e","lowercase","352000","0","3","f187a20d11928979079437d14ad6dc5ae88adb1f5006ba55dea52ec78452f221","351999.8000000119","402.5","88","1","swim","","","","",""
"dual-task","null","null","null","","arctic","swim","659.5","","B","null","77","77","1","swim-dual-task","","B","uppercase","366000","0","3","f187a20d11928979079437d14ad6dc5ae88adb1f5006ba55dea52ec78452f221","366000.3000000119","659.5","77","1","swim","","","","",""
"dual-task","null","null","null","","arctic","swim","515.9000000059605","","d","null","88","88","1","swim-dual-task","","d","lowercase","374000","0","3","f187a20d11928979079437d14ad6dc5ae88adb1f5006ba55dea52ec78452f221","374000.90000000596","515.9000000059605","88","1","swim","","","","",""
"dual-task","null","null","null","","arctic","swim","530.9000000059605","","h","null","88","88","1","swim-dual-task","","h","lowercase","382000","0","3","f187a20d11928979079437d14ad6dc5ae88adb1f5006ba55dea52ec78452f221","382000.40000000596","530.9000000059605","88","1","swim","","","","",""
"dual-task","null","null","null","","arctic","swim","556.5999999940395","","G","null","77","77","1","swim-dual-task","","G","uppercase","392000","0","3","f187a20d11928979079437d14ad6dc5ae88adb1f5006ba55dea52ec78452f221","392001.2000000179","556.5999999940395","77","1","swim","","","","",""
"dual-task","null","null","null","","arctic","swim","519.0999999940395","","Q","null","77","77","1","swim-dual-task","","Q","uppercase","400000","0","3","f187a20d11928979079437d14ad6dc5ae88adb1f5006ba55dea52ec78452f221","399999.90000000596","519.0999999940395","77","1","swim","","","","",""
"dual-task","null","null","null","","arctic","swim","454.69999998807907","","A","null","77","77","1","swim-dual-task","","A","uppercase","414000","0","3","f187a20d11928979079437d14ad6dc5ae88adb1f5006ba55dea52ec78452f221","414000.09999999404","454.69999998807907","77","1","swim","","","","",""
"dual-task","null","null","null","","arctic","swim","489.80000001192093","","B","null","77","77","1","swim-dual-task","","B","uppercase","424000","0","3","f187a20d11928979079437d14ad6dc5ae88adb1f5006ba55dea52ec78452f221","424000.8000000119","489.80000001192093","77","1","swim","","","","",""
"dual-task","null","null","null","","arctic","swim","401.40000000596046","","a","null","88","88","1","swim-dual-task","","a","lowercase","434000","0","3","f187a20d11928979079437d14ad6dc5ae88adb1f5006ba55dea52ec78452f221","433999.8000000119","401.40000000596046","88","1","swim","","","","",""
"dual-task","null","null","null","","arctic","swim","508","","F","null","77","77","1","swim-dual-task","","F","uppercase","446000","0","3","f187a20d11928979079437d14ad6dc5ae88adb1f5006ba55dea52ec78452f221","446000.3000000119","508","77","1","swim","","","","",""
"dual-task","null","null","null","","arctic","swim","518.4000000059605","","Q","null","77","77","1","swim-dual-task","","Q","uppercase","456000","0","3","f187a20d11928979079437d14ad6dc5ae88adb1f5006ba55dea52ec78452f221","455999.8000000119","518.4000000059605","77","1","swim","","","","",""
"dual-task","null","null","null","","arctic","swim","503.40000000596046","","f","null","88","88","1","swim-dual-task","","f","lowercase","466000","0","3","f187a20d11928979079437d14ad6dc5ae88adb1f5006ba55dea52ec78452f221","466000","503.40000000596046","88","1","swim","","","","",""
"dual-task","null","null","null","","arctic","swim","728.5","","f","null","88","88","1","swim-dual-task","","f","lowercase","478000","0","3","f187a20d11928979079437d14ad6dc5ae88adb1f5006ba55dea52ec78452f221","478000.40000000596","728.5","88","1","swim","","","","",""
"dual-task","null","null","null","","arctic","swim","453.09999999403954","","G","null","77","77","1","swim-dual-task","","G","uppercase","488000","0","3","f187a20d11928979079437d14ad6dc5ae88adb1f5006ba55dea52ec78452f221","488000.2000000179","453.09999999403954","77","1","swim","","","","",""
"dual-task","null","null","null","","arctic","swim","460.09999999403954","","G","null","77","77","1","swim-dual-task","","G","uppercase","498000","0","3","f187a20d11928979079437d14ad6dc5ae88adb1f5006ba55dea52ec78452f221","498001.2000000179","460.09999999403954","77","1","swim","","","","",""
"dual-task","null","null","null","","arctic","swim","435.19999998807907","","t","null","88","88","1","swim-dual-task","","t","lowercase","512000","0","3","f187a20d11928979079437d14ad6dc5ae88adb1f5006ba55dea52ec78452f221","512000.09999999404","435.19999998807907","88","1","swim","","","","",""
"dual-task","null","null","null","","arctic","swim","525.9000000059605","","F","null","77","77","1","swim-dual-task","","F","uppercase","518000","0","3","f187a20d11928979079437d14ad6dc5ae88adb1f5006ba55dea52ec78452f221","518000.2000000179","525.9000000059605","77","1","swim","","","","",""
"dual-task","null","null","null","","arctic","swim","449.19999998807907","","T","null","77","77","1","swim-dual-task","","T","uppercase","524000","0","3","f187a20d11928979079437d14ad6dc5ae88adb1f5006ba55dea52ec78452f221","524000.2000000179","449.19999998807907","77","1","swim","","","","",""
"dual-task","null","null","null","","arctic","swim","400.10000002384186","","n","null","88","88","1","swim-dual-task","","n","lowercase","536000","0","3","f187a20d11928979079437d14ad6dc5ae88adb1f5006ba55dea52ec78452f221","536000.599999994","400.10000002384186","88","1","swim","","","","",""
"dual-task","null","null","null","","arctic","swim","394.2999999821186","","R","null","77","77","1","swim-dual-task","","R","uppercase","550000","0","3","f187a20d11928979079437d14ad6dc5ae88adb1f5006ba55dea52ec78452f221","550000.599999994","394.2999999821186","77","1","swim","","","","",""
"dual-task","null","null","null","","arctic","swim","713.4000000059605","","G","null","77","77","1","swim-dual-task","","G","uppercase","556000","0","3","f187a20d11928979079437d14ad6dc5ae88adb1f5006ba55dea52ec78452f221","556000.5","713.4000000059605","77","1","swim","","","","",""
"dual-task","null","null","null","","arctic","swim","504.2000000178814","","a","null","88","88","1","swim-dual-task","","a","lowercase","562000","0","3","f187a20d11928979079437d14ad6dc5ae88adb1f5006ba55dea52ec78452f221","562001.5","504.2000000178814","88","1","swim","","","","",""
"dual-task","null","null","null","","arctic","swim","427.80000001192093","","t","null","88","88","1","swim-dual-task","","t","lowercase","568000","0","3","f187a20d11928979079437d14ad6dc5ae88adb1f5006ba55dea52ec78452f221","568000.7000000179","427.80000001192093","88","1","swim","","","","",""
"dual-task","null","null","null","","arctic","swim","419.59999999403954","","r","null","88","88","1","swim-dual-task","","r","lowercase","580000","0","3","f187a20d11928979079437d14ad6dc5ae88adb1f5006ba55dea52ec78452f221","580000.3000000119","419.59999999403954","88","1","swim","","","","",""
"dual-task","null","null","null","","arctic","swim","501.7999999821186","","A","null","77","77","1","swim-dual-task","","A","uppercase","590000","0","3","f187a20d11928979079437d14ad6dc5ae88adb1f5006ba55dea52ec78452f221","590000.2000000179","501.7999999821186","77","1","swim","","","","",""
"dual-task","null","null","null","","arctic","swim","713.5999999940395","","F","null","77","77","1","swim-dual-task","","F","uppercase","604000","0","3","f187a20d11928979079437d14ad6dc5ae88adb1f5006ba55dea52ec78452f221","603999.900000006","713.5999999940395","77","1","swim","","","","",""
"dual-task","null","null","null","","arctic","swim","556.5999999940395","","H","null","77","77","1","swim-dual-task","","H","uppercase","614000","0","3","f187a20d11928979079437d14ad6dc5ae88adb1f5006ba55dea52ec78452f221","613999.8000000119","556.5999999940395","77","1","swim","","","","",""
"dual-task","null","null","null","","arctic","swim","522.5","","N","null","77","77","1","swim-dual-task","","N","uppercase","624000","0","3","f187a20d11928979079437d14ad6dc5ae88adb1f5006ba55dea52ec78452f221","624000.900000006","522.5","77","1","swim","","","","",""
"dual-task","null","null","null","","arctic","swim","667","","n","null","88","88","1","swim-dual-task","","n","lowercase","632000","0","3","f187a20d11928979079437d14ad6dc5ae88adb1f5006ba55dea52ec78452f221","632000","667","88","1","swim","","","","",""
"dual-task","null","null","null","","arctic","swim","504.69999998807907","","q","null","88","88","1","swim-dual-task","","q","lowercase","642000","0","3","f187a20d11928979079437d14ad6dc5ae88adb1f5006ba55dea52ec78452f221","642000.7000000179","504.69999998807907","88","1","swim","","","","",""
"dual-task","null","null","null","","arctic","swim","572.7000000178814","","N","null","77","77","1","swim-dual-task","","N","uppercase","648000","0","3","f187a20d11928979079437d14ad6dc5ae88adb1f5006ba55dea52ec78452f221","648000","572.7000000178814","77","1","swim","","","","",""
"dual-task","null","null","null","","arctic","swim","420.7000000178814","","d","null","88","88","1","swim-dual-task","","d","lowercase","660000","0","3","f187a20d11928979079437d14ad6dc5ae88adb1f5006ba55dea52ec78452f221","660000.5","420.7000000178814","88","1","swim","","","","",""
"dual-task","null","null","null","","arctic","swim","533.1999999880791","","F","null","77","77","1","swim-dual-task","","F","uppercase","670000","0","3","f187a20d11928979079437d14ad6dc5ae88adb1f5006ba55dea52ec78452f221","670000.8000000119","533.1999999880791","77","1","swim","","","","",""
"dual-task","null","null","null","","arctic","swim","385.60000002384186","","R","null","77","77","1","swim-dual-task","","R","uppercase","680000","0","3","f187a20d11928979079437d14ad6dc5ae88adb1f5006ba55dea52ec78452f221","680001.599999994","385.60000002384186","77","1","swim","","","","",""
"dual-task","null","null","null","","arctic","swim","507.69999998807907","","N","null","77","77","1","swim-dual-task","","N","uppercase","692000","0","3","f187a20d11928979079437d14ad6dc5ae88adb1f5006ba55dea52ec78452f221","692000.7000000179","507.69999998807907","77","1","swim","","","","",""
"dual-task","null","null","null","","arctic","swim","474.80000001192093","","B","null","77","77","1","swim-dual-task","","B","uppercase","702000","0","3","f187a20d11928979079437d14ad6dc5ae88adb1f5006ba55dea52ec78452f221","702000.8000000119","474.80000001192093","77","1","swim","","","","",""
"dual-task","null","null","null","","arctic","swim","566.5","","t","null","88","88","1","swim-dual-task","","t","lowercase","710000","0","3","f187a20d11928979079437d14ad6dc5ae88adb1f5006ba55dea52ec78452f221","710001.5","566.5","88","1","swim","","","","",""
"dual-task","null","null","null","","arctic","swim","351.30000001192093","","H","null","77","77","1","swim-dual-task","","H","uppercase","718000","0","3","f187a20d11928979079437d14ad6dc5ae88adb1f5006ba55dea52ec78452f221","718001.5","351.30000001192093","77","1","swim","","","","",""
"dual-task","null","null","null","","arctic","swim","440","","Q","null","77","77","1","swim-dual-task","","Q","uppercase","730000","0","3","f187a20d11928979079437d14ad6dc5ae88adb1f5006ba55dea52ec78452f221","730001","440","77","1","swim","","","","",""
"dual-task","null","null","null","","arctic","swim","529","","E","null","77","77","1","swim-dual-task","","E","uppercase","742000","0","3","f187a20d11928979079437d14ad6dc5ae88adb1f5006ba55dea52ec78452f221","742000.400000006","529","77","1","swim","","","","",""
"dual-task","null","null","null","","arctic","swim","483.40000000596046","","r","null","88","88","1","swim-dual-task","","r","lowercase","748000","0","3","f187a20d11928979079437d14ad6dc5ae88adb1f5006ba55dea52ec78452f221","747999.900000006","483.40000000596046","88","1","swim","","","","",""
"dual-task","null","null","null","","arctic","swim","495.80000001192093","","g","null","88","88","1","swim-dual-task","","g","lowercase","762000","0","3","f187a20d11928979079437d14ad6dc5ae88adb1f5006ba55dea52ec78452f221","762020.400000006","495.80000001192093","88","1","swim","","","","",""
"dual-task","null","null","null","","arctic","swim","418.5","","D","null","77","77","1","swim-dual-task","","D","uppercase","772000","0","3","f187a20d11928979079437d14ad6dc5ae88adb1f5006ba55dea52ec78452f221","772000.7000000179","418.5","77","1","swim","","","","",""
"dual-task","null","null","null","","arctic","swim","564.7999999821186","","t","null","88","88","1","swim-dual-task","","t","lowercase","784000","0","3","f187a20d11928979079437d14ad6dc5ae88adb1f5006ba55dea52ec78452f221","784000.7000000179","564.7999999821186","88","1","swim","","","","",""
"dual-task","null","null","null","","arctic","swim","769.0999999940395","","g","null","88","88","1","swim-dual-task","","g","lowercase","792000","0","3","f187a20d11928979079437d14ad6dc5ae88adb1f5006ba55dea52ec78452f221","792001.2000000179","769.0999999940395","88","1","swim","","","","",""
"audio-keyboard-response","62","1970973","0.0-6.0-2.0-1.0","f187a20d11928979079437d14ad6dc5ae88adb1f5006ba55dea52ec78452f221","arctic","swim","null","","audio/story_swim_scrambled.mp3","","null","","","","","","","","","","","","","","","","","","","",""
"html-button-response","63","1978048","0.0-6.0-2.0-2.0","f187a20d11928979079437d14ad6dc5ae88adb1f5006ba55dea52ec78452f221","arctic","swim","7073","","<p>This concludes the story. Thank you for listening.</p><p>You will now answer some questions about the content of the story.</p>","0","","","","","","","","","","","","","","","","","","","","",""
"survey-multi-choice","64","1981578","0.0-6.0-2.0-3.0-0.0","f187a20d11928979079437d14ad6dc5ae88adb1f5006ba55dea52ec78452f221","arctic","swim","3526","","<b>What is the narrator afraid of, aside from the water?</b>","","","","1","swim-comprehension","","","","","","","","","","","","","{""Q0"":""Heights""}","","","",""
"survey-multi-choice","65","1992872","0.0-6.0-2.0-3.0-0.1","f187a20d11928979079437d14ad6dc5ae88adb1f5006ba55dea52ec78452f221","arctic","swim","11035","","<b>What gave the narrator his greatest feeling of accomplishment?</b>","","","","1","swim-comprehension","","","","","","","","","","","","","{""Q0"":""Passing the water survival course""}","","","",""
"survey-multi-choice","66","2013719","0.0-6.0-2.0-3.0-0.2","f187a20d11928979079437d14ad6dc5ae88adb1f5006ba55dea52ec78452f221","arctic","swim","20589","","<b>How often does the narrator swim, now that he is a good swimmer?</b>","","","","0","swim-comprehension","","","","","","","","","","","","","{""Q0"":""Every day at the local pool""}","","","",""
"survey-multi-choice","67","2021173","0.0-6.0-2.0-3.0-0.3","f187a20d11928979079437d14ad6dc5ae88adb1f5006ba55dea52ec78452f221","arctic","swim","7197","","<b>What were the astronaut candidates trained to do at the naval air station?</b>","","","","1","swim-comprehension","","","","","","","","","","","","","{""Q0"":""Eject out of aircraft and survive in water long enough to be rescued""}","","","",""
"survey-multi-choice","68","2027904","0.0-6.0-2.0-3.0-0.4","f187a20d11928979079437d14ad6dc5ae88adb1f5006ba55dea52ec78452f221","arctic","swim","6477","","<b>How many astronaut candidates reported for duty at the Johnson Space Center?</b>","","","","1","swim-comprehension","","","","","","","","","","","","","{""Q0"":""Forty-four""}","","","",""
"survey-multi-choice","69","2032539","0.0-6.0-2.0-3.0-0.5","f187a20d11928979079437d14ad6dc5ae88adb1f5006ba55dea52ec78452f221","arctic","swim","4377","","<b>How many times did the astronaut candidates have to complete the final exercise to pass?</b>","","","","1","swim-comprehension","","","","","","","","","","","","","{""Q0"":""Two""}","","","",""
"survey-multi-choice","70","2041444","0.0-6.0-2.0-3.0-0.6","f187a20d11928979079437d14ad6dc5ae88adb1f5006ba55dea52ec78452f221","arctic","swim","8646","","<b>What was the final step of the first swim test in the pool?</b>","","","","1","swim-comprehension","","","","","","","","","","","","","{""Q0"":""Tread water with hands above the water""}","","","",""
"survey-multi-choice","71","2049594","0.0-6.0-2.0-3.0-0.7","f187a20d11928979079437d14ad6dc5ae88adb1f5006ba55dea52ec78452f221","arctic","swim","7891","","<b>How did the narrator train for his swim test?</b>","","","","0","swim-comprehension","","","","","","","","","","","","","{""Q0"":""Swam at the lake every day""}","","","",""
"survey-multi-choice","72","2056521","0.0-6.0-2.0-3.0-0.8","f187a20d11928979079437d14ad6dc5ae88adb1f5006ba55dea52ec78452f221","arctic","swim","6670","","<b>How many astronaut candidates passed the first swim test?</b>","","","","1","swim-comprehension","","","","","","","","","","","","","{""Q0"":""All of them""}","","","",""
"survey-multi-choice","73","2062450","0.0-6.0-2.0-3.0-0.9","f187a20d11928979079437d14ad6dc5ae88adb1f5006ba55dea52ec78452f221","arctic","swim","5665","","<b>Where is the home of naval aviation?</b>","","","","1","swim-comprehension","","","","","","","","","","","","","{""Q0"":""Pensacola""}","","","",""
"html-button-response","74","2064094","0.0-6.0-2.0-4.0","f187a20d11928979079437d14ad6dc5ae88adb1f5006ba55dea52ec78452f221","arctic","swim","1389","","<p>Thank you for your responses.</p><p>You will now answer some questions about your impressions of the story.</p>","0","","","","","","","","","","","","","","","","","","","","",""
"html-button-response","75","2070015","0.0-6.0-2.0-5.0-0.0","f187a20d11928979079437d14ad6dc5ae88adb1f5006ba55dea52ec78452f221","arctic","swim","5919","","E10","0","","","","swim-engagement","","","","","","","","","","","","","","1","enjoyment","",""
"html-button-response","76","2072995","0.0-6.0-2.0-5.0-0.1","f187a20d11928979079437d14ad6dc5ae88adb1f5006ba55dea52ec78452f221","arctic","swim","2725","","EE5","2","","","","swim-engagement","","","","","","","","","","","","","","3","emo-engage","",""
"html-button-response","77","2075570","0.0-6.0-2.0-5.0-0.2","f187a20d11928979079437d14ad6dc5ae88adb1f5006ba55dea52ec78452f221","arctic","swim","2323","","A4","1","","","","swim-engagement","","","","","","","","","","","","","","2","absorption","",""
"html-button-response","78","2078033","0.0-6.0-2.0-5.0-0.3","f187a20d11928979079437d14ad6dc5ae88adb1f5006ba55dea52ec78452f221","arctic","swim","2210","","A1","0","","","","swim-engagement","","","","","","","","","","","","","","1","absorption","",""
"html-button-response","79","2080229","0.0-6.0-2.0-5.0-0.4","f187a20d11928979079437d14ad6dc5ae88adb1f5006ba55dea52ec78452f221","arctic","swim","1944","","A2","4","","","","swim-engagement","","","","","","","","","","","","","","5","absorption","",""
"html-button-response","80","2082079","0.0-6.0-2.0-5.0-0.5","f187a20d11928979079437d14ad6dc5ae88adb1f5006ba55dea52ec78452f221","arctic","swim","1598","","E7","5","","","","swim-engagement","","","","","","","","","","","","","","6","enjoyment","",""
"html-button-response","81","2083880","0.0-6.0-2.0-5.0-0.6","f187a20d11928979079437d14ad6dc5ae88adb1f5006ba55dea52ec78452f221","arctic","swim","1547","","E6","3","","","","swim-engagement","","","","","","","","","","","","","","4","enjoyment","",""
"html-button-response","82","2085421","0.0-6.0-2.0-5.0-0.7","f187a20d11928979079437d14ad6dc5ae88adb1f5006ba55dea52ec78452f221","arctic","swim","1286","","E1","2","","","","swim-engagement","","","","","","","","","","","","","","3","enjoyment","",""
"html-button-response","83","2087009","0.0-6.0-2.0-5.0-0.8","f187a20d11928979079437d14ad6dc5ae88adb1f5006ba55dea52ec78452f221","arctic","swim","1334","","EE4","4","","","","swim-engagement","","","","","","","","","","","","","","5","emo-engage","",""
"html-button-response","84","2088889","0.0-6.0-2.0-5.0-0.9","f187a20d11928979079437d14ad6dc5ae88adb1f5006ba55dea52ec78452f221","arctic","swim","1625","","EE3","3","","","","swim-engagement","","","","","","","","","","","","","","4","emo-engage","",""
"html-button-response","85","2090808","0.0-6.0-2.0-5.0-0.10","f187a20d11928979079437d14ad6dc5ae88adb1f5006ba55dea52ec78452f221","arctic","swim","1666","","E8","4","","","","swim-engagement","","","","","","","","","","","","","","5","enjoyment","",""
"html-button-response","86","2092633","0.0-6.0-2.0-5.0-0.11","f187a20d11928979079437d14ad6dc5ae88adb1f5006ba55dea52ec78452f221","arctic","swim","1571","","A3","2","","","","swim-engagement","","","","","","","","","","","","","","3","absorption","",""
"html-button-response","87","2095272","0.0-6.0-2.0-5.0-0.12","f187a20d11928979079437d14ad6dc5ae88adb1f5006ba55dea52ec78452f221","arctic","swim","2386","","MS1","4","","","","swim-engagement","","","","","","","","","","","","","","5","mental-sim","",""
"html-button-response","88","2098181","0.0-6.0-2.0-5.0-0.13","f187a20d11928979079437d14ad6dc5ae88adb1f5006ba55dea52ec78452f221","arctic","swim","2656","","MS2","4","","","","swim-engagement","","","","","","","","","","","","","","5","mental-sim","",""
"html-button-response","89","2099668","0.0-6.0-2.0-5.0-0.14","f187a20d11928979079437d14ad6dc5ae88adb1f5006ba55dea52ec78452f221","arctic","swim","1231","","EE2","3","","","","swim-engagement","","","","","","","","","","","","","","4","emo-engage","",""
"html-button-response","90","2101699","0.0-6.0-2.0-5.0-0.15","f187a20d11928979079437d14ad6dc5ae88adb1f5006ba55dea52ec78452f221","arctic","swim","1778","","A5","5","","","","swim-engagement","","","","","","","","","","","","","","6","absorption","",""
"html-button-response","91","2103537","0.0-6.0-2.0-5.0-0.16","f187a20d11928979079437d14ad6dc5ae88adb1f5006ba55dea52ec78452f221","arctic","swim","1586","","MS3","4","","","","swim-engagement","","","","","","","","","","","","","","5","mental-sim","",""
"html-button-response","92","2107336","0.0-6.0-2.0-5.0-0.17","f187a20d11928979079437d14ad6dc5ae88adb1f5006ba55dea52ec78452f221","arctic","swim","3546","","EE1","4","","","","swim-engagement","","","","","","","","","","","","","","5","emo-engage","",""
"html-button-response","93","2108658","0.0-8.0","f187a20d11928979079437d14ad6dc5ae88adb1f5006ba55dea52ec78452f221","arctic","swim","1070","","<p>Thank you for your responses.</p><p>You will now answer some demographic, hearing, and general health questions.</p>","0","","","","","","","","","","","","","","","","","","","","",""
"survey-multi-choice","94","2111245","0.0-9.0-0.0","f187a20d11928979079437d14ad6dc5ae88adb1f5006ba55dea52ec78452f221","arctic","swim","2581","","","","","","","survey","","","","","","","","","","","","","{""Q0"":""Chrome""}","","","browser",""
"survey-text","95","2114566","0.0-9.0-1.0","f187a20d11928979079437d14ad6dc5ae88adb1f5006ba55dea52ec78452f221","arctic","swim","3062.300000011921","","","","","","","survey","","","","","","","","","","","","","{""AGE"":""39""}","","","age","39"
"survey-multi-choice","96","2116807","0.0-9.0-2.0","f187a20d11928979079437d14ad6dc5ae88adb1f5006ba55dea52ec78452f221","arctic","swim","1979","","","","","","","survey","","","","","","","","","","","","","{""Q0"":""Male""}","","","gender","Male"
"survey-multi-choice","97","2119081","0.0-9.0-4.0","f187a20d11928979079437d14ad6dc5ae88adb1f5006ba55dea52ec78452f221","arctic","swim","2014","","","","","","","survey","","","","","","","","","","","","","{""Q0"":""Right""}","","","handedness","Right"
"survey-multi-choice","98","2121705","0.0-9.0-5.0","f187a20d11928979079437d14ad6dc5ae88adb1f5006ba55dea52ec78452f221","arctic","swim","2364","","","","","","","survey","","","","","","","","","","","","","{""Q0"":""Postgraduate Degree""}","","","education","Postgraduate Degree"
"survey-text","99","2125876","0.0-10.0-0.0","f187a20d11928979079437d14ad6dc5ae88adb1f5006ba55dea52ec78452f221","arctic","swim","3912.9000000059605","","","","","","","survey","","","","","","","","","","","","","{""L1"":""English""}","","","first-language","English"
"survey-text","100","2135159","0.0-10.0-1.0","f187a20d11928979079437d14ad6dc5ae88adb1f5006ba55dea52ec78452f221","arctic","swim","9011.300000011921","","","","","","","survey","","","","","","","","","","","","","{""L2name"":"""",""L2fluency"":"""",""L3name"":"""",""L3fluency"":"""",""L4name"":"""",""L4fluency"":""""}","","","additional-languages","{""L2name"":"""",""L2fluency"":"""",""L3name"":"""",""L3fluency"":"""",""L4name"":"""",""L4fluency"":""""}"
"survey-multi-choice","101","2137673","0.0-10.0-2.0","f187a20d11928979079437d14ad6dc5ae88adb1f5006ba55dea52ec78452f221","arctic","swim","2258","","","","","","","survey","","","","","","","","","","","","","{""Q0"":""No""}","","","hearing-aid","No"
"survey-multi-choice","102","2140201","0.0-10.0-3.0","f187a20d11928979079437d14ad6dc5ae88adb1f5006ba55dea52ec78452f221","arctic","swim","2272","","","","","","","survey","","","","","","","","","","","","","{""Q0"":""Never""}","","","ringing-ears","Never"
"survey-multi-choice","103","2142756","0.0-10.0-5.0","f187a20d11928979079437d14ad6dc5ae88adb1f5006ba55dea52ec78452f221","arctic","swim","2301","","","","","","","survey","","","","","","","","","","","","","{""Q0"":""No""}","","","neuro-disease","No"
"survey-multi-choice","104","2148109","0.0-10.0-7.0","f187a20d11928979079437d14ad6dc5ae88adb1f5006ba55dea52ec78452f221","arctic","swim","5098","","","","","","","survey","","","","","","","","","","","","","{""Q0"":""Yes""}","","","take-meds","Yes"
"survey-text","105","2161175","0.0-10.0-8.0-0.0","f187a20d11928979079437d14ad6dc5ae88adb1f5006ba55dea52ec78452f221","arctic","swim","12807.59999999404","","","","","","","survey","","","","","","","","","","","","","{""MED"":""Humalog insulin, type 1 diabetes""}","","","take-meds-clarify","Humalog insulin, type 1 diabetes"
"survey-text","106","2192791","0.0-10.0-9.0","f187a20d11928979079437d14ad6dc5ae88adb1f5006ba55dea52ec78452f221","arctic","swim","31338.90000000596","","","","","","","survey","","","","","","","","","","","","","{""HC"":""Just type 1 diabetes. My blood sugar was in normal range while completing the study. ""}","","","health-concerns","Just type 1 diabetes. My blood sugar was in normal range while completing the study. "
"html-button-response","107","2197702","0.0-11.0-0.0","f187a20d11928979079437d14ad6dc5ae88adb1f5006ba55dea52ec78452f221","arctic","swim","4659","","<p>How would you describe your musical skills/experiences?</p>","2","","","","survey","","","","","","","","","","","","","","","","music-skill","3"
"survey-multi-choice","108","2199786","0.0-11.0-1.0","f187a20d11928979079437d14ad6dc5ae88adb1f5006ba55dea52ec78452f221","arctic","swim","1830","","","","","","","survey","","","","","","","","","","","","","{""Q0"":""Yes""}","","","music-instrument","Yes"
"survey-text","109","2202277","0.0-11.0-2.0-0.0","f187a20d11928979079437d14ad6dc5ae88adb1f5006ba55dea52ec78452f221","arctic","swim","2237.2999999821186","","","","","","","survey","","","","","","","","","","","","","{""MEXP"":""6""}","","","music-training-yrs","6"
"html-button-response","110","2204575","0.0-12.0-0.0","f187a20d11928979079437d14ad6dc5ae88adb1f5006ba55dea52ec78452f221","arctic","swim","2045","","<p>How would you describe your general hearing abilities?</p>","4","","","","survey","","","","","","","","","","","","","","","","ssq-01","5"
"html-button-response","111","2210164","0.0-12.0-1.0","f187a20d11928979079437d14ad6dc5ae88adb1f5006ba55dea52ec78452f221","arctic","swim","5336","","<p>When you talk with someone at a place that strongly reverberates/echoes (e.g., in a church or train station),</br>can you understand what the person says?</p>","8","","","","survey","","","","","","","","","","","","","","","","ssq-02","8"
"html-button-response","112","2213396","0.0-12.0-2.0","f187a20d11928979079437d14ad6dc5ae88adb1f5006ba55dea52ec78452f221","arctic","swim","2978","","<p>When you are with a group (~5 people) in a lively restaurant, can you follow the group's conversation?</p>","9","","","","survey","","","","","","","","","","","","","","","","ssq-03","9"
"html-button-response","113","2217311","0.0-12.0-3.0","f187a20d11928979079437d14ad6dc5ae88adb1f5006ba55dea52ec78452f221","arctic","swim","3661","","<p>Based on the sound of a bus or truck, can you tell whether it is moving towards or away from you?</p>","9","","","","survey","","","","","","","","","","","","","","","","ssq-04","9"
"html-button-response","114","2220262","0.0-12.0-4.0","f187a20d11928979079437d14ad6dc5ae88adb1f5006ba55dea52ec78452f221","arctic","swim","2697","","<p>When you are in an unknown environment, can you tell from which direction a brief sound originates?</p>","8","","","","survey","","","","","","","","","","","","","","","","ssq-05","8"
"html-button-response","115","2224064","0.0-12.0-5.0","f187a20d11928979079437d14ad6dc5ae88adb1f5006ba55dea52ec78452f221","arctic","swim","3549","","<p>Are you able to ignore distracting sounds when you concentrate on a specific aspect of your acoustic surrounding?</p>","9","","","","survey","","","","","","","","","","","","","","","","ssq-06","9"
"fullscreen","116","2225319","0.0-13.0","f187a20d11928979079437d14ad6dc5ae88adb1f5006ba55dea52ec78452f221","arctic","swim","","","","","","","","","true","","","","","","","","","","","","","","","",""
