"trial_type","trial_index","time_elapsed","internal_node_id","ParticipantID","firstStory","scramStory","rt","url","stimulus","button_pressed","key_press","correctRESP","correct","designation","success","letterStim","letterType","ONSET","TIMEOUT","CONDITION","Participant","ONSET_ACTUAL","RT","RESP","ACC","STORY","responses","response","type","surveyQuestion","QRESP"
"pavlovia","0","1036","0.0-0.0","1ac270667d122e18f1348252b34ef89521d6731c98e9ff6ebf23cbbd23ccb01e","swim","arctic","","","","","","","","","","","","","","","","","","","","","","","","",""
"external-html","1","57131","0.0-1.0","1ac270667d122e18f1348252b34ef89521d6731c98e9ff6ebf23cbbd23ccb01e","swim","arctic","55293","consent/consent_updated.html","","","","","","","","","","","","","","","","","","","","","","",""
"html-button-response","2","65352","0.0-2.0-0.0","1ac270667d122e18f1348252b34ef89521d6731c98e9ff6ebf23cbbd23ccb01e","swim","arctic","8207","","<p>Before we begin the main task, you will complete a short volume calibration and headphone check.</p><p>Please make sure you are in a quiet listening environment, that you are wearing headphones, and that your computer's volume is turned on.<p></p>","0","","","","","","","","","","","","","","","","","","","","",""
"html-button-response","3","69701","0.0-2.0-1.0","1ac270667d122e18f1348252b34ef89521d6731c98e9ff6ebf23cbbd23ccb01e","swim","arctic","4085","","<p>The volume calibration will be first.</p><p>You will hear a thirty-second noise. Please adjust your computer's volume so that this noise is being presented at a comfortable level.<p></p>","0","","","","","","","","","","","","","","","","","","","","",""
"audio-button-response","4","76246","0.0-2.0-2.0","1ac270667d122e18f1348252b34ef89521d6731c98e9ff6ebf23cbbd23ccb01e","swim","arctic","6238","","audio/volumetest.mp3","0","","","","","","","","","","","","","","","","","","","","",""
"html-keyboard-response","5","85235","0.0-3.0-0.0","1ac270667d122e18f1348252b34ef89521d6731c98e9ff6ebf23cbbd23ccb01e","swim","arctic","8986","","<p>You will now complete a short headphone check.</p><p>On each trial, you will hear three tones. One of these tones will be quieter than the others. Your task is to identify whether the quiet tone occurred first, second, or third.</p><p>There are six trials in total.<p></p><p></p>(Press SPACEBAR to begin)","","32","","","","","","","","","","","","","","","","","","","",""
"html-keyboard-response","6","86098","0.0-3.0-1.0-0.0","1ac270667d122e18f1348252b34ef89521d6731c98e9ff6ebf23cbbd23ccb01e","swim","arctic","null","","<div style=""font-size:60px;"">+</div>","","null","","","","","","","","","","","","","","","","","","","",""
"audio-button-response","7","90787","0.0-3.0-1.0-1.0","1ac270667d122e18f1348252b34ef89521d6731c98e9ff6ebf23cbbd23ccb01e","swim","arctic","4681","","audio/t2_2.mp3","1","","1","1","headphone-test","","","","","","","","","","","","","","","","",""
"html-keyboard-response","8","91301","0.0-3.0-1.0-2.0","1ac270667d122e18f1348252b34ef89521d6731c98e9ff6ebf23cbbd23ccb01e","swim","arctic","null","","<p>Correct</p>","","null","","","","","","","","","","","","","","","","","","","",""
"html-keyboard-response","9","91818","0.0-3.0-1.0-0.1","1ac270667d122e18f1348252b34ef89521d6731c98e9ff6ebf23cbbd23ccb01e","swim","arctic","null","","<div style=""font-size:60px;"">+</div>","","null","","","","","","","","","","","","","","","","","","","",""
"audio-button-response","10","96218","0.0-3.0-1.0-1.1","1ac270667d122e18f1348252b34ef89521d6731c98e9ff6ebf23cbbd23ccb01e","swim","arctic","4394","","audio/t3_1.mp3","2","","2","1","headphone-test","","","","","","","","","","","","","","","","",""
"html-keyboard-response","11","96756","0.0-3.0-1.0-2.1","1ac270667d122e18f1348252b34ef89521d6731c98e9ff6ebf23cbbd23ccb01e","swim","arctic","null","","<p>Correct</p>","","null","","","","","","","","","","","","","","","","","","","",""
"html-keyboard-response","12","97275","0.0-3.0-1.0-0.2","1ac270667d122e18f1348252b34ef89521d6731c98e9ff6ebf23cbbd23ccb01e","swim","arctic","null","","<div style=""font-size:60px;"">+</div>","","null","","","","","","","","","","","","","","","","","","","",""
"audio-button-response","13","101836","0.0-3.0-1.0-1.2","1ac270667d122e18f1348252b34ef89521d6731c98e9ff6ebf23cbbd23ccb01e","swim","arctic","4559","","audio/t2_1.mp3","1","","1","1","headphone-test","","","","","","","","","","","","","","","","",""
"html-keyboard-response","14","102341","0.0-3.0-1.0-2.2","1ac270667d122e18f1348252b34ef89521d6731c98e9ff6ebf23cbbd23ccb01e","swim","arctic","null","","<p>Correct</p>","","null","","","","","","","","","","","","","","","","","","","",""
"html-keyboard-response","15","102872","0.0-3.0-1.0-0.3","1ac270667d122e18f1348252b34ef89521d6731c98e9ff6ebf23cbbd23ccb01e","swim","arctic","null","","<div style=""font-size:60px;"">+</div>","","null","","","","","","","","","","","","","","","","","","","",""
"audio-button-response","16","107412","0.0-3.0-1.0-1.3","1ac270667d122e18f1348252b34ef89521d6731c98e9ff6ebf23cbbd23ccb01e","swim","arctic","4537","","audio/t1_2.mp3","0","","0","1","headphone-test","","","","","","","","","","","","","","","","",""
"html-keyboard-response","17","107930","0.0-3.0-1.0-2.3","1ac270667d122e18f1348252b34ef89521d6731c98e9ff6ebf23cbbd23ccb01e","swim","arctic","null","","<p>Correct</p>","","null","","","","","","","","","","","","","","","","","","","",""
"html-keyboard-response","18","108464","0.0-3.0-1.0-0.4","1ac270667d122e18f1348252b34ef89521d6731c98e9ff6ebf23cbbd23ccb01e","swim","arctic","null","","<div style=""font-size:60px;"">+</div>","","null","","","","","","","","","","","","","","","","","","","",""
"audio-button-response","19","113161","0.0-3.0-1.0-1.4","1ac270667d122e18f1348252b34ef89521d6731c98e9ff6ebf23cbbd23ccb01e","swim","arctic","4685","","audio/t1_1.mp3","0","","0","1","headphone-test","","","","","","","","","","","","","","","","",""
"html-keyboard-response","20","113681","0.0-3.0-1.0-2.4","1ac270667d122e18f1348252b34ef89521d6731c98e9ff6ebf23cbbd23ccb01e","swim","arctic","null","","<p>Correct</p>","","null","","","","","","","","","","","","","","","","","","","",""
"html-keyboard-response","21","114195","0.0-3.0-1.0-0.5","1ac270667d122e18f1348252b34ef89521d6731c98e9ff6ebf23cbbd23ccb01e","swim","arctic","null","","<div style=""font-size:60px;"">+</div>","","null","","","","","","","","","","","","","","","","","","","",""
"audio-button-response","22","118754","0.0-3.0-1.0-1.5","1ac270667d122e18f1348252b34ef89521d6731c98e9ff6ebf23cbbd23ccb01e","swim","arctic","4557","","audio/t3_2.mp3","2","","2","1","headphone-test","","","","","","","","","","","","","","","","",""
"html-keyboard-response","23","119260","0.0-3.0-1.0-2.5","1ac270667d122e18f1348252b34ef89521d6731c98e9ff6ebf23cbbd23ccb01e","swim","arctic","null","","<p>Correct</p>","","null","","","","","","","","","","","","","","","","","","","",""
"fullscreen","24","121981","0.0-4.0","1ac270667d122e18f1348252b34ef89521d6731c98e9ff6ebf23cbbd23ccb01e","swim","arctic","","","","","","","","","true","","","","","","","","","","","","","","","",""
"html-button-response","25","135748","0.0-5.0-0.0","1ac270667d122e18f1348252b34ef89521d6731c98e9ff6ebf23cbbd23ccb01e","swim","arctic","13762","","<p>There are two blocks to this experiment.</p><p>In each block, you will hear a ~13.5 minute story. One of the stories will be scrambled. Please listen carefully to both stories and understand them as best you can.</p><p>After each story, you will be asked some questions to assess your comprehension.</p>","0","","","","","","","","","","","","","","","","","","","","",""
"html-button-response","26","157684","0.0-5.0-1.0","1ac270667d122e18f1348252b34ef89521d6731c98e9ff6ebf23cbbd23ccb01e","swim","arctic","21933","","<p>During each story, there will be an additional task.</p><p>A letter will occasionally appear on the screen.</br>Your job is to - as quickly as you can - decide whether the letter is lowercase or uppercase and press one of two keys on the keyboard:</p><p>If the letter is <b>lowercase</b>, press key &lt;<b>x</b>&gt;.</p><p>If the letter is <b>uppercase</b>, press key &lt;<b>m</b>&gt;.</p>","0","","","","","","","","","","","","","","","","","","","","",""
"html-keyboard-response","27","171169","0.0-5.0-2.0","1ac270667d122e18f1348252b34ef89521d6731c98e9ff6ebf23cbbd23ccb01e","swim","arctic","13484","","<p>Because we want your responses to be as quick as possible, please keep your index fingers over the keys while listening.</p><p>Each block lasts about 20 minutes.</p><p><b>Press &lt;x&gt; or &lt;m&gt; to start the first block!</b></p>","","88","","","","","","","","","","","","","","","","","","","",""
"html-keyboard-response","28","171689","0.0-7.0-0.0-0.0","1ac270667d122e18f1348252b34ef89521d6731c98e9ff6ebf23cbbd23ccb01e","swim","arctic","null","","<div style=""font-size:60px;"" tabindex=""0"">+</div>","","null","","","","","","","","","","","","","","","","","","","",""
"dual-task","null","null","null","","swim","arctic","1024.5","","a","null","88","88","1","swim-dual-task","","a","lowercase","18000","0","6","1ac270667d122e18f1348252b34ef89521d6731c98e9ff6ebf23cbbd23ccb01e","18002.30000001192","1024.5","88","1","swim","","","","",""
"dual-task","null","null","null","","swim","arctic","550.3000000119209","","n","null","77","88","0","swim-dual-task","","n","lowercase","30000","0","6","1ac270667d122e18f1348252b34ef89521d6731c98e9ff6ebf23cbbd23ccb01e","30006.09999999404","550.3000000119209","77","0","swim","","","","",""
"dual-task","null","null","null","","swim","arctic","600.5","","E","null","88","77","0","swim-dual-task","","E","uppercase","40000","0","6","1ac270667d122e18f1348252b34ef89521d6731c98e9ff6ebf23cbbd23ccb01e","40007.30000001192","600.5","88","0","swim","","","","",""
"dual-task","null","null","null","","swim","arctic","661.6000000238419","","D","null","77","77","1","swim-dual-task","","D","uppercase","54000","0","6","1ac270667d122e18f1348252b34ef89521d6731c98e9ff6ebf23cbbd23ccb01e","54002.59999999404","661.6000000238419","77","1","swim","","","","",""
"dual-task","null","null","null","","swim","arctic","597.8000000119209","","b","null","88","88","1","swim-dual-task","","b","lowercase","62000","0","6","1ac270667d122e18f1348252b34ef89521d6731c98e9ff6ebf23cbbd23ccb01e","62006.19999998808","597.8000000119209","88","1","swim","","","","",""
"dual-task","null","null","null","","swim","arctic","803.6999999880791","","t","null","88","88","1","swim-dual-task","","t","lowercase","76000","0","6","1ac270667d122e18f1348252b34ef89521d6731c98e9ff6ebf23cbbd23ccb01e","76002.80000001192","803.6999999880791","88","1","swim","","","","",""
"dual-task","null","null","null","","swim","arctic","589.3000000119209","","G","null","77","77","1","swim-dual-task","","G","uppercase","86000","0","6","1ac270667d122e18f1348252b34ef89521d6731c98e9ff6ebf23cbbd23ccb01e","86031.09999999404","589.3000000119209","77","1","swim","","","","",""
"dual-task","null","null","null","","swim","arctic","575.5999999940395","","N","null","77","77","1","swim-dual-task","","N","uppercase","100000","0","6","1ac270667d122e18f1348252b34ef89521d6731c98e9ff6ebf23cbbd23ccb01e","100003.40000000596","575.5999999940395","77","1","swim","","","","",""
"dual-task","null","null","null","","swim","arctic","553.3000000119209","","D","null","77","77","1","swim-dual-task","","D","uppercase","106000","0","6","1ac270667d122e18f1348252b34ef89521d6731c98e9ff6ebf23cbbd23ccb01e","106005.30000001192","553.3000000119209","77","1","swim","","","","",""
"dual-task","null","null","null","","swim","arctic","575.6999999880791","","n","null","88","88","1","swim-dual-task","","n","lowercase","114000","0","6","1ac270667d122e18f1348252b34ef89521d6731c98e9ff6ebf23cbbd23ccb01e","114015.5","575.6999999880791","88","1","swim","","","","",""
"dual-task","null","null","null","","swim","arctic","602.5999999940395","","N","null","77","77","1","swim-dual-task","","N","uppercase","128000","0","6","1ac270667d122e18f1348252b34ef89521d6731c98e9ff6ebf23cbbd23ccb01e","128011.19999998808","602.5999999940395","77","1","swim","","","","",""
"dual-task","null","null","null","","swim","arctic","746.3000000119209","","e","null","88","88","1","swim-dual-task","","e","lowercase","140000","0","6","1ac270667d122e18f1348252b34ef89521d6731c98e9ff6ebf23cbbd23ccb01e","140001.30000001192","746.3000000119209","88","1","swim","","","","",""
"dual-task","null","null","null","","swim","arctic","570.5","","r","null","88","88","1","swim-dual-task","","r","lowercase","152000","0","6","1ac270667d122e18f1348252b34ef89521d6731c98e9ff6ebf23cbbd23ccb01e","152003.09999999404","570.5","88","1","swim","","","","",""
"dual-task","null","null","null","","swim","arctic","563.1999999880791","","h","null","88","88","1","swim-dual-task","","h","lowercase","164000","0","6","1ac270667d122e18f1348252b34ef89521d6731c98e9ff6ebf23cbbd23ccb01e","164002.80000001192","563.1999999880791","88","1","swim","","","","",""
"dual-task","null","null","null","","swim","arctic","520.1999999880791","","n","null","88","88","1","swim-dual-task","","n","lowercase","172000","0","6","1ac270667d122e18f1348252b34ef89521d6731c98e9ff6ebf23cbbd23ccb01e","172003.69999998808","520.1999999880791","88","1","swim","","","","",""
"dual-task","null","null","null","","swim","arctic","670.5","","E","null","77","77","1","swim-dual-task","","E","uppercase","184000","0","6","1ac270667d122e18f1348252b34ef89521d6731c98e9ff6ebf23cbbd23ccb01e","184007.19999998808","670.5","77","1","swim","","","","",""
"dual-task","null","null","null","","swim","arctic","662.8000000119209","","t","null","88","88","1","swim-dual-task","","t","lowercase","194000","0","6","1ac270667d122e18f1348252b34ef89521d6731c98e9ff6ebf23cbbd23ccb01e","194019.59999999404","662.8000000119209","88","1","swim","","","","",""
"dual-task","null","null","null","","swim","arctic","518.3999999761581","","t","null","88","88","1","swim-dual-task","","t","lowercase","206000","0","6","1ac270667d122e18f1348252b34ef89521d6731c98e9ff6ebf23cbbd23ccb01e","206001.09999999404","518.3999999761581","88","1","swim","","","","",""
"dual-task","null","null","null","","swim","arctic","627.5999999940395","","g","null","88","88","1","swim-dual-task","","g","lowercase","220000","0","6","1ac270667d122e18f1348252b34ef89521d6731c98e9ff6ebf23cbbd23ccb01e","220003.40000000596","627.5999999940395","88","1","swim","","","","",""
"dual-task","null","null","null","","swim","arctic","566.5999999940395","","N","null","77","77","1","swim-dual-task","","N","uppercase","232000","0","6","1ac270667d122e18f1348252b34ef89521d6731c98e9ff6ebf23cbbd23ccb01e","232015.90000000596","566.5999999940395","77","1","swim","","","","",""
"dual-task","null","null","null","","swim","arctic","603.4000000059605","","E","null","77","77","1","swim-dual-task","","E","uppercase","242000","0","6","1ac270667d122e18f1348252b34ef89521d6731c98e9ff6ebf23cbbd23ccb01e","242013","603.4000000059605","77","1","swim","","","","",""
"dual-task","null","null","null","","swim","arctic","579.8000000119209","","e","null","88","88","1","swim-dual-task","","e","lowercase","256000","0","6","1ac270667d122e18f1348252b34ef89521d6731c98e9ff6ebf23cbbd23ccb01e","256050.5","579.8000000119209","88","1","swim","","","","",""
"dual-task","null","null","null","","swim","arctic","1098.199999988079","","T","null","77","77","1","swim-dual-task","","T","uppercase","262000","0","6","1ac270667d122e18f1348252b34ef89521d6731c98e9ff6ebf23cbbd23ccb01e","262007.40000000596","1098.199999988079","77","1","swim","","","","",""
"dual-task","null","null","null","","swim","arctic","546.5999999940395","","F","null","77","77","1","swim-dual-task","","F","uppercase","272000","0","6","1ac270667d122e18f1348252b34ef89521d6731c98e9ff6ebf23cbbd23ccb01e","272003.1999999881","546.5999999940395","77","1","swim","","","","",""
"dual-task","null","null","null","","swim","arctic","812.4000000059605","","G","null","77","77","1","swim-dual-task","","G","uppercase","280000","0","6","1ac270667d122e18f1348252b34ef89521d6731c98e9ff6ebf23cbbd23ccb01e","280012.90000000596","812.4000000059605","77","1","swim","","","","",""
"dual-task","null","null","null","","swim","arctic","532.7999999821186","","D","null","77","77","1","swim-dual-task","","D","uppercase","288000","0","6","1ac270667d122e18f1348252b34ef89521d6731c98e9ff6ebf23cbbd23ccb01e","288003.09999999404","532.7999999821186","77","1","swim","","","","",""
"dual-task","null","null","null","","swim","arctic","640.4000000059605","","H","null","77","77","1","swim-dual-task","","H","uppercase","300000","0","6","1ac270667d122e18f1348252b34ef89521d6731c98e9ff6ebf23cbbd23ccb01e","300002.8000000119","640.4000000059605","77","1","swim","","","","",""
"dual-task","null","null","null","","swim","arctic","876.7000000178814","","H","null","77","77","1","swim-dual-task","","H","uppercase","308000","0","6","1ac270667d122e18f1348252b34ef89521d6731c98e9ff6ebf23cbbd23ccb01e","308001.09999999404","876.7000000178814","77","1","swim","","","","",""
"dual-task","null","null","null","","swim","arctic","715.3000000119209","","T","null","77","77","1","swim-dual-task","","T","uppercase","314000","0","6","1ac270667d122e18f1348252b34ef89521d6731c98e9ff6ebf23cbbd23ccb01e","314004.1999999881","715.3000000119209","77","1","swim","","","","",""
"dual-task","null","null","null","","swim","arctic","706.3000000119209","","Q","null","77","77","1","swim-dual-task","","Q","uppercase","324000","0","6","1ac270667d122e18f1348252b34ef89521d6731c98e9ff6ebf23cbbd23ccb01e","324002.40000000596","706.3000000119209","77","1","swim","","","","",""
"dual-task","null","null","null","","swim","arctic","608.5999999940395","","F","null","77","77","1","swim-dual-task","","F","uppercase","334000","0","6","1ac270667d122e18f1348252b34ef89521d6731c98e9ff6ebf23cbbd23ccb01e","334001.1999999881","608.5999999940395","77","1","swim","","","","",""
"dual-task","null","null","null","","swim","arctic","590.4000000059605","","F","null","77","77","1","swim-dual-task","","F","uppercase","342000","0","6","1ac270667d122e18f1348252b34ef89521d6731c98e9ff6ebf23cbbd23ccb01e","342001.09999999404","590.4000000059605","77","1","swim","","","","",""
"dual-task","null","null","null","","swim","arctic","634.1999999880791","","g","null","88","88","1","swim-dual-task","","g","lowercase","350000","0","6","1ac270667d122e18f1348252b34ef89521d6731c98e9ff6ebf23cbbd23ccb01e","350002.6999999881","634.1999999880791","88","1","swim","","","","",""
"dual-task","null","null","null","","swim","arctic","510.19999998807907","","T","null","77","77","1","swim-dual-task","","T","uppercase","358000","0","6","1ac270667d122e18f1348252b34ef89521d6731c98e9ff6ebf23cbbd23ccb01e","358003.6999999881","510.19999998807907","77","1","swim","","","","",""
"dual-task","null","null","null","","swim","arctic","511.80000001192093","","g","null","88","88","1","swim-dual-task","","g","lowercase","368000","0","6","1ac270667d122e18f1348252b34ef89521d6731c98e9ff6ebf23cbbd23ccb01e","368002.59999999404","511.80000001192093","88","1","swim","","","","",""
"dual-task","null","null","null","","swim","arctic","569.7000000178814","","d","null","88","88","1","swim-dual-task","","d","lowercase","376000","0","6","1ac270667d122e18f1348252b34ef89521d6731c98e9ff6ebf23cbbd23ccb01e","376000.90000000596","569.7000000178814","88","1","swim","","","","",""
"dual-task","null","null","null","","swim","arctic","563.3000000119209","","B","null","77","77","1","swim-dual-task","","B","uppercase","386000","0","6","1ac270667d122e18f1348252b34ef89521d6731c98e9ff6ebf23cbbd23ccb01e","386013","563.3000000119209","77","1","swim","","","","",""
"dual-task","null","null","null","","swim","arctic","584.6999999880791","","A","null","88","77","0","swim-dual-task","","A","uppercase","396000","0","6","1ac270667d122e18f1348252b34ef89521d6731c98e9ff6ebf23cbbd23ccb01e","396006.40000000596","584.6999999880791","88","0","swim","","","","",""
"dual-task","null","null","null","","swim","arctic","544.5","","E","null","77","77","1","swim-dual-task","","E","uppercase","402000","0","6","1ac270667d122e18f1348252b34ef89521d6731c98e9ff6ebf23cbbd23ccb01e","402011.09999999404","544.5","77","1","swim","","","","",""
"dual-task","null","null","null","","swim","arctic","544.4000000059605","","H","null","77","77","1","swim-dual-task","","H","uppercase","414000","0","6","1ac270667d122e18f1348252b34ef89521d6731c98e9ff6ebf23cbbd23ccb01e","414022","544.4000000059605","77","1","swim","","","","",""
"dual-task","null","null","null","","swim","arctic","533.3000000119209","","N","null","77","77","1","swim-dual-task","","N","uppercase","426000","0","6","1ac270667d122e18f1348252b34ef89521d6731c98e9ff6ebf23cbbd23ccb01e","426012.5","533.3000000119209","77","1","swim","","","","",""
"dual-task","null","null","null","","swim","arctic","540","","q","null","88","88","1","swim-dual-task","","q","lowercase","434000","0","6","1ac270667d122e18f1348252b34ef89521d6731c98e9ff6ebf23cbbd23ccb01e","434032.3000000119","540","88","1","swim","","","","",""
"dual-task","null","null","null","","swim","arctic","575.3000000119209","","f","null","88","88","1","swim-dual-task","","f","lowercase","446000","0","6","1ac270667d122e18f1348252b34ef89521d6731c98e9ff6ebf23cbbd23ccb01e","446000.6999999881","575.3000000119209","88","1","swim","","","","",""
"dual-task","null","null","null","","swim","arctic","504.09999999403954","","q","null","88","88","1","swim-dual-task","","q","lowercase","452000","0","6","1ac270667d122e18f1348252b34ef89521d6731c98e9ff6ebf23cbbd23ccb01e","452003.3000000119","504.09999999403954","88","1","swim","","","","",""
"dual-task","null","null","null","","swim","arctic","944.8999999761581","","q","null","88","88","1","swim-dual-task","","q","lowercase","462000","0","6","1ac270667d122e18f1348252b34ef89521d6731c98e9ff6ebf23cbbd23ccb01e","462012.59999999404","944.8999999761581","88","1","swim","","","","",""
"dual-task","null","null","null","","swim","arctic","581","","R","null","77","77","1","swim-dual-task","","R","uppercase","468000","0","6","1ac270667d122e18f1348252b34ef89521d6731c98e9ff6ebf23cbbd23ccb01e","468007","581","77","1","swim","","","","",""
"dual-task","null","null","null","","swim","arctic","513.5","","q","null","88","88","1","swim-dual-task","","q","lowercase","480000","0","6","1ac270667d122e18f1348252b34ef89521d6731c98e9ff6ebf23cbbd23ccb01e","480002.6999999881","513.5","88","1","swim","","","","",""
"dual-task","null","null","null","","swim","arctic","559.1999999880791","","f","null","88","88","1","swim-dual-task","","f","lowercase","488000","0","6","1ac270667d122e18f1348252b34ef89521d6731c98e9ff6ebf23cbbd23ccb01e","488022.59999999404","559.1999999880791","88","1","swim","","","","",""
"dual-task","null","null","null","","swim","arctic","518.9000000059605","","T","null","77","77","1","swim-dual-task","","T","uppercase","496000","0","6","1ac270667d122e18f1348252b34ef89521d6731c98e9ff6ebf23cbbd23ccb01e","496002.59999999404","518.9000000059605","77","1","swim","","","","",""
"dual-task","null","null","null","","swim","arctic","546.0999999940395","","B","null","77","77","1","swim-dual-task","","B","uppercase","504000","0","6","1ac270667d122e18f1348252b34ef89521d6731c98e9ff6ebf23cbbd23ccb01e","504007","546.0999999940395","77","1","swim","","","","",""
"dual-task","null","null","null","","swim","arctic","519.5","","b","null","88","88","1","swim-dual-task","","b","lowercase","514000","0","6","1ac270667d122e18f1348252b34ef89521d6731c98e9ff6ebf23cbbd23ccb01e","514002.09999999404","519.5","88","1","swim","","","","",""
"dual-task","null","null","null","","swim","arctic","639.9000000059605","","f","null","88","88","1","swim-dual-task","","f","lowercase","526000","0","6","1ac270667d122e18f1348252b34ef89521d6731c98e9ff6ebf23cbbd23ccb01e","526002.3000000119","639.9000000059605","88","1","swim","","","","",""
"dual-task","null","null","null","","swim","arctic","541.7000000178814","","Q","null","77","77","1","swim-dual-task","","Q","uppercase","534000","0","6","1ac270667d122e18f1348252b34ef89521d6731c98e9ff6ebf23cbbd23ccb01e","534011.099999994","541.7000000178814","77","1","swim","","","","",""
"dual-task","null","null","null","","swim","arctic","479.5","","b","null","88","88","1","swim-dual-task","","b","lowercase","546000","0","6","1ac270667d122e18f1348252b34ef89521d6731c98e9ff6ebf23cbbd23ccb01e","546032.400000006","479.5","88","1","swim","","","","",""
"dual-task","null","null","null","","swim","arctic","540.5","","a","null","88","88","1","swim-dual-task","","a","lowercase","558000","0","6","1ac270667d122e18f1348252b34ef89521d6731c98e9ff6ebf23cbbd23ccb01e","558019.8000000119","540.5","88","1","swim","","","","",""
"dual-task","null","null","null","","swim","arctic","537.2999999821186","","B","null","77","77","1","swim-dual-task","","B","uppercase","570000","0","6","1ac270667d122e18f1348252b34ef89521d6731c98e9ff6ebf23cbbd23ccb01e","570003.6999999881","537.2999999821186","77","1","swim","","","","",""
"dual-task","null","null","null","","swim","arctic","611.5999999940395","","a","null","88","88","1","swim-dual-task","","a","lowercase","582000","0","6","1ac270667d122e18f1348252b34ef89521d6731c98e9ff6ebf23cbbd23ccb01e","582002.1999999881","611.5999999940395","88","1","swim","","","","",""
"dual-task","null","null","null","","swim","arctic","562.4000000059605","","r","null","88","88","1","swim-dual-task","","r","lowercase","594000","0","6","1ac270667d122e18f1348252b34ef89521d6731c98e9ff6ebf23cbbd23ccb01e","594020.8000000119","562.4000000059605","88","1","swim","","","","",""
"dual-task","null","null","null","","swim","arctic","678.4000000059605","","R","null","77","77","1","swim-dual-task","","R","uppercase","602000","0","6","1ac270667d122e18f1348252b34ef89521d6731c98e9ff6ebf23cbbd23ccb01e","602006.8000000119","678.4000000059605","77","1","swim","","","","",""
"dual-task","null","null","null","","swim","arctic","644.8000000119209","","t","null","88","88","1","swim-dual-task","","t","lowercase","616000","0","6","1ac270667d122e18f1348252b34ef89521d6731c98e9ff6ebf23cbbd23ccb01e","616000.6999999881","644.8000000119209","88","1","swim","","","","",""
"dual-task","null","null","null","","swim","arctic","565.7999999821186","","d","null","88","88","1","swim-dual-task","","d","lowercase","622000","0","6","1ac270667d122e18f1348252b34ef89521d6731c98e9ff6ebf23cbbd23ccb01e","622022.099999994","565.7999999821186","88","1","swim","","","","",""
"dual-task","null","null","null","","swim","arctic","564.5999999940395","","G","null","77","77","1","swim-dual-task","","G","uppercase","636000","0","6","1ac270667d122e18f1348252b34ef89521d6731c98e9ff6ebf23cbbd23ccb01e","636004.099999994","564.5999999940395","77","1","swim","","","","",""
"dual-task","null","null","null","","swim","arctic","444.2999999821186","","e","null","88","88","1","swim-dual-task","","e","lowercase","644000","0","6","1ac270667d122e18f1348252b34ef89521d6731c98e9ff6ebf23cbbd23ccb01e","644007.3000000119","444.2999999821186","88","1","swim","","","","",""
"dual-task","null","null","null","","swim","arctic","559.6999999880791","","A","null","77","77","1","swim-dual-task","","A","uppercase","654000","0","6","1ac270667d122e18f1348252b34ef89521d6731c98e9ff6ebf23cbbd23ccb01e","654012.400000006","559.6999999880791","77","1","swim","","","","",""
"dual-task","null","null","null","","swim","arctic","1665.0999999940395","","r","null","88","88","1","swim-dual-task","","r","lowercase","668000","0","6","1ac270667d122e18f1348252b34ef89521d6731c98e9ff6ebf23cbbd23ccb01e","668002.900000006","1665.0999999940395","88","1","swim","","","","",""
"dual-task","null","null","null","","swim","arctic","544.0999999940395","","Q","null","77","77","1","swim-dual-task","","Q","uppercase","676000","0","6","1ac270667d122e18f1348252b34ef89521d6731c98e9ff6ebf23cbbd23ccb01e","676000.900000006","544.0999999940395","77","1","swim","","","","",""
"dual-task","null","null","null","","swim","arctic","502.40000000596046","","A","null","88","77","0","swim-dual-task","","A","uppercase","686000","0","6","1ac270667d122e18f1348252b34ef89521d6731c98e9ff6ebf23cbbd23ccb01e","686004.900000006","502.40000000596046","88","0","swim","","","","",""
"dual-task","null","null","null","","swim","arctic","1562.7000000178814","","R","null","77","77","1","swim-dual-task","","R","uppercase","698000","0","6","1ac270667d122e18f1348252b34ef89521d6731c98e9ff6ebf23cbbd23ccb01e","698012.599999994","1562.7000000178814","77","1","swim","","","","",""
"dual-task","null","null","null","","swim","arctic","527.8000000119209","","d","null","88","88","1","swim-dual-task","","d","lowercase","708000","0","6","1ac270667d122e18f1348252b34ef89521d6731c98e9ff6ebf23cbbd23ccb01e","708010.599999994","527.8000000119209","88","1","swim","","","","",""
"dual-task","null","null","null","","swim","arctic","526.0999999940395","","h","null","88","88","1","swim-dual-task","","h","lowercase","720000","0","6","1ac270667d122e18f1348252b34ef89521d6731c98e9ff6ebf23cbbd23ccb01e","720012.400000006","526.0999999940395","88","1","swim","","","","",""
"dual-task","null","null","null","","swim","arctic","566","","A","null","77","77","1","swim-dual-task","","A","uppercase","728000","0","6","1ac270667d122e18f1348252b34ef89521d6731c98e9ff6ebf23cbbd23ccb01e","728013.099999994","566","77","1","swim","","","","",""
"dual-task","null","null","null","","swim","arctic","965.7000000178814","","h","null","88","88","1","swim-dual-task","","h","lowercase","740000","0","6","1ac270667d122e18f1348252b34ef89521d6731c98e9ff6ebf23cbbd23ccb01e","740006.1999999881","965.7000000178814","88","1","swim","","","","",""
"dual-task","null","null","null","","swim","arctic","626.8999999761581","","a","null","88","88","1","swim-dual-task","","a","lowercase","754000","0","6","1ac270667d122e18f1348252b34ef89521d6731c98e9ff6ebf23cbbd23ccb01e","754003.3000000119","626.8999999761581","88","1","swim","","","","",""
"dual-task","null","null","null","","swim","arctic","534.6000000238419","","b","null","88","88","1","swim-dual-task","","b","lowercase","762000","0","6","1ac270667d122e18f1348252b34ef89521d6731c98e9ff6ebf23cbbd23ccb01e","762005.599999994","534.6000000238419","88","1","swim","","","","",""
"dual-task","null","null","null","","swim","arctic","741.1999999880791","","Q","null","77","77","1","swim-dual-task","","Q","uppercase","770000","0","6","1ac270667d122e18f1348252b34ef89521d6731c98e9ff6ebf23cbbd23ccb01e","770002.1999999881","741.1999999880791","77","1","swim","","","","",""
"dual-task","null","null","null","","swim","arctic","552","","H","null","77","77","1","swim-dual-task","","H","uppercase","778000","0","6","1ac270667d122e18f1348252b34ef89521d6731c98e9ff6ebf23cbbd23ccb01e","778014.6999999881","552","77","1","swim","","","","",""
"dual-task","null","null","null","","swim","arctic","NA","","e","null","NA","88","0","swim-dual-task","","e","lowercase","786000","1","6","1ac270667d122e18f1348252b34ef89521d6731c98e9ff6ebf23cbbd23ccb01e","786002.8000000119","NA","NA","0","swim","","","","",""
"dual-task","null","null","null","","swim","arctic","835.8000000119209","","n","null","88","88","1","swim-dual-task","","n","lowercase","800000","0","6","1ac270667d122e18f1348252b34ef89521d6731c98e9ff6ebf23cbbd23ccb01e","800017.3000000119","835.8000000119209","88","1","swim","","","","",""
"audio-keyboard-response","29","982343","0.0-7.0-0.0-1.0","1ac270667d122e18f1348252b34ef89521d6731c98e9ff6ebf23cbbd23ccb01e","swim","arctic","null","","audio/story_swim.mp3","","null","","","","","","","","","","","","","","","","","","","",""
"html-button-response","30","994662","0.0-7.0-0.0-2.0","1ac270667d122e18f1348252b34ef89521d6731c98e9ff6ebf23cbbd23ccb01e","swim","arctic","12315","","<p>This concludes the story. Thank you for listening.</p><p>You will now answer some questions about the content of the story.</p>","0","","","","","","","","","","","","","","","","","","","","",""
"survey-multi-choice","31","1010238","0.0-7.0-0.0-3.0-0.0","1ac270667d122e18f1348252b34ef89521d6731c98e9ff6ebf23cbbd23ccb01e","swim","arctic","15478","","<b>What was the final step of the first swim test in the pool?</b>","","","","1","swim-comprehension","","","","","","","","","","","","","{""Q0"":""Tread water with hands above the water""}","","","",""
"survey-multi-choice","32","1020074","0.0-7.0-0.0-3.0-0.1","1ac270667d122e18f1348252b34ef89521d6731c98e9ff6ebf23cbbd23ccb01e","swim","arctic","9571","","<b>How many astronaut candidates reported for duty at the Johnson Space Center?</b>","","","","1","swim-comprehension","","","","","","","","","","","","","{""Q0"":""Forty-four""}","","","",""
"survey-multi-choice","33","1030953","0.0-7.0-0.0-3.0-0.2","1ac270667d122e18f1348252b34ef89521d6731c98e9ff6ebf23cbbd23ccb01e","swim","arctic","10608","","<b>What gave the narrator his greatest feeling of accomplishment?</b>","","","","1","swim-comprehension","","","","","","","","","","","","","{""Q0"":""Passing the water survival course""}","","","",""
"survey-multi-choice","34","1040952","0.0-7.0-0.0-3.0-0.3","1ac270667d122e18f1348252b34ef89521d6731c98e9ff6ebf23cbbd23ccb01e","swim","arctic","9741","","<b>What is the narrator afraid of, aside from the water?</b>","","","","1","swim-comprehension","","","","","","","","","","","","","{""Q0"":""Heights""}","","","",""
"survey-multi-choice","35","1075123","0.0-7.0-0.0-3.0-0.4","1ac270667d122e18f1348252b34ef89521d6731c98e9ff6ebf23cbbd23ccb01e","swim","arctic","33912","","<b>What were the astronaut candidates trained to do at the naval air station?</b>","","","","0","swim-comprehension","","","","","","","","","","","","","{""Q0"":""Live in space""}","","","",""
"survey-multi-choice","36","1098051","0.0-7.0-0.0-3.0-0.5","1ac270667d122e18f1348252b34ef89521d6731c98e9ff6ebf23cbbd23ccb01e","swim","arctic","22627","","<b>How did the narrator train for his swim test?</b>","","","","0","swim-comprehension","","","","","","","","","","","","","{""Q0"":""Swam at the lake every day""}","","","",""
"survey-multi-choice","37","1114169","0.0-7.0-0.0-3.0-0.6","1ac270667d122e18f1348252b34ef89521d6731c98e9ff6ebf23cbbd23ccb01e","swim","arctic","15859","","<b>Where is the home of naval aviation?</b>","","","","1","swim-comprehension","","","","","","","","","","","","","{""Q0"":""Pensacola""}","","","",""
"survey-multi-choice","38","1143293","0.0-7.0-0.0-3.0-0.7","1ac270667d122e18f1348252b34ef89521d6731c98e9ff6ebf23cbbd23ccb01e","swim","arctic","28859","","<b>How many times did the astronaut candidates have to complete the final exercise to pass?</b>","","","","1","swim-comprehension","","","","","","","","","","","","","{""Q0"":""Two""}","","","",""
"survey-multi-choice","39","1158230","0.0-7.0-0.0-3.0-0.8","1ac270667d122e18f1348252b34ef89521d6731c98e9ff6ebf23cbbd23ccb01e","swim","arctic","14679","","<b>How often does the narrator swim, now that he is a good swimmer?</b>","","","","0","swim-comprehension","","","","","","","","","","","","","{""Q0"":""Every weekend with his kids""}","","","",""
"survey-multi-choice","40","1168603","0.0-7.0-0.0-3.0-0.9","1ac270667d122e18f1348252b34ef89521d6731c98e9ff6ebf23cbbd23ccb01e","swim","arctic","10109","","<b>How many astronaut candidates passed the first swim test?</b>","","","","1","swim-comprehension","","","","","","","","","","","","","{""Q0"":""All of them""}","","","",""
"html-button-response","41","1171055","0.0-7.0-0.0-4.0","1ac270667d122e18f1348252b34ef89521d6731c98e9ff6ebf23cbbd23ccb01e","swim","arctic","2193","","<p>Thank you for your responses.</p><p>You will now answer some questions about your impressions of the story.</p>","0","","","","","","","","","","","","","","","","","","","","",""
"html-button-response","42","1174036","0.0-7.0-0.0-5.0-0.0","1ac270667d122e18f1348252b34ef89521d6731c98e9ff6ebf23cbbd23ccb01e","swim","arctic","2975","","E7","6","","","","swim-engagement","","","","","","","","","","","","","","7","enjoyment","",""
"html-button-response","43","1177175","0.0-7.0-0.0-5.0-0.1","1ac270667d122e18f1348252b34ef89521d6731c98e9ff6ebf23cbbd23ccb01e","swim","arctic","2870","","EE3","3","","","","swim-engagement","","","","","","","","","","","","","","4","emo-engage","",""
"html-button-response","44","1183345","0.0-7.0-0.0-5.0-0.2","1ac270667d122e18f1348252b34ef89521d6731c98e9ff6ebf23cbbd23ccb01e","swim","arctic","5916","","A1","0","","","","swim-engagement","","","","","","","","","","","","","","1","absorption","",""
"html-button-response","45","1188466","0.0-7.0-0.0-5.0-0.3","1ac270667d122e18f1348252b34ef89521d6731c98e9ff6ebf23cbbd23ccb01e","swim","arctic","4858","","MS2","6","","","","swim-engagement","","","","","","","","","","","","","","7","mental-sim","",""
"html-button-response","46","1193299","0.0-7.0-0.0-5.0-0.4","1ac270667d122e18f1348252b34ef89521d6731c98e9ff6ebf23cbbd23ccb01e","swim","arctic","4578","","EE1","6","","","","swim-engagement","","","","","","","","","","","","","","7","emo-engage","",""
"html-button-response","47","1207360","0.0-7.0-0.0-5.0-0.5","1ac270667d122e18f1348252b34ef89521d6731c98e9ff6ebf23cbbd23ccb01e","swim","arctic","13799","","A3","6","","","","swim-engagement","","","","","","","","","","","","","","7","absorption","",""
"html-button-response","48","1210688","0.0-7.0-0.0-5.0-0.6","1ac270667d122e18f1348252b34ef89521d6731c98e9ff6ebf23cbbd23ccb01e","swim","arctic","3072","","E8","6","","","","swim-engagement","","","","","","","","","","","","","","7","enjoyment","",""
"html-button-response","49","1217193","0.0-7.0-0.0-5.0-0.7","1ac270667d122e18f1348252b34ef89521d6731c98e9ff6ebf23cbbd23ccb01e","swim","arctic","6250","","A2","6","","","","swim-engagement","","","","","","","","","","","","","","7","absorption","",""
"html-button-response","50","1222497","0.0-7.0-0.0-5.0-0.8","1ac270667d122e18f1348252b34ef89521d6731c98e9ff6ebf23cbbd23ccb01e","swim","arctic","5047","","EE4","4","","","","swim-engagement","","","","","","","","","","","","","","5","emo-engage","",""
"html-button-response","51","1224782","0.0-7.0-0.0-5.0-0.9","1ac270667d122e18f1348252b34ef89521d6731c98e9ff6ebf23cbbd23ccb01e","swim","arctic","2031","","EE5","6","","","","swim-engagement","","","","","","","","","","","","","","7","emo-engage","",""
"html-button-response","52","1233683","0.0-7.0-0.0-5.0-0.10","1ac270667d122e18f1348252b34ef89521d6731c98e9ff6ebf23cbbd23ccb01e","swim","arctic","8647","","A5","3","","","","swim-engagement","","","","","","","","","","","","","","4","absorption","",""
"html-button-response","53","1242836","0.0-7.0-0.0-5.0-0.11","1ac270667d122e18f1348252b34ef89521d6731c98e9ff6ebf23cbbd23ccb01e","swim","arctic","8896","","E6","3","","","","swim-engagement","","","","","","","","","","","","","","4","enjoyment","",""
"html-button-response","54","1268210","0.0-7.0-0.0-5.0-0.12","1ac270667d122e18f1348252b34ef89521d6731c98e9ff6ebf23cbbd23ccb01e","swim","arctic","25112","","MS1","6","","","","swim-engagement","","","","","","","","","","","","","","7","mental-sim","",""
"html-button-response","55","1271970","0.0-7.0-0.0-5.0-0.13","1ac270667d122e18f1348252b34ef89521d6731c98e9ff6ebf23cbbd23ccb01e","swim","arctic","3494","","MS3","6","","","","swim-engagement","","","","","","","","","","","","","","7","mental-sim","",""
"html-button-response","56","1276715","0.0-7.0-0.0-5.0-0.14","1ac270667d122e18f1348252b34ef89521d6731c98e9ff6ebf23cbbd23ccb01e","swim","arctic","4490","","A4","4","","","","swim-engagement","","","","","","","","","","","","","","5","absorption","",""
"html-button-response","57","1278808","0.0-7.0-0.0-5.0-0.15","1ac270667d122e18f1348252b34ef89521d6731c98e9ff6ebf23cbbd23ccb01e","swim","arctic","1821","","E10","6","","","","swim-engagement","","","","","","","","","","","","","","7","enjoyment","",""
"html-button-response","58","1280434","0.0-7.0-0.0-5.0-0.16","1ac270667d122e18f1348252b34ef89521d6731c98e9ff6ebf23cbbd23ccb01e","swim","arctic","1368","","E1","6","","","","swim-engagement","","","","","","","","","","","","","","7","enjoyment","",""
"html-button-response","59","1282365","0.0-7.0-0.0-5.0-0.17","1ac270667d122e18f1348252b34ef89521d6731c98e9ff6ebf23cbbd23ccb01e","swim","arctic","1676","","EE2","6","","","","swim-engagement","","","","","","","","","","","","","","7","emo-engage","",""
"html-keyboard-response","60","1375684","0.0-7.0-1.0","1ac270667d122e18f1348252b34ef89521d6731c98e9ff6ebf23cbbd23ccb01e","swim","arctic","93061","","<p>Thank you for your responses. You will now listen to the second story.</p><p>Remember, as you listen to the story you will see letters appear on the screen.</br>As quickly as possible, press <b>&lt;x&gt;</b> if the letter is lowercase and <b>&lt;m&gt;</b> if the letter is uppercase.</p><p>Press <b>&lt;x&gt;</b> or <b>&lt;m&gt;</b> to begin listening!</p>","","88","","","","","","","","","","","","","","","","","","","",""
"html-keyboard-response","61","1376186","0.0-7.0-2.0-0.0","1ac270667d122e18f1348252b34ef89521d6731c98e9ff6ebf23cbbd23ccb01e","swim","arctic","null","","<div style=""font-size:60px;"" tabindex=""0"">+</div>","","null","","","","","","","","","","","","","","","","","","","",""
"dual-task","null","null","null","","swim","arctic","726.1999999880791","","D","null","77","77","1","arctic-dual-task","","D","uppercase","12000","0","6","1ac270667d122e18f1348252b34ef89521d6731c98e9ff6ebf23cbbd23ccb01e","12009.90000000596","726.1999999880791","77","1","arctic","","","","",""
"dual-task","null","null","null","","swim","arctic","464.7999999821186","","a","null","88","88","1","arctic-dual-task","","a","lowercase","24000","0","6","1ac270667d122e18f1348252b34ef89521d6731c98e9ff6ebf23cbbd23ccb01e","24014.69999998808","464.7999999821186","88","1","arctic","","","","",""
"dual-task","null","null","null","","swim","arctic","612.5","","q","null","88","88","1","arctic-dual-task","","q","lowercase","36000","0","6","1ac270667d122e18f1348252b34ef89521d6731c98e9ff6ebf23cbbd23ccb01e","36009.69999998808","612.5","88","1","arctic","","","","",""
"dual-task","null","null","null","","swim","arctic","564.3000000119209","","b","null","88","88","1","arctic-dual-task","","b","lowercase","46000","0","6","1ac270667d122e18f1348252b34ef89521d6731c98e9ff6ebf23cbbd23ccb01e","46004.09999999404","564.3000000119209","88","1","arctic","","","","",""
"dual-task","null","null","null","","swim","arctic","596.0999999940395","","Q","null","77","77","1","arctic-dual-task","","Q","uppercase","60000","0","6","1ac270667d122e18f1348252b34ef89521d6731c98e9ff6ebf23cbbd23ccb01e","60004.19999998808","596.0999999940395","77","1","arctic","","","","",""
"dual-task","null","null","null","","swim","arctic","539.9000000059605","","n","null","88","88","1","arctic-dual-task","","n","lowercase","70000","0","6","1ac270667d122e18f1348252b34ef89521d6731c98e9ff6ebf23cbbd23ccb01e","70009.59999999404","539.9000000059605","88","1","arctic","","","","",""
"dual-task","null","null","null","","swim","arctic","467.59999999403954","","d","null","88","88","1","arctic-dual-task","","d","lowercase","82000","0","6","1ac270667d122e18f1348252b34ef89521d6731c98e9ff6ebf23cbbd23ccb01e","82013.59999999404","467.59999999403954","88","1","arctic","","","","",""
"dual-task","null","null","null","","swim","arctic","536.1999999880791","","H","null","77","77","1","arctic-dual-task","","H","uppercase","92000","0","6","1ac270667d122e18f1348252b34ef89521d6731c98e9ff6ebf23cbbd23ccb01e","92008","536.1999999880791","77","1","arctic","","","","",""
"dual-task","null","null","null","","swim","arctic","514.9000000059605","","B","null","77","77","1","arctic-dual-task","","B","uppercase","104000","0","6","1ac270667d122e18f1348252b34ef89521d6731c98e9ff6ebf23cbbd23ccb01e","104004.09999999404","514.9000000059605","77","1","arctic","","","","",""
"dual-task","null","null","null","","swim","arctic","523.5999999940395","","r","null","88","88","1","arctic-dual-task","","r","lowercase","112000","0","6","1ac270667d122e18f1348252b34ef89521d6731c98e9ff6ebf23cbbd23ccb01e","112009.79999998212","523.5999999940395","88","1","arctic","","","","",""
"dual-task","null","null","null","","swim","arctic","516.5","","a","null","88","88","1","arctic-dual-task","","a","lowercase","120000","0","6","1ac270667d122e18f1348252b34ef89521d6731c98e9ff6ebf23cbbd23ccb01e","120009.69999998808","516.5","88","1","arctic","","","","",""
"dual-task","null","null","null","","swim","arctic","883.3000000119209","","n","null","88","88","1","arctic-dual-task","","n","lowercase","130000","0","6","1ac270667d122e18f1348252b34ef89521d6731c98e9ff6ebf23cbbd23ccb01e","130019.29999998212","883.3000000119209","88","1","arctic","","","","",""
"dual-task","null","null","null","","swim","arctic","1336","","t","null","88","88","1","arctic-dual-task","","t","lowercase","136000","0","6","1ac270667d122e18f1348252b34ef89521d6731c98e9ff6ebf23cbbd23ccb01e","136006.40000000596","1336","88","1","arctic","","","","",""
"dual-task","null","null","null","","swim","arctic","533.5999999940395","","e","null","88","88","1","arctic-dual-task","","e","lowercase","144000","0","6","1ac270667d122e18f1348252b34ef89521d6731c98e9ff6ebf23cbbd23ccb01e","144019.19999998808","533.5999999940395","88","1","arctic","","","","",""
"dual-task","null","null","null","","swim","arctic","544.4000000059605","","f","null","88","88","1","arctic-dual-task","","f","lowercase","158000","0","6","1ac270667d122e18f1348252b34ef89521d6731c98e9ff6ebf23cbbd23ccb01e","158014.29999998212","544.4000000059605","88","1","arctic","","","","",""
"dual-task","null","null","null","","swim","arctic","590.4000000059605","","Q","null","77","77","1","arctic-dual-task","","Q","uppercase","168000","0","6","1ac270667d122e18f1348252b34ef89521d6731c98e9ff6ebf23cbbd23ccb01e","168014.40000000596","590.4000000059605","77","1","arctic","","","","",""
"dual-task","null","null","null","","swim","arctic","585.8999999761581","","A","null","77","77","1","arctic-dual-task","","A","uppercase","178000","0","6","1ac270667d122e18f1348252b34ef89521d6731c98e9ff6ebf23cbbd23ccb01e","178009.5","585.8999999761581","77","1","arctic","","","","",""
"dual-task","null","null","null","","swim","arctic","726.8999999761581","","h","null","88","88","1","arctic-dual-task","","h","lowercase","188000","0","6","1ac270667d122e18f1348252b34ef89521d6731c98e9ff6ebf23cbbd23ccb01e","188009.40000000596","726.8999999761581","88","1","arctic","","","","",""
"dual-task","null","null","null","","swim","arctic","691.3999999761581","","e","null","88","88","1","arctic-dual-task","","e","lowercase","202000","0","6","1ac270667d122e18f1348252b34ef89521d6731c98e9ff6ebf23cbbd23ccb01e","202029.5","691.3999999761581","88","1","arctic","","","","",""
"dual-task","null","null","null","","swim","arctic","463.7000000178814","","q","null","88","88","1","arctic-dual-task","","q","lowercase","214000","0","6","1ac270667d122e18f1348252b34ef89521d6731c98e9ff6ebf23cbbd23ccb01e","214019.69999998808","463.7000000178814","88","1","arctic","","","","",""
"dual-task","null","null","null","","swim","arctic","969.5999999940395","","r","null","88","88","1","arctic-dual-task","","r","lowercase","220000","0","6","1ac270667d122e18f1348252b34ef89521d6731c98e9ff6ebf23cbbd23ccb01e","220009.19999998808","969.5999999940395","88","1","arctic","","","","",""
"dual-task","null","null","null","","swim","arctic","575.8000000119209","","B","null","77","77","1","arctic-dual-task","","B","uppercase","232000","0","6","1ac270667d122e18f1348252b34ef89521d6731c98e9ff6ebf23cbbd23ccb01e","232016.19999998808","575.8000000119209","77","1","arctic","","","","",""
"dual-task","null","null","null","","swim","arctic","791.3000000119209","","D","null","77","77","1","arctic-dual-task","","D","uppercase","240000","0","6","1ac270667d122e18f1348252b34ef89521d6731c98e9ff6ebf23cbbd23ccb01e","240003.90000000596","791.3000000119209","77","1","arctic","","","","",""
"dual-task","null","null","null","","swim","arctic","576.1000000238419","","N","null","77","77","1","arctic-dual-task","","N","uppercase","248000","0","6","1ac270667d122e18f1348252b34ef89521d6731c98e9ff6ebf23cbbd23ccb01e","248008.90000000596","576.1000000238419","77","1","arctic","","","","",""
"dual-task","null","null","null","","swim","arctic","504.40000000596046","","d","null","88","88","1","arctic-dual-task","","d","lowercase","258000","0","6","1ac270667d122e18f1348252b34ef89521d6731c98e9ff6ebf23cbbd23ccb01e","258003.90000000596","504.40000000596046","88","1","arctic","","","","",""
"dual-task","null","null","null","","swim","arctic","549.2000000178814","","F","null","77","77","1","arctic-dual-task","","F","uppercase","270000","0","6","1ac270667d122e18f1348252b34ef89521d6731c98e9ff6ebf23cbbd23ccb01e","270003.90000000596","549.2000000178814","77","1","arctic","","","","",""
"dual-task","null","null","null","","swim","arctic","553.5","","t","null","88","88","1","arctic-dual-task","","t","lowercase","282000","0","6","1ac270667d122e18f1348252b34ef89521d6731c98e9ff6ebf23cbbd23ccb01e","282019.09999999404","553.5","88","1","arctic","","","","",""
"dual-task","null","null","null","","swim","arctic","1457.699999988079","","h","null","88","88","1","arctic-dual-task","","h","lowercase","292000","0","6","1ac270667d122e18f1348252b34ef89521d6731c98e9ff6ebf23cbbd23ccb01e","292011.2999999821","1457.699999988079","88","1","arctic","","","","",""
"dual-task","null","null","null","","swim","arctic","619.3000000119209","","D","null","77","77","1","arctic-dual-task","","D","uppercase","300000","0","6","1ac270667d122e18f1348252b34ef89521d6731c98e9ff6ebf23cbbd23ccb01e","300009.5","619.3000000119209","77","1","arctic","","","","",""
"dual-task","null","null","null","","swim","arctic","910.0999999940395","","R","null","77","77","1","arctic-dual-task","","R","uppercase","306000","0","6","1ac270667d122e18f1348252b34ef89521d6731c98e9ff6ebf23cbbd23ccb01e","306009.5","910.0999999940395","77","1","arctic","","","","",""
"dual-task","null","null","null","","swim","arctic","541.6999999880791","","g","null","88","88","1","arctic-dual-task","","g","lowercase","312000","0","6","1ac270667d122e18f1348252b34ef89521d6731c98e9ff6ebf23cbbd23ccb01e","312014.1999999881","541.6999999880791","88","1","arctic","","","","",""
"dual-task","null","null","null","","swim","arctic","540.6000000238419","","E","null","77","77","1","arctic-dual-task","","E","uppercase","318000","0","6","1ac270667d122e18f1348252b34ef89521d6731c98e9ff6ebf23cbbd23ccb01e","318013.90000000596","540.6000000238419","77","1","arctic","","","","",""
"dual-task","null","null","null","","swim","arctic","588.0999999940395","","G","null","77","77","1","arctic-dual-task","","G","uppercase","332000","0","6","1ac270667d122e18f1348252b34ef89521d6731c98e9ff6ebf23cbbd23ccb01e","332007.6999999881","588.0999999940395","77","1","arctic","","","","",""
"dual-task","null","null","null","","swim","arctic","556.0999999940395","","e","null","88","88","1","arctic-dual-task","","e","lowercase","344000","0","6","1ac270667d122e18f1348252b34ef89521d6731c98e9ff6ebf23cbbd23ccb01e","344006.40000000596","556.0999999940395","88","1","arctic","","","","",""
"dual-task","null","null","null","","swim","arctic","575.9000000059605","","B","null","77","77","1","arctic-dual-task","","B","uppercase","350000","0","6","1ac270667d122e18f1348252b34ef89521d6731c98e9ff6ebf23cbbd23ccb01e","350009.7999999821","575.9000000059605","77","1","arctic","","","","",""
"dual-task","null","null","null","","swim","arctic","677.1999999880791","","N","null","77","77","1","arctic-dual-task","","N","uppercase","356000","0","6","1ac270667d122e18f1348252b34ef89521d6731c98e9ff6ebf23cbbd23ccb01e","356012.59999999404","677.1999999880791","77","1","arctic","","","","",""
"dual-task","null","null","null","","swim","arctic","520.8000000119209","","E","null","77","77","1","arctic-dual-task","","E","uppercase","368000","0","6","1ac270667d122e18f1348252b34ef89521d6731c98e9ff6ebf23cbbd23ccb01e","368019.09999999404","520.8000000119209","77","1","arctic","","","","",""
"dual-task","null","null","null","","swim","arctic","589.9000000059605","","Q","null","77","77","1","arctic-dual-task","","Q","uppercase","378000","0","6","1ac270667d122e18f1348252b34ef89521d6731c98e9ff6ebf23cbbd23ccb01e","378019","589.9000000059605","77","1","arctic","","","","",""
"dual-task","null","null","null","","swim","arctic","543.2999999821186","","a","null","88","88","1","arctic-dual-task","","a","lowercase","390000","0","6","1ac270667d122e18f1348252b34ef89521d6731c98e9ff6ebf23cbbd23ccb01e","390010.1999999881","543.2999999821186","88","1","arctic","","","","",""
"dual-task","null","null","null","","swim","arctic","1299.4000000059605","","G","null","77","77","1","arctic-dual-task","","G","uppercase","402000","0","6","1ac270667d122e18f1348252b34ef89521d6731c98e9ff6ebf23cbbd23ccb01e","402016.09999999404","1299.4000000059605","77","1","arctic","","","","",""
"dual-task","null","null","null","","swim","arctic","1760.0999999940395","","T","null","77","77","1","arctic-dual-task","","T","uppercase","408000","0","6","1ac270667d122e18f1348252b34ef89521d6731c98e9ff6ebf23cbbd23ccb01e","408009.5","1760.0999999940395","77","1","arctic","","","","",""
"dual-task","null","null","null","","swim","arctic","1515.2000000178814","","A","null","88","77","0","arctic-dual-task","","A","uppercase","414000","0","6","1ac270667d122e18f1348252b34ef89521d6731c98e9ff6ebf23cbbd23ccb01e","414013.7999999821","1515.2000000178814","88","0","arctic","","","","",""
"dual-task","null","null","null","","swim","arctic","867.1000000238419","","h","null","88","88","1","arctic-dual-task","","h","lowercase","428000","0","6","1ac270667d122e18f1348252b34ef89521d6731c98e9ff6ebf23cbbd23ccb01e","428021.2999999821","867.1000000238419","88","1","arctic","","","","",""
"dual-task","null","null","null","","swim","arctic","923","","T","null","77","77","1","arctic-dual-task","","T","uppercase","442000","0","6","1ac270667d122e18f1348252b34ef89521d6731c98e9ff6ebf23cbbd23ccb01e","442019.1999999881","923","77","1","arctic","","","","",""
"dual-task","null","null","null","","swim","arctic","433.39999997615814","","n","null","88","88","1","arctic-dual-task","","n","lowercase","448000","0","6","1ac270667d122e18f1348252b34ef89521d6731c98e9ff6ebf23cbbd23ccb01e","448036","433.39999997615814","88","1","arctic","","","","",""
"dual-task","null","null","null","","swim","arctic","1191.699999988079","","H","null","77","77","1","arctic-dual-task","","H","uppercase","458000","0","6","1ac270667d122e18f1348252b34ef89521d6731c98e9ff6ebf23cbbd23ccb01e","458018.6999999881","1191.699999988079","77","1","arctic","","","","",""
"dual-task","null","null","null","","swim","arctic","510.5","","h","null","88","88","1","arctic-dual-task","","h","lowercase","468000","0","6","1ac270667d122e18f1348252b34ef89521d6731c98e9ff6ebf23cbbd23ccb01e","468008.7999999821","510.5","88","1","arctic","","","","",""
"dual-task","null","null","null","","swim","arctic","464.90000000596046","","H","null","77","77","1","arctic-dual-task","","H","uppercase","476000","0","6","1ac270667d122e18f1348252b34ef89521d6731c98e9ff6ebf23cbbd23ccb01e","476013.7999999821","464.90000000596046","77","1","arctic","","","","",""
"dual-task","null","null","null","","swim","arctic","535.6999999880791","","R","null","77","77","1","arctic-dual-task","","R","uppercase","486000","0","6","1ac270667d122e18f1348252b34ef89521d6731c98e9ff6ebf23cbbd23ccb01e","486008.2999999821","535.6999999880791","77","1","arctic","","","","",""
"dual-task","null","null","null","","swim","arctic","596","","d","null","88","88","1","arctic-dual-task","","d","lowercase","496000","0","6","1ac270667d122e18f1348252b34ef89521d6731c98e9ff6ebf23cbbd23ccb01e","496009.2999999821","596","88","1","arctic","","","","",""
"dual-task","null","null","null","","swim","arctic","875.7999999821186","","t","null","77","88","0","arctic-dual-task","","t","lowercase","506000","0","6","1ac270667d122e18f1348252b34ef89521d6731c98e9ff6ebf23cbbd23ccb01e","506009.2999999821","875.7999999821186","77","0","arctic","","","","",""
"dual-task","null","null","null","","swim","arctic","561.3000000119209","","F","null","77","77","1","arctic-dual-task","","F","uppercase","516000","0","6","1ac270667d122e18f1348252b34ef89521d6731c98e9ff6ebf23cbbd23ccb01e","516003.6999999881","561.3000000119209","77","1","arctic","","","","",""
"dual-task","null","null","null","","swim","arctic","1016.1999999880791","","T","null","77","77","1","arctic-dual-task","","T","uppercase","524000","0","6","1ac270667d122e18f1348252b34ef89521d6731c98e9ff6ebf23cbbd23ccb01e","524009.2999999821","1016.1999999880791","77","1","arctic","","","","",""
"dual-task","null","null","null","","swim","arctic","581.1999999880791","","R","null","77","77","1","arctic-dual-task","","R","uppercase","532000","0","6","1ac270667d122e18f1348252b34ef89521d6731c98e9ff6ebf23cbbd23ccb01e","532022.099999994","581.1999999880791","77","1","arctic","","","","",""
"dual-task","null","null","null","","swim","arctic","523.7000000178814","","A","null","77","77","1","arctic-dual-task","","A","uppercase","540000","0","6","1ac270667d122e18f1348252b34ef89521d6731c98e9ff6ebf23cbbd23ccb01e","540005.099999994","523.7000000178814","77","1","arctic","","","","",""
"dual-task","null","null","null","","swim","arctic","740.0999999940395","","f","null","88","88","1","arctic-dual-task","","f","lowercase","548000","0","6","1ac270667d122e18f1348252b34ef89521d6731c98e9ff6ebf23cbbd23ccb01e","548009.599999994","740.0999999940395","88","1","arctic","","","","",""
"dual-task","null","null","null","","swim","arctic","1247.0999999940395","","r","null","88","88","1","arctic-dual-task","","r","lowercase","558000","0","6","1ac270667d122e18f1348252b34ef89521d6731c98e9ff6ebf23cbbd23ccb01e","558003.2999999821","1247.0999999940395","88","1","arctic","","","","",""
"dual-task","null","null","null","","swim","arctic","1275.4000000059605","","r","null","88","88","1","arctic-dual-task","","r","lowercase","566000","0","6","1ac270667d122e18f1348252b34ef89521d6731c98e9ff6ebf23cbbd23ccb01e","566010.7999999821","1275.4000000059605","88","1","arctic","","","","",""
"dual-task","null","null","null","","swim","arctic","857.6999999880791","","D","null","77","77","1","arctic-dual-task","","D","uppercase","574000","0","6","1ac270667d122e18f1348252b34ef89521d6731c98e9ff6ebf23cbbd23ccb01e","574009.599999994","857.6999999880791","77","1","arctic","","","","",""
"dual-task","null","null","null","","swim","arctic","528.1999999880791","","n","null","88","88","1","arctic-dual-task","","n","lowercase","582000","0","6","1ac270667d122e18f1348252b34ef89521d6731c98e9ff6ebf23cbbd23ccb01e","582004.099999994","528.1999999880791","88","1","arctic","","","","",""
"dual-task","null","null","null","","swim","arctic","573","","b","null","88","88","1","arctic-dual-task","","b","lowercase","588000","0","6","1ac270667d122e18f1348252b34ef89521d6731c98e9ff6ebf23cbbd23ccb01e","588009.2999999821","573","88","1","arctic","","","","",""
"dual-task","null","null","null","","swim","arctic","979.6999999880791","","d","null","88","88","1","arctic-dual-task","","d","lowercase","596000","0","6","1ac270667d122e18f1348252b34ef89521d6731c98e9ff6ebf23cbbd23ccb01e","596012.099999994","979.6999999880791","88","1","arctic","","","","",""
"dual-task","null","null","null","","swim","arctic","610.3000000119209","","G","null","77","77","1","arctic-dual-task","","G","uppercase","606000","0","6","1ac270667d122e18f1348252b34ef89521d6731c98e9ff6ebf23cbbd23ccb01e","606019.099999994","610.3000000119209","77","1","arctic","","","","",""
"dual-task","null","null","null","","swim","arctic","584.9000000059605","","f","null","88","88","1","arctic-dual-task","","f","lowercase","616000","0","6","1ac270667d122e18f1348252b34ef89521d6731c98e9ff6ebf23cbbd23ccb01e","616013.400000006","584.9000000059605","88","1","arctic","","","","",""
"dual-task","null","null","null","","swim","arctic","1365.0999999940395","","F","null","77","77","1","arctic-dual-task","","F","uppercase","626000","0","6","1ac270667d122e18f1348252b34ef89521d6731c98e9ff6ebf23cbbd23ccb01e","626004.5","1365.0999999940395","77","1","arctic","","","","",""
"dual-task","null","null","null","","swim","arctic","826.3000000119209","","b","null","88","88","1","arctic-dual-task","","b","lowercase","634000","0","6","1ac270667d122e18f1348252b34ef89521d6731c98e9ff6ebf23cbbd23ccb01e","634013.6999999881","826.3000000119209","88","1","arctic","","","","",""
"dual-task","null","null","null","","swim","arctic","1025.199999988079","","E","null","77","77","1","arctic-dual-task","","E","uppercase","640000","0","6","1ac270667d122e18f1348252b34ef89521d6731c98e9ff6ebf23cbbd23ccb01e","640007.099999994","1025.199999988079","77","1","arctic","","","","",""
"dual-task","null","null","null","","swim","arctic","521.8000000119209","","a","null","88","88","1","arctic-dual-task","","a","lowercase","648000","0","6","1ac270667d122e18f1348252b34ef89521d6731c98e9ff6ebf23cbbd23ccb01e","648039.1999999881","521.8000000119209","88","1","arctic","","","","",""
"dual-task","null","null","null","","swim","arctic","666.8000000119209","","F","null","77","77","1","arctic-dual-task","","F","uppercase","660000","0","6","1ac270667d122e18f1348252b34ef89521d6731c98e9ff6ebf23cbbd23ccb01e","660014.1999999881","666.8000000119209","77","1","arctic","","","","",""
"dual-task","null","null","null","","swim","arctic","609.5","","E","null","77","77","1","arctic-dual-task","","E","uppercase","668000","0","6","1ac270667d122e18f1348252b34ef89521d6731c98e9ff6ebf23cbbd23ccb01e","668013.900000006","609.5","77","1","arctic","","","","",""
"dual-task","null","null","null","","swim","arctic","987.0999999940395","","t","null","88","88","1","arctic-dual-task","","t","lowercase","676000","0","6","1ac270667d122e18f1348252b34ef89521d6731c98e9ff6ebf23cbbd23ccb01e","676014.400000006","987.0999999940395","88","1","arctic","","","","",""
"dual-task","null","null","null","","swim","arctic","568.1000000238419","","Q","null","77","77","1","arctic-dual-task","","Q","uppercase","686000","0","6","1ac270667d122e18f1348252b34ef89521d6731c98e9ff6ebf23cbbd23ccb01e","686014.2999999821","568.1000000238419","77","1","arctic","","","","",""
"dual-task","null","null","null","","swim","arctic","769.2000000178814","","R","null","77","77","1","arctic-dual-task","","R","uppercase","692000","0","6","1ac270667d122e18f1348252b34ef89521d6731c98e9ff6ebf23cbbd23ccb01e","692009.099999994","769.2000000178814","77","1","arctic","","","","",""
"dual-task","null","null","null","","swim","arctic","581.9000000059605","","g","null","88","88","1","arctic-dual-task","","g","lowercase","702000","0","6","1ac270667d122e18f1348252b34ef89521d6731c98e9ff6ebf23cbbd23ccb01e","702004","581.9000000059605","88","1","arctic","","","","",""
"dual-task","null","null","null","","swim","arctic","575.9000000059605","","b","null","88","88","1","arctic-dual-task","","b","lowercase","710000","0","6","1ac270667d122e18f1348252b34ef89521d6731c98e9ff6ebf23cbbd23ccb01e","710012.6999999881","575.9000000059605","88","1","arctic","","","","",""
"dual-task","null","null","null","","swim","arctic","516.2999999821186","","q","null","88","88","1","arctic-dual-task","","q","lowercase","716000","0","6","1ac270667d122e18f1348252b34ef89521d6731c98e9ff6ebf23cbbd23ccb01e","716036.2999999821","516.2999999821186","88","1","arctic","","","","",""
"dual-task","null","null","null","","swim","arctic","710.5999999940395","","T","null","77","77","1","arctic-dual-task","","T","uppercase","724000","0","6","1ac270667d122e18f1348252b34ef89521d6731c98e9ff6ebf23cbbd23ccb01e","724013.099999994","710.5999999940395","77","1","arctic","","","","",""
"dual-task","null","null","null","","swim","arctic","706.1999999880791","","N","null","77","77","1","arctic-dual-task","","N","uppercase","732000","0","6","1ac270667d122e18f1348252b34ef89521d6731c98e9ff6ebf23cbbd23ccb01e","732045.5","706.1999999880791","77","1","arctic","","","","",""
"dual-task","null","null","null","","swim","arctic","746","","B","null","77","77","1","arctic-dual-task","","B","uppercase","740000","0","6","1ac270667d122e18f1348252b34ef89521d6731c98e9ff6ebf23cbbd23ccb01e","740013.400000006","746","77","1","arctic","","","","",""
"dual-task","null","null","null","","swim","arctic","959.5999999940395","","N","null","77","77","1","arctic-dual-task","","N","uppercase","748000","0","6","1ac270667d122e18f1348252b34ef89521d6731c98e9ff6ebf23cbbd23ccb01e","748003.599999994","959.5999999940395","77","1","arctic","","","","",""
"dual-task","null","null","null","","swim","arctic","871.0999999940395","","f","null","88","88","1","arctic-dual-task","","f","lowercase","760000","0","6","1ac270667d122e18f1348252b34ef89521d6731c98e9ff6ebf23cbbd23ccb01e","760026.6999999881","871.0999999940395","88","1","arctic","","","","",""
"dual-task","null","null","null","","swim","arctic","747.3000000119209","","g","null","88","88","1","arctic-dual-task","","g","lowercase","770000","0","6","1ac270667d122e18f1348252b34ef89521d6731c98e9ff6ebf23cbbd23ccb01e","770009.599999994","747.3000000119209","88","1","arctic","","","","",""
"dual-task","null","null","null","","swim","arctic","917.0999999940395","","e","null","88","88","1","arctic-dual-task","","e","lowercase","776000","0","6","1ac270667d122e18f1348252b34ef89521d6731c98e9ff6ebf23cbbd23ccb01e","776003.7999999821","917.0999999940395","88","1","arctic","","","","",""
"dual-task","null","null","null","","swim","arctic","701.1999999880791","","H","null","77","77","1","arctic-dual-task","","H","uppercase","790000","0","6","1ac270667d122e18f1348252b34ef89521d6731c98e9ff6ebf23cbbd23ccb01e","790022.099999994","701.1999999880791","77","1","arctic","","","","",""
"audio-keyboard-response","62","2175049","0.0-7.0-2.0-1.0","1ac270667d122e18f1348252b34ef89521d6731c98e9ff6ebf23cbbd23ccb01e","swim","arctic","null","","audio/story_arctic_scrambled.mp3","","null","","","","","","","","","","","","","","","","","","","",""
"html-button-response","63","2177881","0.0-7.0-2.0-2.0","1ac270667d122e18f1348252b34ef89521d6731c98e9ff6ebf23cbbd23ccb01e","swim","arctic","2826","","<p>This concludes the story. Thank you for listening.</p><p>You will now answer some questions about the content of the story.</p>","0","","","","","","","","","","","","","","","","","","","","",""
"survey-multi-choice","64","2185877","0.0-7.0-2.0-3.0-0.0","1ac270667d122e18f1348252b34ef89521d6731c98e9ff6ebf23cbbd23ccb01e","swim","arctic","7968","","<b>How many sponsorships did the narrator receive to support her expedition?</b>","","","","0","arctic-comprehension","","","","","","","","","","","","","{""Q0"":""One""}","","","",""
"survey-multi-choice","65","2194379","0.0-7.0-2.0-3.0-0.1","1ac270667d122e18f1348252b34ef89521d6731c98e9ff6ebf23cbbd23ccb01e","swim","arctic","8175","","<b>How did the narrator&#39;s neighbour respond when she told him about her expedition?</b>","","","","0","arctic-comprehension","","","","","","","","","","","","","{""Q0"":""He said he was worried about her.""}","","","",""
"survey-multi-choice","66","2200456","0.0-7.0-2.0-3.0-0.2","1ac270667d122e18f1348252b34ef89521d6731c98e9ff6ebf23cbbd23ccb01e","swim","arctic","5791","","<b>What is the name of the narrator&#39;s neighbour?</b>","","","","0","arctic-comprehension","","","","","","","","","","","","","{""Q0"":""Doug""}","","","",""
"survey-multi-choice","67","2209874","0.0-7.0-2.0-3.0-0.3","1ac270667d122e18f1348252b34ef89521d6731c98e9ff6ebf23cbbd23ccb01e","swim","arctic","9090","","<b>How did the narrator&#39;s encounter with the polar bears end?</b>","","","","1","arctic-comprehension","","","","","","","","","","","","","{""Q0"":""The bears walked back to their den.""}","","","",""
"survey-multi-choice","68","2216674","0.0-7.0-2.0-3.0-0.4","1ac270667d122e18f1348252b34ef89521d6731c98e9ff6ebf23cbbd23ccb01e","swim","arctic","6518","","<b>Which dog on the narrator&#39;s dog team never followed instructions?</b>","","","","0","arctic-comprehension","","","","","","","","","","","","","{""Q0"":""Douggie-dog""}","","","",""
"survey-multi-choice","69","2225403","0.0-7.0-2.0-3.0-0.5","1ac270667d122e18f1348252b34ef89521d6731c98e9ff6ebf23cbbd23ccb01e","swim","arctic","8463","","<b>What was the objective of the narrator&#39;s expedition?</b>","","","","1","arctic-comprehension","","","","","","","","","","","","","{""Q0"":""Dogsled across Arctic America""}","","","",""
"survey-multi-choice","70","2234332","0.0-7.0-2.0-3.0-0.6","1ac270667d122e18f1348252b34ef89521d6731c98e9ff6ebf23cbbd23ccb01e","swim","arctic","8618","","<b>How did the narrator prepare for her expedition?</b>","","","","1","arctic-comprehension","","","","","","","","","","","","","{""Q0"":""Trained in Alaska learning how to dogsled""}","","","",""
"survey-multi-choice","71","2250702","0.0-7.0-2.0-3.0-0.7","1ac270667d122e18f1348252b34ef89521d6731c98e9ff6ebf23cbbd23ccb01e","swim","arctic","16058","","<b>What were the weather conditions in the Arctic like the winter of the narrator&#39;s expedition?</b>","","","","0","arctic-comprehension","","","","","","","","","","","","","{""Q0"":""It was the coldest winter in recorded history.""}","","","",""
"survey-multi-choice","72","2260730","0.0-7.0-2.0-3.0-0.8","1ac270667d122e18f1348252b34ef89521d6731c98e9ff6ebf23cbbd23ccb01e","swim","arctic","9758","","<b>What did the narrator do for leisure while in her tent?</b>","","","","1","arctic-comprehension","","","","","","","","","","","","","{""Q0"":""Read""}","","","",""
"survey-multi-choice","73","2269758","0.0-7.0-2.0-3.0-0.9","1ac270667d122e18f1348252b34ef89521d6731c98e9ff6ebf23cbbd23ccb01e","swim","arctic","8747","","<b>How did the dogs respond when they saw the bears?</b>","","","","0","arctic-comprehension","","","","","","","","","","","","","{""Q0"":""Barked aggressively""}","","","",""
"html-button-response","74","2271864","0.0-7.0-2.0-4.0","1ac270667d122e18f1348252b34ef89521d6731c98e9ff6ebf23cbbd23ccb01e","swim","arctic","1828","","<p>Thank you for your responses.</p><p>You will now answer some questions about your impressions of the story.</p>","0","","","","","","","","","","","","","","","","","","","","",""
"html-button-response","75","2274929","0.0-7.0-2.0-5.0-0.0","1ac270667d122e18f1348252b34ef89521d6731c98e9ff6ebf23cbbd23ccb01e","swim","arctic","3062","","EE4","0","","","","arctic-engagement","","","","","","","","","","","","","","1","emo-engage","",""
"html-button-response","76","2277928","0.0-7.0-2.0-5.0-0.1","1ac270667d122e18f1348252b34ef89521d6731c98e9ff6ebf23cbbd23ccb01e","swim","arctic","2737","","E7","5","","","","arctic-engagement","","","","","","","","","","","","","","6","enjoyment","",""
"html-button-response","77","2281523","0.0-7.0-2.0-5.0-0.2","1ac270667d122e18f1348252b34ef89521d6731c98e9ff6ebf23cbbd23ccb01e","swim","arctic","3340","","A5","0","","","","arctic-engagement","","","","","","","","","","","","","","1","absorption","",""
"html-button-response","78","2283333","0.0-7.0-2.0-5.0-0.3","1ac270667d122e18f1348252b34ef89521d6731c98e9ff6ebf23cbbd23ccb01e","swim","arctic","1556","","EE3","0","","","","arctic-engagement","","","","","","","","","","","","","","1","emo-engage","",""
"html-button-response","79","2287356","0.0-7.0-2.0-5.0-0.4","1ac270667d122e18f1348252b34ef89521d6731c98e9ff6ebf23cbbd23ccb01e","swim","arctic","3723","","EE1","0","","","","arctic-engagement","","","","","","","","","","","","","","1","emo-engage","",""
"html-button-response","80","2290650","0.0-7.0-2.0-5.0-0.5","1ac270667d122e18f1348252b34ef89521d6731c98e9ff6ebf23cbbd23ccb01e","swim","arctic","2996","","E8","1","","","","arctic-engagement","","","","","","","","","","","","","","2","enjoyment","",""
"html-button-response","81","2293418","0.0-7.0-2.0-5.0-0.6","1ac270667d122e18f1348252b34ef89521d6731c98e9ff6ebf23cbbd23ccb01e","swim","arctic","2512","","E10","0","","","","arctic-engagement","","","","","","","","","","","","","","1","enjoyment","",""
"html-button-response","82","2295232","0.0-7.0-2.0-5.0-0.7","1ac270667d122e18f1348252b34ef89521d6731c98e9ff6ebf23cbbd23ccb01e","swim","arctic","1560","","EE2","0","","","","arctic-engagement","","","","","","","","","","","","","","1","emo-engage","",""
"html-button-response","83","2300373","0.0-7.0-2.0-5.0-0.8","1ac270667d122e18f1348252b34ef89521d6731c98e9ff6ebf23cbbd23ccb01e","swim","arctic","4874","","A2","5","","","","arctic-engagement","","","","","","","","","","","","","","6","absorption","",""
"html-button-response","84","2302672","0.0-7.0-2.0-5.0-0.9","1ac270667d122e18f1348252b34ef89521d6731c98e9ff6ebf23cbbd23ccb01e","swim","arctic","2042","","E1","0","","","","arctic-engagement","","","","","","","","","","","","","","1","enjoyment","",""
"html-button-response","85","2304714","0.0-7.0-2.0-5.0-0.10","1ac270667d122e18f1348252b34ef89521d6731c98e9ff6ebf23cbbd23ccb01e","swim","arctic","1785","","EE5","0","","","","arctic-engagement","","","","","","","","","","","","","","1","emo-engage","",""
"html-button-response","86","2311844","0.0-7.0-2.0-5.0-0.11","1ac270667d122e18f1348252b34ef89521d6731c98e9ff6ebf23cbbd23ccb01e","swim","arctic","6864","","E6","0","","","","arctic-engagement","","","","","","","","","","","","","","1","enjoyment","",""
"html-button-response","87","2317558","0.0-7.0-2.0-5.0-0.12","1ac270667d122e18f1348252b34ef89521d6731c98e9ff6ebf23cbbd23ccb01e","swim","arctic","5456","","A4","0","","","","arctic-engagement","","","","","","","","","","","","","","1","absorption","",""
"html-button-response","88","2319487","0.0-7.0-2.0-5.0-0.13","1ac270667d122e18f1348252b34ef89521d6731c98e9ff6ebf23cbbd23ccb01e","swim","arctic","1664","","A3","0","","","","arctic-engagement","","","","","","","","","","","","","","1","absorption","",""
"html-button-response","89","2321348","0.0-7.0-2.0-5.0-0.14","1ac270667d122e18f1348252b34ef89521d6731c98e9ff6ebf23cbbd23ccb01e","swim","arctic","1594","","MS3","0","","","","arctic-engagement","","","","","","","","","","","","","","1","mental-sim","",""
"html-button-response","90","2326362","0.0-7.0-2.0-5.0-0.15","1ac270667d122e18f1348252b34ef89521d6731c98e9ff6ebf23cbbd23ccb01e","swim","arctic","4734","","A1","3","","","","arctic-engagement","","","","","","","","","","","","","","4","absorption","",""
"html-button-response","91","2334363","0.0-7.0-2.0-5.0-0.16","1ac270667d122e18f1348252b34ef89521d6731c98e9ff6ebf23cbbd23ccb01e","swim","arctic","7743","","MS2","1","","","","arctic-engagement","","","","","","","","","","","","","","2","mental-sim","",""
"html-button-response","92","2337907","0.0-7.0-2.0-5.0-0.17","1ac270667d122e18f1348252b34ef89521d6731c98e9ff6ebf23cbbd23ccb01e","swim","arctic","3258","","MS1","0","","","","arctic-engagement","","","","","","","","","","","","","","1","mental-sim","",""
"html-button-response","93","2339865","0.0-8.0","1ac270667d122e18f1348252b34ef89521d6731c98e9ff6ebf23cbbd23ccb01e","swim","arctic","1702","","<p>Thank you for your responses.</p><p>You will now answer some demographic, hearing, and general health questions.</p>","0","","","","","","","","","","","","","","","","","","","","",""
"survey-multi-choice","94","2342549","0.0-9.0-0.0","1ac270667d122e18f1348252b34ef89521d6731c98e9ff6ebf23cbbd23ccb01e","swim","arctic","2679","","","","","","","survey","","","","","","","","","","","","","{""Q0"":""Chrome""}","","","browser",""
"survey-text","95","2345730","0.0-9.0-1.0","1ac270667d122e18f1348252b34ef89521d6731c98e9ff6ebf23cbbd23ccb01e","swim","arctic","2895","","","","","","","survey","","","","","","","","","","","","","{""AGE"":""34""}","","","age","34"
"survey-multi-choice","96","2348597","0.0-9.0-2.0","1ac270667d122e18f1348252b34ef89521d6731c98e9ff6ebf23cbbd23ccb01e","swim","arctic","2604","","","","","","","survey","","","","","","","","","","","","","{""Q0"":""Female""}","","","gender","Female"
"survey-multi-choice","97","2350840","0.0-9.0-4.0","1ac270667d122e18f1348252b34ef89521d6731c98e9ff6ebf23cbbd23ccb01e","swim","arctic","1965","","","","","","","survey","","","","","","","","","","","","","{""Q0"":""Right""}","","","handedness","Right"
"survey-multi-choice","98","2353374","0.0-9.0-5.0","1ac270667d122e18f1348252b34ef89521d6731c98e9ff6ebf23cbbd23ccb01e","swim","arctic","2219","","","","","","","survey","","","","","","","","","","","","","{""Q0"":""Bachelor's Degree""}","","","education","Bachelor's Degree"
"survey-text","99","2357595","0.0-10.0-0.0","1ac270667d122e18f1348252b34ef89521d6731c98e9ff6ebf23cbbd23ccb01e","swim","arctic","3958","","","","","","","survey","","","","","","","","","","","","","{""L1"":""English""}","","","first-language","English"
"survey-text","100","2381817","0.0-10.0-1.0","1ac270667d122e18f1348252b34ef89521d6731c98e9ff6ebf23cbbd23ccb01e","swim","arctic","23897.69999998808","","","","","","","survey","","","","","","","","","","","","","{""L2name"":""Spanish"",""L2fluency"":""3"",""L3name"":"""",""L3fluency"":"""",""L4name"":"""",""L4fluency"":""""}","","","additional-languages","{""L2name"":""Spanish"",""L2fluency"":""3"",""L3name"":"""",""L3fluency"":"""",""L4name"":"""",""L4fluency"":""""}"
"survey-multi-choice","101","2384669","0.0-10.0-2.0","1ac270667d122e18f1348252b34ef89521d6731c98e9ff6ebf23cbbd23ccb01e","swim","arctic","2579","","","","","","","survey","","","","","","","","","","","","","{""Q0"":""No""}","","","hearing-aid","No"
"survey-multi-choice","102","2388642","0.0-10.0-3.0","1ac270667d122e18f1348252b34ef89521d6731c98e9ff6ebf23cbbd23ccb01e","swim","arctic","3707","","","","","","","survey","","","","","","","","","","","","","{""Q0"":""Sometimes""}","","","ringing-ears","Sometimes"
"survey-multi-choice","103","2394849","0.0-10.0-4.0-0.0","1ac270667d122e18f1348252b34ef89521d6731c98e9ff6ebf23cbbd23ccb01e","swim","arctic","5918","","","","","","","survey","","","","","","","","","","","","","{""Q0"":""Left Ear""}","","","ringing-ear-loc","Left Ear"
"survey-multi-choice","104","2398189","0.0-10.0-5.0","1ac270667d122e18f1348252b34ef89521d6731c98e9ff6ebf23cbbd23ccb01e","swim","arctic","3009","","","","","","","survey","","","","","","","","","","","","","{""Q0"":""No""}","","","neuro-disease","No"
"survey-multi-choice","105","2401592","0.0-10.0-7.0","1ac270667d122e18f1348252b34ef89521d6731c98e9ff6ebf23cbbd23ccb01e","swim","arctic","3131","","","","","","","survey","","","","","","","","","","","","","{""Q0"":""No""}","","","take-meds","No"
"survey-text","106","2407998","0.0-10.0-9.0","1ac270667d122e18f1348252b34ef89521d6731c98e9ff6ebf23cbbd23ccb01e","swim","arctic","5822.200000017881","","","","","","","survey","","","","","","","","","","","","","{""HC"":""N/A""}","","","health-concerns","N/A"
"html-button-response","107","2415062","0.0-11.0-0.0","1ac270667d122e18f1348252b34ef89521d6731c98e9ff6ebf23cbbd23ccb01e","swim","arctic","6805","","<p>How would you describe your musical skills/experiences?</p>","2","","","","survey","","","","","","","","","","","","","","","","music-skill","3"
"survey-multi-choice","108","2418621","0.0-11.0-1.0","1ac270667d122e18f1348252b34ef89521d6731c98e9ff6ebf23cbbd23ccb01e","swim","arctic","3296","","","","","","","survey","","","","","","","","","","","","","{""Q0"":""No""}","","","music-instrument","No"
"html-button-response","109","2423008","0.0-12.0-0.0","1ac270667d122e18f1348252b34ef89521d6731c98e9ff6ebf23cbbd23ccb01e","swim","arctic","4132","","<p>How would you describe your general hearing abilities?</p>","4","","","","survey","","","","","","","","","","","","","","","","ssq-01","5"
"html-button-response","110","2430880","0.0-12.0-1.0","1ac270667d122e18f1348252b34ef89521d6731c98e9ff6ebf23cbbd23ccb01e","swim","arctic","7613","","<p>When you talk with someone at a place that strongly reverberates/echoes (e.g., in a church or train station),</br>can you understand what the person says?</p>","10","","","","survey","","","","","","","","","","","","","","","","ssq-02","10"
"html-button-response","111","2436825","0.0-12.0-2.0","1ac270667d122e18f1348252b34ef89521d6731c98e9ff6ebf23cbbd23ccb01e","swim","arctic","5644","","<p>When you are with a group (~5 people) in a lively restaurant, can you follow the group's conversation?</p>","9","","","","survey","","","","","","","","","","","","","","","","ssq-03","9"
"html-button-response","112","2441748","0.0-12.0-3.0","1ac270667d122e18f1348252b34ef89521d6731c98e9ff6ebf23cbbd23ccb01e","swim","arctic","4650","","<p>Based on the sound of a bus or truck, can you tell whether it is moving towards or away from you?</p>","10","","","","survey","","","","","","","","","","","","","","","","ssq-04","10"
"html-button-response","113","2446248","0.0-12.0-4.0","1ac270667d122e18f1348252b34ef89521d6731c98e9ff6ebf23cbbd23ccb01e","swim","arctic","4242","","<p>When you are in an unknown environment, can you tell from which direction a brief sound originates?</p>","10","","","","survey","","","","","","","","","","","","","","","","ssq-05","10"
"html-button-response","114","2453165","0.0-12.0-5.0","1ac270667d122e18f1348252b34ef89521d6731c98e9ff6ebf23cbbd23ccb01e","swim","arctic","6657","","<p>Are you able to ignore distracting sounds when you concentrate on a specific aspect of your acoustic surrounding?</p>","8","","","","survey","","","","","","","","","","","","","","","","ssq-06","8"
"fullscreen","115","2454480","0.0-13.0","1ac270667d122e18f1348252b34ef89521d6731c98e9ff6ebf23cbbd23ccb01e","swim","arctic","","","","","","","","","true","","","","","","","","","","","","","","","",""
