"trial_type","trial_index","time_elapsed","internal_node_id","ParticipantID","firstStory","scramStory","rt","url","stimulus","button_pressed","key_press","correctRESP","correct","designation","success","letterStim","letterType","ONSET","TIMEOUT","CONDITION","Participant","ONSET_ACTUAL","RT","RESP","ACC","STORY","responses","response","type","surveyQuestion","QRESP"
"pavlovia","0","2","0.0-0.0","9fc4add2f7a58957a2368529c5bb616e6ab7255fb4b75e23937e2e2aa581e81b","swim","arctic","","","","","","","","","","","","","","","","","","","","","","","","",""
"external-html","1","5234","0.0-1.0","9fc4add2f7a58957a2368529c5bb616e6ab7255fb4b75e23937e2e2aa581e81b","swim","arctic","5083","consent/consent_updated.html","","","","","","","","","","","","","","","","","","","","","","",""
"html-button-response","2","233709","0.0-2.0-0.0","9fc4add2f7a58957a2368529c5bb616e6ab7255fb4b75e23937e2e2aa581e81b","swim","arctic","228475","","<p>Before we begin the main task, you will complete a short volume calibration and headphone check.</p><p>Please make sure you are in a quiet listening environment, that you are wearing headphones, and that your computer's volume is turned on.<p></p>","0","","","","","","","","","","","","","","","","","","","","",""
"html-button-response","3","240152","0.0-2.0-1.0","9fc4add2f7a58957a2368529c5bb616e6ab7255fb4b75e23937e2e2aa581e81b","swim","arctic","6191","","<p>The volume calibration will be first.</p><p>You will hear a thirty-second noise. Please adjust your computer's volume so that this noise is being presented at a comfortable level.<p></p>","0","","","","","","","","","","","","","","","","","","","","",""
"audio-button-response","4","261405","0.0-2.0-2.0","9fc4add2f7a58957a2368529c5bb616e6ab7255fb4b75e23937e2e2aa581e81b","swim","arctic","20996","","audio/volumetest.mp3","0","","","","","","","","","","","","","","","","","","","","",""
"html-keyboard-response","5","268835","0.0-3.0-0.0","9fc4add2f7a58957a2368529c5bb616e6ab7255fb4b75e23937e2e2aa581e81b","swim","arctic","7430","","<p>You will now complete a short headphone check.</p><p>On each trial, you will hear three tones. One of these tones will be quieter than the others. Your task is to identify whether the quiet tone occurred first, second, or third.</p><p>There are six trials in total.<p></p><p></p>(Press SPACEBAR to begin)","","32","","","","","","","","","","","","","","","","","","","",""
"html-keyboard-response","6","269589","0.0-3.0-1.0-0.0","9fc4add2f7a58957a2368529c5bb616e6ab7255fb4b75e23937e2e2aa581e81b","swim","arctic","null","","<div style=""font-size:60px;"">+</div>","","null","","","","","","","","","","","","","","","","","","","",""
"audio-button-response","7","273828","0.0-3.0-1.0-1.0","9fc4add2f7a58957a2368529c5bb616e6ab7255fb4b75e23937e2e2aa581e81b","swim","arctic","4237","","audio/t2_1.mp3","1","","1","1","headphone-test","","","","","","","","","","","","","","","","",""
"html-keyboard-response","8","274338","0.0-3.0-1.0-2.0","9fc4add2f7a58957a2368529c5bb616e6ab7255fb4b75e23937e2e2aa581e81b","swim","arctic","null","","<p>Correct</p>","","null","","","","","","","","","","","","","","","","","","","",""
"html-keyboard-response","9","274851","0.0-3.0-1.0-0.1","9fc4add2f7a58957a2368529c5bb616e6ab7255fb4b75e23937e2e2aa581e81b","swim","arctic","null","","<div style=""font-size:60px;"">+</div>","","null","","","","","","","","","","","","","","","","","","","",""
"audio-button-response","10","278879","0.0-3.0-1.0-1.1","9fc4add2f7a58957a2368529c5bb616e6ab7255fb4b75e23937e2e2aa581e81b","swim","arctic","4027","","audio/t3_1.mp3","2","","2","1","headphone-test","","","","","","","","","","","","","","","","",""
"html-keyboard-response","11","279383","0.0-3.0-1.0-2.1","9fc4add2f7a58957a2368529c5bb616e6ab7255fb4b75e23937e2e2aa581e81b","swim","arctic","null","","<p>Correct</p>","","null","","","","","","","","","","","","","","","","","","","",""
"html-keyboard-response","12","279898","0.0-3.0-1.0-0.2","9fc4add2f7a58957a2368529c5bb616e6ab7255fb4b75e23937e2e2aa581e81b","swim","arctic","null","","<div style=""font-size:60px;"">+</div>","","null","","","","","","","","","","","","","","","","","","","",""
"audio-button-response","13","283689","0.0-3.0-1.0-1.2","9fc4add2f7a58957a2368529c5bb616e6ab7255fb4b75e23937e2e2aa581e81b","swim","arctic","3790","","audio/t1_1.mp3","0","","0","1","headphone-test","","","","","","","","","","","","","","","","",""
"html-keyboard-response","14","284192","0.0-3.0-1.0-2.2","9fc4add2f7a58957a2368529c5bb616e6ab7255fb4b75e23937e2e2aa581e81b","swim","arctic","null","","<p>Correct</p>","","null","","","","","","","","","","","","","","","","","","","",""
"html-keyboard-response","15","284707","0.0-3.0-1.0-0.3","9fc4add2f7a58957a2368529c5bb616e6ab7255fb4b75e23937e2e2aa581e81b","swim","arctic","null","","<div style=""font-size:60px;"">+</div>","","null","","","","","","","","","","","","","","","","","","","",""
"audio-button-response","16","288703","0.0-3.0-1.0-1.3","9fc4add2f7a58957a2368529c5bb616e6ab7255fb4b75e23937e2e2aa581e81b","swim","arctic","3995","","audio/t3_2.mp3","2","","2","1","headphone-test","","","","","","","","","","","","","","","","",""
"html-keyboard-response","17","289204","0.0-3.0-1.0-2.3","9fc4add2f7a58957a2368529c5bb616e6ab7255fb4b75e23937e2e2aa581e81b","swim","arctic","null","","<p>Correct</p>","","null","","","","","","","","","","","","","","","","","","","",""
"html-keyboard-response","18","289716","0.0-3.0-1.0-0.4","9fc4add2f7a58957a2368529c5bb616e6ab7255fb4b75e23937e2e2aa581e81b","swim","arctic","null","","<div style=""font-size:60px;"">+</div>","","null","","","","","","","","","","","","","","","","","","","",""
"audio-button-response","19","292426","0.0-3.0-1.0-1.4","9fc4add2f7a58957a2368529c5bb616e6ab7255fb4b75e23937e2e2aa581e81b","swim","arctic","2707","","audio/t2_2.mp3","1","","1","1","headphone-test","","","","","","","","","","","","","","","","",""
"html-keyboard-response","20","292935","0.0-3.0-1.0-2.4","9fc4add2f7a58957a2368529c5bb616e6ab7255fb4b75e23937e2e2aa581e81b","swim","arctic","null","","<p>Correct</p>","","null","","","","","","","","","","","","","","","","","","","",""
"html-keyboard-response","21","293451","0.0-3.0-1.0-0.5","9fc4add2f7a58957a2368529c5bb616e6ab7255fb4b75e23937e2e2aa581e81b","swim","arctic","null","","<div style=""font-size:60px;"">+</div>","","null","","","","","","","","","","","","","","","","","","","",""
"audio-button-response","22","294973","0.0-3.0-1.0-1.5","9fc4add2f7a58957a2368529c5bb616e6ab7255fb4b75e23937e2e2aa581e81b","swim","arctic","1522","","audio/t1_2.mp3","0","","0","1","headphone-test","","","","","","","","","","","","","","","","",""
"html-keyboard-response","23","295486","0.0-3.0-1.0-2.5","9fc4add2f7a58957a2368529c5bb616e6ab7255fb4b75e23937e2e2aa581e81b","swim","arctic","null","","<p>Correct</p>","","null","","","","","","","","","","","","","","","","","","","",""
"fullscreen","24","298656","0.0-4.0","9fc4add2f7a58957a2368529c5bb616e6ab7255fb4b75e23937e2e2aa581e81b","swim","arctic","","","","","","","","","true","","","","","","","","","","","","","","","",""
"html-button-response","25","346066","0.0-5.0-0.0","9fc4add2f7a58957a2368529c5bb616e6ab7255fb4b75e23937e2e2aa581e81b","swim","arctic","47408","","<p>There are two blocks to this experiment.</p><p>In each block, you will hear a ~13.5 minute story. One of the stories will be scrambled. Please listen carefully to both stories and understand them as best you can.</p><p>After each story, you will be asked some questions to assess your comprehension.</p>","0","","","","","","","","","","","","","","","","","","","","",""
"html-button-response","26","365705","0.0-5.0-1.0","9fc4add2f7a58957a2368529c5bb616e6ab7255fb4b75e23937e2e2aa581e81b","swim","arctic","19639","","<p>During each story, there will be an additional task.</p><p>A letter will occasionally appear on the screen.</br>Your job is to - as quickly as you can - decide whether the letter is lowercase or uppercase and press one of two keys on the keyboard:</p><p>If the letter is <b>lowercase</b>, press key &lt;<b>x</b>&gt;.</p><p>If the letter is <b>uppercase</b>, press key &lt;<b>m</b>&gt;.</p>","0","","","","","","","","","","","","","","","","","","","","",""
"html-keyboard-response","27","372988","0.0-5.0-2.0","9fc4add2f7a58957a2368529c5bb616e6ab7255fb4b75e23937e2e2aa581e81b","swim","arctic","7283","","<p>Because we want your responses to be as quick as possible, please keep your index fingers over the keys while listening.</p><p>Each block lasts about 20 minutes.</p><p><b>Press &lt;x&gt; or &lt;m&gt; to start the first block!</b></p>","","88","","","","","","","","","","","","","","","","","","","",""
"html-keyboard-response","28","373491","0.0-7.0-0.0-0.0","9fc4add2f7a58957a2368529c5bb616e6ab7255fb4b75e23937e2e2aa581e81b","swim","arctic","null","","<div style=""font-size:60px;"" tabindex=""0"">+</div>","","null","","","","","","","","","","","","","","","","","","","",""
"dual-task","null","null","null","","swim","arctic","476.5","","A","null","77","77","1","swim-dual-task","","A","uppercase","10000","0","1","9fc4add2f7a58957a2368529c5bb616e6ab7255fb4b75e23937e2e2aa581e81b","10004.199999999255","476.5","77","1","swim","","","","",""
"dual-task","null","null","null","","swim","arctic","632.6999999992549","","F","null","77","77","1","swim-dual-task","","F","uppercase","18000","0","1","9fc4add2f7a58957a2368529c5bb616e6ab7255fb4b75e23937e2e2aa581e81b","18008.900000002235","632.6999999992549","77","1","swim","","","","",""
"dual-task","null","null","null","","swim","arctic","602.3999999985099","","G","null","77","77","1","swim-dual-task","","G","uppercase","28000","0","1","9fc4add2f7a58957a2368529c5bb616e6ab7255fb4b75e23937e2e2aa581e81b","28003.900000002235","602.3999999985099","77","1","swim","","","","",""
"dual-task","null","null","null","","swim","arctic","494.69999999925494","","B","null","77","77","1","swim-dual-task","","B","uppercase","40000","0","1","9fc4add2f7a58957a2368529c5bb616e6ab7255fb4b75e23937e2e2aa581e81b","40008.800000000745","494.69999999925494","77","1","swim","","","","",""
"dual-task","null","null","null","","swim","arctic","511.30000000074506","","f","null","88","88","1","swim-dual-task","","f","lowercase","54000","0","1","9fc4add2f7a58957a2368529c5bb616e6ab7255fb4b75e23937e2e2aa581e81b","54014.10000000149","511.30000000074506","88","1","swim","","","","",""
"dual-task","null","null","null","","swim","arctic","577.9000000022352","","a","null","88","88","1","swim-dual-task","","a","lowercase","62000","0","1","9fc4add2f7a58957a2368529c5bb616e6ab7255fb4b75e23937e2e2aa581e81b","62014.5","577.9000000022352","88","1","swim","","","","",""
"dual-task","null","null","null","","swim","arctic","451","","N","null","77","77","1","swim-dual-task","","N","uppercase","72000","0","1","9fc4add2f7a58957a2368529c5bb616e6ab7255fb4b75e23937e2e2aa581e81b","72013.60000000149","451","77","1","swim","","","","",""
"dual-task","null","null","null","","swim","arctic","653.3000000007451","","b","null","88","88","1","swim-dual-task","","b","lowercase","82000","0","1","9fc4add2f7a58957a2368529c5bb616e6ab7255fb4b75e23937e2e2aa581e81b","82005","653.3000000007451","88","1","swim","","","","",""
"dual-task","null","null","null","","swim","arctic","715.9000000022352","","Q","null","77","77","1","swim-dual-task","","Q","uppercase","94000","0","1","9fc4add2f7a58957a2368529c5bb616e6ab7255fb4b75e23937e2e2aa581e81b","94004.30000000075","715.9000000022352","77","1","swim","","","","",""
"dual-task","null","null","null","","swim","arctic","514.5","","H","null","88","77","0","swim-dual-task","","H","uppercase","108000","0","1","9fc4add2f7a58957a2368529c5bb616e6ab7255fb4b75e23937e2e2aa581e81b","108005.19999999925","514.5","88","0","swim","","","","",""
"dual-task","null","null","null","","swim","arctic","487.30000000074506","","E","null","77","77","1","swim-dual-task","","E","uppercase","116000","0","1","9fc4add2f7a58957a2368529c5bb616e6ab7255fb4b75e23937e2e2aa581e81b","116008.90000000224","487.30000000074506","77","1","swim","","","","",""
"dual-task","null","null","null","","swim","arctic","460.30000000074506","","H","null","77","77","1","swim-dual-task","","H","uppercase","124000","0","1","9fc4add2f7a58957a2368529c5bb616e6ab7255fb4b75e23937e2e2aa581e81b","124009","460.30000000074506","77","1","swim","","","","",""
"dual-task","null","null","null","","swim","arctic","529.6999999992549","","h","null","88","88","1","swim-dual-task","","h","lowercase","136000","0","1","9fc4add2f7a58957a2368529c5bb616e6ab7255fb4b75e23937e2e2aa581e81b","136006.30000000075","529.6999999992549","88","1","swim","","","","",""
"dual-task","null","null","null","","swim","arctic","594.8999999985099","","g","null","88","88","1","swim-dual-task","","g","lowercase","150000","0","1","9fc4add2f7a58957a2368529c5bb616e6ab7255fb4b75e23937e2e2aa581e81b","150006.30000000075","594.8999999985099","88","1","swim","","","","",""
"dual-task","null","null","null","","swim","arctic","480.29999999701977","","d","null","88","88","1","swim-dual-task","","d","lowercase","162000","0","1","9fc4add2f7a58957a2368529c5bb616e6ab7255fb4b75e23937e2e2aa581e81b","162014.69999999925","480.29999999701977","88","1","swim","","","","",""
"dual-task","null","null","null","","swim","arctic","505.5","","f","null","88","88","1","swim-dual-task","","f","lowercase","174000","0","1","9fc4add2f7a58957a2368529c5bb616e6ab7255fb4b75e23937e2e2aa581e81b","174005.69999999925","505.5","88","1","swim","","","","",""
"dual-task","null","null","null","","swim","arctic","645.3999999985099","","E","null","77","77","1","swim-dual-task","","E","uppercase","184000","0","1","9fc4add2f7a58957a2368529c5bb616e6ab7255fb4b75e23937e2e2aa581e81b","184005.6000000015","645.3999999985099","77","1","swim","","","","",""
"dual-task","null","null","null","","swim","arctic","660.8000000007451","","a","null","88","88","1","swim-dual-task","","a","lowercase","196000","0","1","9fc4add2f7a58957a2368529c5bb616e6ab7255fb4b75e23937e2e2aa581e81b","196018.69999999925","660.8000000007451","88","1","swim","","","","",""
"dual-task","null","null","null","","swim","arctic","506.19999999925494","","F","null","77","77","1","swim-dual-task","","F","uppercase","210000","0","1","9fc4add2f7a58957a2368529c5bb616e6ab7255fb4b75e23937e2e2aa581e81b","210011.1000000015","506.19999999925494","77","1","swim","","","","",""
"dual-task","null","null","null","","swim","arctic","536.3000000007451","","a","null","88","88","1","swim-dual-task","","a","lowercase","220000","0","1","9fc4add2f7a58957a2368529c5bb616e6ab7255fb4b75e23937e2e2aa581e81b","220004.90000000224","536.3000000007451","88","1","swim","","","","",""
"dual-task","null","null","null","","swim","arctic","577.0999999977648","","n","null","88","88","1","swim-dual-task","","n","lowercase","230000","0","1","9fc4add2f7a58957a2368529c5bb616e6ab7255fb4b75e23937e2e2aa581e81b","230009.19999999925","577.0999999977648","88","1","swim","","","","",""
"dual-task","null","null","null","","swim","arctic","544.3999999985099","","d","null","88","88","1","swim-dual-task","","d","lowercase","238000","0","1","9fc4add2f7a58957a2368529c5bb616e6ab7255fb4b75e23937e2e2aa581e81b","238013.69999999925","544.3999999985099","88","1","swim","","","","",""
"dual-task","null","null","null","","swim","arctic","674.5999999977648","","b","null","88","88","1","swim-dual-task","","b","lowercase","246000","0","1","9fc4add2f7a58957a2368529c5bb616e6ab7255fb4b75e23937e2e2aa581e81b","246001.69999999925","674.5999999977648","88","1","swim","","","","",""
"dual-task","null","null","null","","swim","arctic","530.5","","t","null","88","88","1","swim-dual-task","","t","lowercase","258000","0","1","9fc4add2f7a58957a2368529c5bb616e6ab7255fb4b75e23937e2e2aa581e81b","258008.69999999925","530.5","88","1","swim","","","","",""
"dual-task","null","null","null","","swim","arctic","626.7999999970198","","g","null","88","88","1","swim-dual-task","","g","lowercase","268000","0","1","9fc4add2f7a58957a2368529c5bb616e6ab7255fb4b75e23937e2e2aa581e81b","268019","626.7999999970198","88","1","swim","","","","",""
"dual-task","null","null","null","","swim","arctic","487.5","","h","null","88","88","1","swim-dual-task","","h","lowercase","282000","0","1","9fc4add2f7a58957a2368529c5bb616e6ab7255fb4b75e23937e2e2aa581e81b","282008.69999999925","487.5","88","1","swim","","","","",""
"dual-task","null","null","null","","swim","arctic","532.8999999985099","","r","null","88","88","1","swim-dual-task","","r","lowercase","288000","0","1","9fc4add2f7a58957a2368529c5bb616e6ab7255fb4b75e23937e2e2aa581e81b","288009","532.8999999985099","88","1","swim","","","","",""
"dual-task","null","null","null","","swim","arctic","527.3000000007451","","q","null","88","88","1","swim-dual-task","","q","lowercase","302000","0","1","9fc4add2f7a58957a2368529c5bb616e6ab7255fb4b75e23937e2e2aa581e81b","302004.40000000224","527.3000000007451","88","1","swim","","","","",""
"dual-task","null","null","null","","swim","arctic","497.80000000074506","","n","null","88","88","1","swim-dual-task","","n","lowercase","312000","0","1","9fc4add2f7a58957a2368529c5bb616e6ab7255fb4b75e23937e2e2aa581e81b","312000.80000000075","497.80000000074506","88","1","swim","","","","",""
"dual-task","null","null","null","","swim","arctic","570.8999999985099","","D","null","77","77","1","swim-dual-task","","D","uppercase","322000","0","1","9fc4add2f7a58957a2368529c5bb616e6ab7255fb4b75e23937e2e2aa581e81b","322012.80000000075","570.8999999985099","77","1","swim","","","","",""
"dual-task","null","null","null","","swim","arctic","593.3999999985099","","N","null","77","77","1","swim-dual-task","","N","uppercase","330000","0","1","9fc4add2f7a58957a2368529c5bb616e6ab7255fb4b75e23937e2e2aa581e81b","330008.80000000075","593.3999999985099","77","1","swim","","","","",""
"dual-task","null","null","null","","swim","arctic","672.1999999992549","","B","null","77","77","1","swim-dual-task","","B","uppercase","340000","0","1","9fc4add2f7a58957a2368529c5bb616e6ab7255fb4b75e23937e2e2aa581e81b","340008.80000000075","672.1999999992549","77","1","swim","","","","",""
"dual-task","null","null","null","","swim","arctic","675.7000000029802","","H","null","77","77","1","swim-dual-task","","H","uppercase","350000","0","1","9fc4add2f7a58957a2368529c5bb616e6ab7255fb4b75e23937e2e2aa581e81b","350004","675.7000000029802","77","1","swim","","","","",""
"dual-task","null","null","null","","swim","arctic","741.8000000007451","","r","null","88","88","1","swim-dual-task","","r","lowercase","362000","0","1","9fc4add2f7a58957a2368529c5bb616e6ab7255fb4b75e23937e2e2aa581e81b","362004","741.8000000007451","88","1","swim","","","","",""
"dual-task","null","null","null","","swim","arctic","510.5999999977648","","q","null","88","88","1","swim-dual-task","","q","lowercase","372000","0","1","9fc4add2f7a58957a2368529c5bb616e6ab7255fb4b75e23937e2e2aa581e81b","372003.69999999925","510.5999999977648","88","1","swim","","","","",""
"dual-task","null","null","null","","swim","arctic","460.5","","B","null","77","77","1","swim-dual-task","","B","uppercase","380000","0","1","9fc4add2f7a58957a2368529c5bb616e6ab7255fb4b75e23937e2e2aa581e81b","380014.80000000075","460.5","77","1","swim","","","","",""
"dual-task","null","null","null","","swim","arctic","535.1000000014901","","e","null","88","88","1","swim-dual-task","","e","lowercase","390000","0","1","9fc4add2f7a58957a2368529c5bb616e6ab7255fb4b75e23937e2e2aa581e81b","390014.1000000015","535.1000000014901","88","1","swim","","","","",""
"dual-task","null","null","null","","swim","arctic","544.3000000007451","","q","null","88","88","1","swim-dual-task","","q","lowercase","396000","0","1","9fc4add2f7a58957a2368529c5bb616e6ab7255fb4b75e23937e2e2aa581e81b","396009","544.3000000007451","88","1","swim","","","","",""
"dual-task","null","null","null","","swim","arctic","683.3999999985099","","A","null","77","77","1","swim-dual-task","","A","uppercase","406000","0","1","9fc4add2f7a58957a2368529c5bb616e6ab7255fb4b75e23937e2e2aa581e81b","406005","683.3999999985099","77","1","swim","","","","",""
"dual-task","null","null","null","","swim","arctic","547.3000000007451","","G","null","77","77","1","swim-dual-task","","G","uppercase","416000","0","1","9fc4add2f7a58957a2368529c5bb616e6ab7255fb4b75e23937e2e2aa581e81b","416010.80000000075","547.3000000007451","77","1","swim","","","","",""
"dual-task","null","null","null","","swim","arctic","516.1999999992549","","E","null","77","77","1","swim-dual-task","","E","uppercase","422000","0","1","9fc4add2f7a58957a2368529c5bb616e6ab7255fb4b75e23937e2e2aa581e81b","422004.80000000075","516.1999999992549","77","1","swim","","","","",""
"dual-task","null","null","null","","swim","arctic","516.3999999985099","","n","null","88","88","1","swim-dual-task","","n","lowercase","428000","0","1","9fc4add2f7a58957a2368529c5bb616e6ab7255fb4b75e23937e2e2aa581e81b","428008.69999999925","516.3999999985099","88","1","swim","","","","",""
"dual-task","null","null","null","","swim","arctic","487.5","","B","null","77","77","1","swim-dual-task","","B","uppercase","438000","0","1","9fc4add2f7a58957a2368529c5bb616e6ab7255fb4b75e23937e2e2aa581e81b","438010.69999999925","487.5","77","1","swim","","","","",""
"dual-task","null","null","null","","swim","arctic","500.70000000298023","","G","null","77","77","1","swim-dual-task","","G","uppercase","444000","0","1","9fc4add2f7a58957a2368529c5bb616e6ab7255fb4b75e23937e2e2aa581e81b","444009","500.70000000298023","77","1","swim","","","","",""
"dual-task","null","null","null","","swim","arctic","633.6000000014901","","d","null","88","88","1","swim-dual-task","","d","lowercase","452000","0","1","9fc4add2f7a58957a2368529c5bb616e6ab7255fb4b75e23937e2e2aa581e81b","452009","633.6000000014901","88","1","swim","","","","",""
"dual-task","null","null","null","","swim","arctic","736.6000000014901","","T","null","77","77","1","swim-dual-task","","T","uppercase","460000","0","1","9fc4add2f7a58957a2368529c5bb616e6ab7255fb4b75e23937e2e2aa581e81b","460014.80000000075","736.6000000014901","77","1","swim","","","","",""
"dual-task","null","null","null","","swim","arctic","437.19999999925494","","N","null","77","77","1","swim-dual-task","","N","uppercase","474000","0","1","9fc4add2f7a58957a2368529c5bb616e6ab7255fb4b75e23937e2e2aa581e81b","474008.69999999925","437.19999999925494","77","1","swim","","","","",""
"dual-task","null","null","null","","swim","arctic","484.5999999977648","","Q","null","77","77","1","swim-dual-task","","Q","uppercase","486000","0","1","9fc4add2f7a58957a2368529c5bb616e6ab7255fb4b75e23937e2e2aa581e81b","486009.69999999925","484.5999999977648","77","1","swim","","","","",""
"dual-task","null","null","null","","swim","arctic","537.1999999992549","","b","null","88","88","1","swim-dual-task","","b","lowercase","494000","0","1","9fc4add2f7a58957a2368529c5bb616e6ab7255fb4b75e23937e2e2aa581e81b","494011.5","537.1999999992549","88","1","swim","","","","",""
"dual-task","null","null","null","","swim","arctic","440.29999999701977","","g","null","88","88","1","swim-dual-task","","g","lowercase","508000","0","1","9fc4add2f7a58957a2368529c5bb616e6ab7255fb4b75e23937e2e2aa581e81b","508000.69999999925","440.29999999701977","88","1","swim","","","","",""
"dual-task","null","null","null","","swim","arctic","509.3999999985099","","q","null","88","88","1","swim-dual-task","","q","lowercase","522000","0","1","9fc4add2f7a58957a2368529c5bb616e6ab7255fb4b75e23937e2e2aa581e81b","522002.80000000075","509.3999999985099","88","1","swim","","","","",""
"dual-task","null","null","null","","swim","arctic","394.30000000074506","","A","null","77","77","1","swim-dual-task","","A","uppercase","532000","0","1","9fc4add2f7a58957a2368529c5bb616e6ab7255fb4b75e23937e2e2aa581e81b","532011.6999999993","394.30000000074506","77","1","swim","","","","",""
"dual-task","null","null","null","","swim","arctic","451.30000000074506","","R","null","77","77","1","swim-dual-task","","R","uppercase","544000","0","1","9fc4add2f7a58957a2368529c5bb616e6ab7255fb4b75e23937e2e2aa581e81b","544008.9000000022","451.30000000074506","77","1","swim","","","","",""
"dual-task","null","null","null","","swim","arctic","549.8000000007451","","E","null","77","77","1","swim-dual-task","","E","uppercase","558000","0","1","9fc4add2f7a58957a2368529c5bb616e6ab7255fb4b75e23937e2e2aa581e81b","558001.4000000022","549.8000000007451","77","1","swim","","","","",""
"dual-task","null","null","null","","swim","arctic","541.3000000007451","","e","null","88","88","1","swim-dual-task","","e","lowercase","564000","0","1","9fc4add2f7a58957a2368529c5bb616e6ab7255fb4b75e23937e2e2aa581e81b","564008.6000000015","541.3000000007451","88","1","swim","","","","",""
"dual-task","null","null","null","","swim","arctic","655.3999999985099","","b","null","88","88","1","swim-dual-task","","b","lowercase","574000","0","1","9fc4add2f7a58957a2368529c5bb616e6ab7255fb4b75e23937e2e2aa581e81b","574003.6999999993","655.3999999985099","88","1","swim","","","","",""
"dual-task","null","null","null","","swim","arctic","601.1999999992549","","D","null","77","77","1","swim-dual-task","","D","uppercase","582000","0","1","9fc4add2f7a58957a2368529c5bb616e6ab7255fb4b75e23937e2e2aa581e81b","582014.6999999993","601.1999999992549","77","1","swim","","","","",""
"dual-task","null","null","null","","swim","arctic","567","","e","null","88","88","1","swim-dual-task","","e","lowercase","592000","0","1","9fc4add2f7a58957a2368529c5bb616e6ab7255fb4b75e23937e2e2aa581e81b","592004.6999999993","567","88","1","swim","","","","",""
"dual-task","null","null","null","","swim","arctic","530.6000000014901","","r","null","88","88","1","swim-dual-task","","r","lowercase","606000","0","1","9fc4add2f7a58957a2368529c5bb616e6ab7255fb4b75e23937e2e2aa581e81b","606009","530.6000000014901","88","1","swim","","","","",""
"dual-task","null","null","null","","swim","arctic","537.5","","N","null","77","77","1","swim-dual-task","","N","uppercase","612000","0","1","9fc4add2f7a58957a2368529c5bb616e6ab7255fb4b75e23937e2e2aa581e81b","612009.6999999993","537.5","77","1","swim","","","","",""
"dual-task","null","null","null","","swim","arctic","525.6000000014901","","f","null","88","88","1","swim-dual-task","","f","lowercase","620000","0","1","9fc4add2f7a58957a2368529c5bb616e6ab7255fb4b75e23937e2e2aa581e81b","620018.8000000007","525.6000000014901","88","1","swim","","","","",""
"dual-task","null","null","null","","swim","arctic","475","","g","null","88","88","1","swim-dual-task","","g","lowercase","628000","0","1","9fc4add2f7a58957a2368529c5bb616e6ab7255fb4b75e23937e2e2aa581e81b","628003.5","475","88","1","swim","","","","",""
"dual-task","null","null","null","","swim","arctic","581.3000000007451","","h","null","88","88","1","swim-dual-task","","h","lowercase","636000","0","1","9fc4add2f7a58957a2368529c5bb616e6ab7255fb4b75e23937e2e2aa581e81b","636009","581.3000000007451","88","1","swim","","","","",""
"dual-task","null","null","null","","swim","arctic","458.8999999985099","","Q","null","88","77","0","swim-dual-task","","Q","uppercase","646000","0","1","9fc4add2f7a58957a2368529c5bb616e6ab7255fb4b75e23937e2e2aa581e81b","646008.9000000022","458.8999999985099","88","0","swim","","","","",""
"dual-task","null","null","null","","swim","arctic","543.3000000007451","","R","null","77","77","1","swim-dual-task","","R","uppercase","656000","0","1","9fc4add2f7a58957a2368529c5bb616e6ab7255fb4b75e23937e2e2aa581e81b","656008.9000000022","543.3000000007451","77","1","swim","","","","",""
"dual-task","null","null","null","","swim","arctic","591.3000000007451","","D","null","77","77","1","swim-dual-task","","D","uppercase","664000","0","1","9fc4add2f7a58957a2368529c5bb616e6ab7255fb4b75e23937e2e2aa581e81b","664009.6000000015","591.3000000007451","77","1","swim","","","","",""
"dual-task","null","null","null","","swim","arctic","457.0999999977648","","R","null","77","77","1","swim-dual-task","","R","uppercase","676000","0","1","9fc4add2f7a58957a2368529c5bb616e6ab7255fb4b75e23937e2e2aa581e81b","676000.6999999993","457.0999999977648","77","1","swim","","","","",""
"dual-task","null","null","null","","swim","arctic","510.8999999985099","","F","null","77","77","1","swim-dual-task","","F","uppercase","688000","0","1","9fc4add2f7a58957a2368529c5bb616e6ab7255fb4b75e23937e2e2aa581e81b","688013.6999999993","510.8999999985099","77","1","swim","","","","",""
"dual-task","null","null","null","","swim","arctic","487.4000000022352","","T","null","77","77","1","swim-dual-task","","T","uppercase","694000","0","1","9fc4add2f7a58957a2368529c5bb616e6ab7255fb4b75e23937e2e2aa581e81b","694003.8000000007","487.4000000022352","77","1","swim","","","","",""
"dual-task","null","null","null","","swim","arctic","527.3999999985099","","r","null","88","88","1","swim-dual-task","","r","lowercase","704000","0","1","9fc4add2f7a58957a2368529c5bb616e6ab7255fb4b75e23937e2e2aa581e81b","704008.8000000007","527.3999999985099","88","1","swim","","","","",""
"dual-task","null","null","null","","swim","arctic","591.6999999992549","","t","null","88","88","1","swim-dual-task","","t","lowercase","712000","0","1","9fc4add2f7a58957a2368529c5bb616e6ab7255fb4b75e23937e2e2aa581e81b","712003.3000000007","591.6999999992549","88","1","swim","","","","",""
"dual-task","null","null","null","","swim","arctic","560.1000000014901","","t","null","88","88","1","swim-dual-task","","t","lowercase","722000","0","1","9fc4add2f7a58957a2368529c5bb616e6ab7255fb4b75e23937e2e2aa581e81b","722011","560.1000000014901","88","1","swim","","","","",""
"dual-task","null","null","null","","swim","arctic","466.4000000022352","","H","null","77","77","1","swim-dual-task","","H","uppercase","734000","0","1","9fc4add2f7a58957a2368529c5bb616e6ab7255fb4b75e23937e2e2aa581e81b","734014.9000000022","466.4000000022352","77","1","swim","","","","",""
"dual-task","null","null","null","","swim","arctic","549.5","","A","null","77","77","1","swim-dual-task","","A","uppercase","746000","0","1","9fc4add2f7a58957a2368529c5bb616e6ab7255fb4b75e23937e2e2aa581e81b","746008.4000000022","549.5","77","1","swim","","","","",""
"dual-task","null","null","null","","swim","arctic","545.6999999992549","","d","null","88","88","1","swim-dual-task","","d","lowercase","760000","0","1","9fc4add2f7a58957a2368529c5bb616e6ab7255fb4b75e23937e2e2aa581e81b","760009.1000000015","545.6999999992549","88","1","swim","","","","",""
"dual-task","null","null","null","","swim","arctic","556.4000000022352","","e","null","88","88","1","swim-dual-task","","e","lowercase","766000","0","1","9fc4add2f7a58957a2368529c5bb616e6ab7255fb4b75e23937e2e2aa581e81b","766008.9000000022","556.4000000022352","88","1","swim","","","","",""
"dual-task","null","null","null","","swim","arctic","581.7000000029802","","T","null","77","77","1","swim-dual-task","","T","uppercase","778000","0","1","9fc4add2f7a58957a2368529c5bb616e6ab7255fb4b75e23937e2e2aa581e81b","778008.8000000007","581.7000000029802","77","1","swim","","","","",""
"dual-task","null","null","null","","swim","arctic","543.1000000014901","","R","null","77","77","1","swim-dual-task","","R","uppercase","788000","0","1","9fc4add2f7a58957a2368529c5bb616e6ab7255fb4b75e23937e2e2aa581e81b","788006.3000000007","543.1000000014901","77","1","swim","","","","",""
"dual-task","null","null","null","","swim","arctic","878.3000000007451","","f","null","88","88","1","swim-dual-task","","f","lowercase","794000","0","1","9fc4add2f7a58957a2368529c5bb616e6ab7255fb4b75e23937e2e2aa581e81b","794003","878.3000000007451","88","1","swim","","","","",""
"audio-keyboard-response","29","1183523","0.0-7.0-0.0-1.0","9fc4add2f7a58957a2368529c5bb616e6ab7255fb4b75e23937e2e2aa581e81b","swim","arctic","null","","audio/story_swim.mp3","","null","","","","","","","","","","","","","","","","","","","",""
"html-button-response","30","1192845","0.0-7.0-0.0-2.0","9fc4add2f7a58957a2368529c5bb616e6ab7255fb4b75e23937e2e2aa581e81b","swim","arctic","9320","","<p>This concludes the story. Thank you for listening.</p><p>You will now answer some questions about the content of the story.</p>","0","","","","","","","","","","","","","","","","","","","","",""
"survey-multi-choice","31","1211326","0.0-7.0-0.0-3.0-0.0","9fc4add2f7a58957a2368529c5bb616e6ab7255fb4b75e23937e2e2aa581e81b","swim","arctic","18479","","<b>How many astronaut candidates passed the first swim test?</b>","","","","1","swim-comprehension","","","","","","","","","","","","","{""Q0"":""All of them""}","","","",""
"survey-multi-choice","32","1216113","0.0-7.0-0.0-3.0-0.1","9fc4add2f7a58957a2368529c5bb616e6ab7255fb4b75e23937e2e2aa581e81b","swim","arctic","4535","","<b>How often does the narrator swim, now that he is a good swimmer?</b>","","","","1","swim-comprehension","","","","","","","","","","","","","{""Q0"":""Never swam again in his life""}","","","",""
"survey-multi-choice","33","1221594","0.0-7.0-0.0-3.0-0.2","9fc4add2f7a58957a2368529c5bb616e6ab7255fb4b75e23937e2e2aa581e81b","swim","arctic","5226","","<b>What gave the narrator his greatest feeling of accomplishment?</b>","","","","1","swim-comprehension","","","","","","","","","","","","","{""Q0"":""Passing the water survival course""}","","","",""
"survey-multi-choice","34","1225279","0.0-7.0-0.0-3.0-0.3","9fc4add2f7a58957a2368529c5bb616e6ab7255fb4b75e23937e2e2aa581e81b","swim","arctic","3432","","<b>Where is the home of naval aviation?</b>","","","","1","swim-comprehension","","","","","","","","","","","","","{""Q0"":""Pensacola""}","","","",""
"survey-multi-choice","35","1236005","0.0-7.0-0.0-3.0-0.4","9fc4add2f7a58957a2368529c5bb616e6ab7255fb4b75e23937e2e2aa581e81b","swim","arctic","10472","","<b>What was the final step of the first swim test in the pool?</b>","","","","1","swim-comprehension","","","","","","","","","","","","","{""Q0"":""Tread water with hands above the water""}","","","",""
"survey-multi-choice","36","1239738","0.0-7.0-0.0-3.0-0.5","9fc4add2f7a58957a2368529c5bb616e6ab7255fb4b75e23937e2e2aa581e81b","swim","arctic","3478","","<b>What is the narrator afraid of, aside from the water?</b>","","","","1","swim-comprehension","","","","","","","","","","","","","{""Q0"":""Heights""}","","","",""
"survey-multi-choice","37","1247630","0.0-7.0-0.0-3.0-0.6","9fc4add2f7a58957a2368529c5bb616e6ab7255fb4b75e23937e2e2aa581e81b","swim","arctic","7638","","<b>How many astronaut candidates reported for duty at the Johnson Space Center?</b>","","","","1","swim-comprehension","","","","","","","","","","","","","{""Q0"":""Forty-four""}","","","",""
"survey-multi-choice","38","1256879","0.0-7.0-0.0-3.0-0.7","9fc4add2f7a58957a2368529c5bb616e6ab7255fb4b75e23937e2e2aa581e81b","swim","arctic","8996","","<b>What were the astronaut candidates trained to do at the naval air station?</b>","","","","1","swim-comprehension","","","","","","","","","","","","","{""Q0"":""Eject out of aircraft and survive in water long enough to be rescued""}","","","",""
"survey-multi-choice","39","1265111","0.0-7.0-0.0-3.0-0.8","9fc4add2f7a58957a2368529c5bb616e6ab7255fb4b75e23937e2e2aa581e81b","swim","arctic","7978","","<b>How many times did the astronaut candidates have to complete the final exercise to pass?</b>","","","","1","swim-comprehension","","","","","","","","","","","","","{""Q0"":""Two""}","","","",""
"survey-multi-choice","40","1272893","0.0-7.0-0.0-3.0-0.9","9fc4add2f7a58957a2368529c5bb616e6ab7255fb4b75e23937e2e2aa581e81b","swim","arctic","7527","","<b>How did the narrator train for his swim test?</b>","","","","1","swim-comprehension","","","","","","","","","","","","","{""Q0"":""Took his kids to the pool every day""}","","","",""
"html-button-response","41","1275043","0.0-7.0-0.0-4.0","9fc4add2f7a58957a2368529c5bb616e6ab7255fb4b75e23937e2e2aa581e81b","swim","arctic","1898","","<p>Thank you for your responses.</p><p>You will now answer some questions about your impressions of the story.</p>","0","","","","","","","","","","","","","","","","","","","","",""
"html-button-response","42","1279789","0.0-7.0-0.0-5.0-0.0","9fc4add2f7a58957a2368529c5bb616e6ab7255fb4b75e23937e2e2aa581e81b","swim","arctic","4745","","MS2","5","","","","swim-engagement","","","","","","","","","","","","","","6","mental-sim","",""
"html-button-response","43","1281799","0.0-7.0-0.0-5.0-0.1","9fc4add2f7a58957a2368529c5bb616e6ab7255fb4b75e23937e2e2aa581e81b","swim","arctic","1758","","E6","6","","","","swim-engagement","","","","","","","","","","","","","","7","enjoyment","",""
"html-button-response","44","1286289","0.0-7.0-0.0-5.0-0.2","9fc4add2f7a58957a2368529c5bb616e6ab7255fb4b75e23937e2e2aa581e81b","swim","arctic","4239","","A1","6","","","","swim-engagement","","","","","","","","","","","","","","7","absorption","",""
"html-button-response","45","1289497","0.0-7.0-0.0-5.0-0.3","9fc4add2f7a58957a2368529c5bb616e6ab7255fb4b75e23937e2e2aa581e81b","swim","arctic","2955","","EE4","6","","","","swim-engagement","","","","","","","","","","","","","","7","emo-engage","",""
"html-button-response","46","1292039","0.0-7.0-0.0-5.0-0.4","9fc4add2f7a58957a2368529c5bb616e6ab7255fb4b75e23937e2e2aa581e81b","swim","arctic","2291","","E1","5","","","","swim-engagement","","","","","","","","","","","","","","6","enjoyment","",""
"html-button-response","47","1299513","0.0-7.0-0.0-5.0-0.5","9fc4add2f7a58957a2368529c5bb616e6ab7255fb4b75e23937e2e2aa581e81b","swim","arctic","7221","","A4","6","","","","swim-engagement","","","","","","","","","","","","","","7","absorption","",""
"html-button-response","48","1301839","0.0-7.0-0.0-5.0-0.6","9fc4add2f7a58957a2368529c5bb616e6ab7255fb4b75e23937e2e2aa581e81b","swim","arctic","2075","","EE5","6","","","","swim-engagement","","","","","","","","","","","","","","7","emo-engage","",""
"html-button-response","49","1305835","0.0-7.0-0.0-5.0-0.7","9fc4add2f7a58957a2368529c5bb616e6ab7255fb4b75e23937e2e2aa581e81b","swim","arctic","3744","","EE2","6","","","","swim-engagement","","","","","","","","","","","","","","7","emo-engage","",""
"html-button-response","50","1308053","0.0-7.0-0.0-5.0-0.8","9fc4add2f7a58957a2368529c5bb616e6ab7255fb4b75e23937e2e2aa581e81b","swim","arctic","1967","","EE3","6","","","","swim-engagement","","","","","","","","","","","","","","7","emo-engage","",""
"html-button-response","51","1311655","0.0-7.0-0.0-5.0-0.9","9fc4add2f7a58957a2368529c5bb616e6ab7255fb4b75e23937e2e2aa581e81b","swim","arctic","3350","","MS1","5","","","","swim-engagement","","","","","","","","","","","","","","6","mental-sim","",""
"html-button-response","52","1314051","0.0-7.0-0.0-5.0-0.10","9fc4add2f7a58957a2368529c5bb616e6ab7255fb4b75e23937e2e2aa581e81b","swim","arctic","2143","","E10","6","","","","swim-engagement","","","","","","","","","","","","","","7","enjoyment","",""
"html-button-response","53","1317289","0.0-7.0-0.0-5.0-0.11","9fc4add2f7a58957a2368529c5bb616e6ab7255fb4b75e23937e2e2aa581e81b","swim","arctic","2986","","MS3","5","","","","swim-engagement","","","","","","","","","","","","","","6","mental-sim","",""
"html-button-response","54","1319081","0.0-7.0-0.0-5.0-0.12","9fc4add2f7a58957a2368529c5bb616e6ab7255fb4b75e23937e2e2aa581e81b","swim","arctic","1540","","E7","6","","","","swim-engagement","","","","","","","","","","","","","","7","enjoyment","",""
"html-button-response","55","1322783","0.0-7.0-0.0-5.0-0.13","9fc4add2f7a58957a2368529c5bb616e6ab7255fb4b75e23937e2e2aa581e81b","swim","arctic","3450","","EE1","6","","","","swim-engagement","","","","","","","","","","","","","","7","emo-engage","",""
"html-button-response","56","1324167","0.0-7.0-0.0-5.0-0.14","9fc4add2f7a58957a2368529c5bb616e6ab7255fb4b75e23937e2e2aa581e81b","swim","arctic","1131","","A3","6","","","","swim-engagement","","","","","","","","","","","","","","7","absorption","",""
"html-button-response","57","1327939","0.0-7.0-0.0-5.0-0.15","9fc4add2f7a58957a2368529c5bb616e6ab7255fb4b75e23937e2e2aa581e81b","swim","arctic","3521","","A5","6","","","","swim-engagement","","","","","","","","","","","","","","7","absorption","",""
"html-button-response","58","1332931","0.0-7.0-0.0-5.0-0.16","9fc4add2f7a58957a2368529c5bb616e6ab7255fb4b75e23937e2e2aa581e81b","swim","arctic","4739","","E8","5","","","","swim-engagement","","","","","","","","","","","","","","6","enjoyment","",""
"html-button-response","59","1334655","0.0-7.0-0.0-5.0-0.17","9fc4add2f7a58957a2368529c5bb616e6ab7255fb4b75e23937e2e2aa581e81b","swim","arctic","1471","","A2","6","","","","swim-engagement","","","","","","","","","","","","","","7","absorption","",""
"html-keyboard-response","60","1352326","0.0-7.0-1.0","9fc4add2f7a58957a2368529c5bb616e6ab7255fb4b75e23937e2e2aa581e81b","swim","arctic","17419","","<p>Thank you for your responses. You will now listen to the second story.</p><p>Remember, as you listen to the story you will see letters appear on the screen.</br>As quickly as possible, press <b>&lt;x&gt;</b> if the letter is lowercase and <b>&lt;m&gt;</b> if the letter is uppercase.</p><p>Press <b>&lt;x&gt;</b> or <b>&lt;m&gt;</b> to begin listening!</p>","","88","","","","","","","","","","","","","","","","","","","",""
"html-keyboard-response","61","1352827","0.0-7.0-2.0-0.0","9fc4add2f7a58957a2368529c5bb616e6ab7255fb4b75e23937e2e2aa581e81b","swim","arctic","null","","<div style=""font-size:60px;"" tabindex=""0"">+</div>","","null","","","","","","","","","","","","","","","","","","","",""
"dual-task","null","null","null","","swim","arctic","1049.199999999255","","F","null","77","77","1","arctic-dual-task","","F","uppercase","10000","0","1","9fc4add2f7a58957a2368529c5bb616e6ab7255fb4b75e23937e2e2aa581e81b","10011.39999999851","1049.199999999255","77","1","arctic","","","","",""
"dual-task","null","null","null","","swim","arctic","618.5","","n","null","88","88","1","arctic-dual-task","","n","lowercase","24000","0","1","9fc4add2f7a58957a2368529c5bb616e6ab7255fb4b75e23937e2e2aa581e81b","24011","618.5","88","1","arctic","","","","",""
"dual-task","null","null","null","","swim","arctic","590.8999999985099","","T","null","77","77","1","arctic-dual-task","","T","uppercase","34000","0","1","9fc4add2f7a58957a2368529c5bb616e6ab7255fb4b75e23937e2e2aa581e81b","34000.89999999851","590.8999999985099","77","1","arctic","","","","",""
"dual-task","null","null","null","","swim","arctic","546.6999999992549","","d","null","88","88","1","arctic-dual-task","","d","lowercase","44000","0","1","9fc4add2f7a58957a2368529c5bb616e6ab7255fb4b75e23937e2e2aa581e81b","44014.10000000149","546.6999999992549","88","1","arctic","","","","",""
"dual-task","null","null","null","","swim","arctic","657.9000000022352","","N","null","77","77","1","arctic-dual-task","","N","uppercase","56000","0","1","9fc4add2f7a58957a2368529c5bb616e6ab7255fb4b75e23937e2e2aa581e81b","56006","657.9000000022352","77","1","arctic","","","","",""
"dual-task","null","null","null","","swim","arctic","712.1999999992549","","F","null","77","77","1","arctic-dual-task","","F","uppercase","64000","0","1","9fc4add2f7a58957a2368529c5bb616e6ab7255fb4b75e23937e2e2aa581e81b","64011.199999999255","712.1999999992549","77","1","arctic","","","","",""
"dual-task","null","null","null","","swim","arctic","579.3999999985099","","e","null","88","88","1","arctic-dual-task","","e","lowercase","76000","0","1","9fc4add2f7a58957a2368529c5bb616e6ab7255fb4b75e23937e2e2aa581e81b","76012.89999999851","579.3999999985099","88","1","arctic","","","","",""
"dual-task","null","null","null","","swim","arctic","482.9000000022352","","D","null","77","77","1","arctic-dual-task","","D","uppercase","86000","0","1","9fc4add2f7a58957a2368529c5bb616e6ab7255fb4b75e23937e2e2aa581e81b","86010.89999999851","482.9000000022352","77","1","arctic","","","","",""
"dual-task","null","null","null","","swim","arctic","640.5","","t","null","88","88","1","arctic-dual-task","","t","lowercase","100000","0","1","9fc4add2f7a58957a2368529c5bb616e6ab7255fb4b75e23937e2e2aa581e81b","100004","640.5","88","1","arctic","","","","",""
"dual-task","null","null","null","","swim","arctic","562.3000000007451","","G","null","77","77","1","arctic-dual-task","","G","uppercase","110000","0","1","9fc4add2f7a58957a2368529c5bb616e6ab7255fb4b75e23937e2e2aa581e81b","110010.19999999925","562.3000000007451","77","1","arctic","","","","",""
"dual-task","null","null","null","","swim","arctic","627.3000000007451","","a","null","88","88","1","arctic-dual-task","","a","lowercase","122000","0","1","9fc4add2f7a58957a2368529c5bb616e6ab7255fb4b75e23937e2e2aa581e81b","122007","627.3000000007451","88","1","arctic","","","","",""
"dual-task","null","null","null","","swim","arctic","471.5","","G","null","77","77","1","arctic-dual-task","","G","uppercase","128000","0","1","9fc4add2f7a58957a2368529c5bb616e6ab7255fb4b75e23937e2e2aa581e81b","128004.60000000149","471.5","77","1","arctic","","","","",""
"dual-task","null","null","null","","swim","arctic","588.2000000029802","","F","null","77","77","1","arctic-dual-task","","F","uppercase","140000","0","1","9fc4add2f7a58957a2368529c5bb616e6ab7255fb4b75e23937e2e2aa581e81b","140011.1000000015","588.2000000029802","77","1","arctic","","","","",""
"dual-task","null","null","null","","swim","arctic","548.7000000029802","","a","null","88","88","1","arctic-dual-task","","a","lowercase","152000","0","1","9fc4add2f7a58957a2368529c5bb616e6ab7255fb4b75e23937e2e2aa581e81b","152000.80000000075","548.7000000029802","88","1","arctic","","","","",""
"dual-task","null","null","null","","swim","arctic","568.5","","d","null","88","88","1","arctic-dual-task","","d","lowercase","160000","0","1","9fc4add2f7a58957a2368529c5bb616e6ab7255fb4b75e23937e2e2aa581e81b","160011","568.5","88","1","arctic","","","","",""
"dual-task","null","null","null","","swim","arctic","719.5","","R","null","77","77","1","arctic-dual-task","","R","uppercase","172000","0","1","9fc4add2f7a58957a2368529c5bb616e6ab7255fb4b75e23937e2e2aa581e81b","172003.80000000075","719.5","77","1","arctic","","","","",""
"dual-task","null","null","null","","swim","arctic","662.8999999985099","","E","null","77","77","1","arctic-dual-task","","E","uppercase","180000","0","1","9fc4add2f7a58957a2368529c5bb616e6ab7255fb4b75e23937e2e2aa581e81b","180005.30000000075","662.8999999985099","77","1","arctic","","","","",""
"dual-task","null","null","null","","swim","arctic","506.0999999977648","","E","null","77","77","1","arctic-dual-task","","E","uppercase","188000","0","1","9fc4add2f7a58957a2368529c5bb616e6ab7255fb4b75e23937e2e2aa581e81b","188011.1000000015","506.0999999977648","77","1","arctic","","","","",""
"dual-task","null","null","null","","swim","arctic","505.5","","h","null","88","88","1","arctic-dual-task","","h","lowercase","196000","0","1","9fc4add2f7a58957a2368529c5bb616e6ab7255fb4b75e23937e2e2aa581e81b","196000.3999999985","505.5","88","1","arctic","","","","",""
"dual-task","null","null","null","","swim","arctic","444.6000000014901","","A","null","77","77","1","arctic-dual-task","","A","uppercase","208000","0","1","9fc4add2f7a58957a2368529c5bb616e6ab7255fb4b75e23937e2e2aa581e81b","208005.30000000075","444.6000000014901","77","1","arctic","","","","",""
"dual-task","null","null","null","","swim","arctic","591.1000000014901","","A","null","77","77","1","arctic-dual-task","","A","uppercase","218000","0","1","9fc4add2f7a58957a2368529c5bb616e6ab7255fb4b75e23937e2e2aa581e81b","218015.30000000075","591.1000000014901","77","1","arctic","","","","",""
"dual-task","null","null","null","","swim","arctic","810.8999999985099","","e","null","88","88","1","arctic-dual-task","","e","lowercase","228000","0","1","9fc4add2f7a58957a2368529c5bb616e6ab7255fb4b75e23937e2e2aa581e81b","228010.8999999985","810.8999999985099","88","1","arctic","","","","",""
"dual-task","null","null","null","","swim","arctic","449.69999999925494","","Q","null","77","77","1","arctic-dual-task","","Q","uppercase","242000","0","1","9fc4add2f7a58957a2368529c5bb616e6ab7255fb4b75e23937e2e2aa581e81b","242009.5","449.69999999925494","77","1","arctic","","","","",""
"dual-task","null","null","null","","swim","arctic","747.6999999992549","","B","null","77","77","1","arctic-dual-task","","B","uppercase","254000","0","1","9fc4add2f7a58957a2368529c5bb616e6ab7255fb4b75e23937e2e2aa581e81b","254008.19999999925","747.6999999992549","77","1","arctic","","","","",""
"dual-task","null","null","null","","swim","arctic","734.6000000014901","","T","null","77","77","1","arctic-dual-task","","T","uppercase","260000","0","1","9fc4add2f7a58957a2368529c5bb616e6ab7255fb4b75e23937e2e2aa581e81b","260001.19999999925","734.6000000014901","77","1","arctic","","","","",""
"dual-task","null","null","null","","swim","arctic","566","","R","null","77","77","1","arctic-dual-task","","R","uppercase","270000","0","1","9fc4add2f7a58957a2368529c5bb616e6ab7255fb4b75e23937e2e2aa581e81b","270011.1000000015","566","77","1","arctic","","","","",""
"dual-task","null","null","null","","swim","arctic","477.6000000014901","","F","null","77","77","1","arctic-dual-task","","F","uppercase","282000","0","1","9fc4add2f7a58957a2368529c5bb616e6ab7255fb4b75e23937e2e2aa581e81b","282008.5","477.6000000014901","77","1","arctic","","","","",""
"dual-task","null","null","null","","swim","arctic","571.8000000007451","","g","null","88","88","1","arctic-dual-task","","g","lowercase","290000","0","1","9fc4add2f7a58957a2368529c5bb616e6ab7255fb4b75e23937e2e2aa581e81b","290011.8999999985","571.8000000007451","88","1","arctic","","","","",""
"dual-task","null","null","null","","swim","arctic","563.6000000014901","","D","null","77","77","1","arctic-dual-task","","D","uppercase","300000","0","1","9fc4add2f7a58957a2368529c5bb616e6ab7255fb4b75e23937e2e2aa581e81b","300010.19999999925","563.6000000014901","77","1","arctic","","","","",""
"dual-task","null","null","null","","swim","arctic","999","","R","null","77","77","1","arctic-dual-task","","R","uppercase","312000","0","1","9fc4add2f7a58957a2368529c5bb616e6ab7255fb4b75e23937e2e2aa581e81b","312007.69999999925","999","77","1","arctic","","","","",""
"dual-task","null","null","null","","swim","arctic","838.8000000007451","","b","null","88","88","1","arctic-dual-task","","b","lowercase","320000","0","1","9fc4add2f7a58957a2368529c5bb616e6ab7255fb4b75e23937e2e2aa581e81b","320006.30000000075","838.8000000007451","88","1","arctic","","","","",""
"dual-task","null","null","null","","swim","arctic","657.6999999992549","","b","null","88","88","1","arctic-dual-task","","b","lowercase","332000","0","1","9fc4add2f7a58957a2368529c5bb616e6ab7255fb4b75e23937e2e2aa581e81b","332010.80000000075","657.6999999992549","88","1","arctic","","","","",""
"dual-task","null","null","null","","swim","arctic","605.6999999992549","","r","null","88","88","1","arctic-dual-task","","r","lowercase","340000","0","1","9fc4add2f7a58957a2368529c5bb616e6ab7255fb4b75e23937e2e2aa581e81b","340003.1000000015","605.6999999992549","88","1","arctic","","","","",""
"dual-task","null","null","null","","swim","arctic","536.8999999985099","","B","null","77","77","1","arctic-dual-task","","B","uppercase","352000","0","1","9fc4add2f7a58957a2368529c5bb616e6ab7255fb4b75e23937e2e2aa581e81b","352006.3999999985","536.8999999985099","77","1","arctic","","","","",""
"dual-task","null","null","null","","swim","arctic","764.6999999992549","","E","null","77","77","1","arctic-dual-task","","E","uppercase","360000","0","1","9fc4add2f7a58957a2368529c5bb616e6ab7255fb4b75e23937e2e2aa581e81b","360001.8999999985","764.6999999992549","77","1","arctic","","","","",""
"dual-task","null","null","null","","swim","arctic","579.4000000022352","","f","null","88","88","1","arctic-dual-task","","f","lowercase","368000","0","1","9fc4add2f7a58957a2368529c5bb616e6ab7255fb4b75e23937e2e2aa581e81b","368001.19999999925","579.4000000022352","88","1","arctic","","","","",""
"dual-task","null","null","null","","swim","arctic","869","","E","null","77","77","1","arctic-dual-task","","E","uppercase","382000","0","1","9fc4add2f7a58957a2368529c5bb616e6ab7255fb4b75e23937e2e2aa581e81b","382010.3999999985","869","77","1","arctic","","","","",""
"dual-task","null","null","null","","swim","arctic","600.1000000014901","","Q","null","77","77","1","arctic-dual-task","","Q","uppercase","396000","0","1","9fc4add2f7a58957a2368529c5bb616e6ab7255fb4b75e23937e2e2aa581e81b","396012.8999999985","600.1000000014901","77","1","arctic","","","","",""
"dual-task","null","null","null","","swim","arctic","644.1000000014901","","d","null","88","88","1","arctic-dual-task","","d","lowercase","406000","0","1","9fc4add2f7a58957a2368529c5bb616e6ab7255fb4b75e23937e2e2aa581e81b","406005.69999999925","644.1000000014901","88","1","arctic","","","","",""
"dual-task","null","null","null","","swim","arctic","650.3000000007451","","h","null","88","88","1","arctic-dual-task","","h","lowercase","414000","0","1","9fc4add2f7a58957a2368529c5bb616e6ab7255fb4b75e23937e2e2aa581e81b","414021.19999999925","650.3000000007451","88","1","arctic","","","","",""
"dual-task","null","null","null","","swim","arctic","741","","r","null","88","88","1","arctic-dual-task","","r","lowercase","422000","0","1","9fc4add2f7a58957a2368529c5bb616e6ab7255fb4b75e23937e2e2aa581e81b","422011","741","88","1","arctic","","","","",""
"dual-task","null","null","null","","swim","arctic","568.3999999985099","","q","null","88","88","1","arctic-dual-task","","q","lowercase","432000","0","1","9fc4add2f7a58957a2368529c5bb616e6ab7255fb4b75e23937e2e2aa581e81b","432010.80000000075","568.3999999985099","88","1","arctic","","","","",""
"dual-task","null","null","null","","swim","arctic","535.3000000007451","","g","null","88","88","1","arctic-dual-task","","g","lowercase","440000","0","1","9fc4add2f7a58957a2368529c5bb616e6ab7255fb4b75e23937e2e2aa581e81b","440011.1000000015","535.3000000007451","88","1","arctic","","","","",""
"dual-task","null","null","null","","swim","arctic","668.4000000022352","","H","null","77","77","1","arctic-dual-task","","H","uppercase","454000","0","1","9fc4add2f7a58957a2368529c5bb616e6ab7255fb4b75e23937e2e2aa581e81b","454001.8999999985","668.4000000022352","77","1","arctic","","","","",""
"dual-task","null","null","null","","swim","arctic","593.3000000007451","","q","null","88","88","1","arctic-dual-task","","q","lowercase","462000","0","1","9fc4add2f7a58957a2368529c5bb616e6ab7255fb4b75e23937e2e2aa581e81b","462005.19999999925","593.3000000007451","88","1","arctic","","","","",""
"dual-task","null","null","null","","swim","arctic","588.9000000022352","","n","null","88","88","1","arctic-dual-task","","n","lowercase","472000","0","1","9fc4add2f7a58957a2368529c5bb616e6ab7255fb4b75e23937e2e2aa581e81b","472008.1000000015","588.9000000022352","88","1","arctic","","","","",""
"dual-task","null","null","null","","swim","arctic","592.8000000007451","","g","null","88","88","1","arctic-dual-task","","g","lowercase","480000","0","1","9fc4add2f7a58957a2368529c5bb616e6ab7255fb4b75e23937e2e2aa581e81b","480014.19999999925","592.8000000007451","88","1","arctic","","","","",""
"dual-task","null","null","null","","swim","arctic","553","","g","null","88","88","1","arctic-dual-task","","g","lowercase","486000","0","1","9fc4add2f7a58957a2368529c5bb616e6ab7255fb4b75e23937e2e2aa581e81b","486010.19999999925","553","88","1","arctic","","","","",""
"dual-task","null","null","null","","swim","arctic","658.6999999992549","","B","null","77","77","1","arctic-dual-task","","B","uppercase","496000","0","1","9fc4add2f7a58957a2368529c5bb616e6ab7255fb4b75e23937e2e2aa581e81b","496001.3999999985","658.6999999992549","77","1","arctic","","","","",""
"dual-task","null","null","null","","swim","arctic","619.2000000029802","","N","null","77","77","1","arctic-dual-task","","N","uppercase","508000","0","1","9fc4add2f7a58957a2368529c5bb616e6ab7255fb4b75e23937e2e2aa581e81b","508011.30000000075","619.2000000029802","77","1","arctic","","","","",""
"dual-task","null","null","null","","swim","arctic","569.5999999977648","","d","null","88","88","1","arctic-dual-task","","d","lowercase","514000","0","1","9fc4add2f7a58957a2368529c5bb616e6ab7255fb4b75e23937e2e2aa581e81b","514010.8999999985","569.5999999977648","88","1","arctic","","","","",""
"dual-task","null","null","null","","swim","arctic","563.8999999985099","","t","null","88","88","1","arctic-dual-task","","t","lowercase","520000","0","1","9fc4add2f7a58957a2368529c5bb616e6ab7255fb4b75e23937e2e2aa581e81b","520008.69999999925","563.8999999985099","88","1","arctic","","","","",""
"dual-task","null","null","null","","swim","arctic","644.1999999992549","","t","null","88","88","1","arctic-dual-task","","t","lowercase","530000","0","1","9fc4add2f7a58957a2368529c5bb616e6ab7255fb4b75e23937e2e2aa581e81b","530000.3000000007","644.1999999992549","88","1","arctic","","","","",""
"dual-task","null","null","null","","swim","arctic","558.2999999970198","","H","null","77","77","1","arctic-dual-task","","H","uppercase","542000","0","1","9fc4add2f7a58957a2368529c5bb616e6ab7255fb4b75e23937e2e2aa581e81b","542003.6000000015","558.2999999970198","77","1","arctic","","","","",""
"dual-task","null","null","null","","swim","arctic","1691.199999999255","","H","null","77","77","1","arctic-dual-task","","H","uppercase","554000","0","1","9fc4add2f7a58957a2368529c5bb616e6ab7255fb4b75e23937e2e2aa581e81b","554000.8999999985","1691.199999999255","77","1","arctic","","","","",""
"dual-task","null","null","null","","swim","arctic","546.5","","B","null","77","77","1","arctic-dual-task","","B","uppercase","562000","0","1","9fc4add2f7a58957a2368529c5bb616e6ab7255fb4b75e23937e2e2aa581e81b","562003.8000000007","546.5","77","1","arctic","","","","",""
"dual-task","null","null","null","","swim","arctic","767.1000000014901","","N","null","77","77","1","arctic-dual-task","","N","uppercase","570000","0","1","9fc4add2f7a58957a2368529c5bb616e6ab7255fb4b75e23937e2e2aa581e81b","570015.1000000015","767.1000000014901","77","1","arctic","","","","",""
"dual-task","null","null","null","","swim","arctic","559.3000000007451","","h","null","88","88","1","arctic-dual-task","","h","lowercase","578000","0","1","9fc4add2f7a58957a2368529c5bb616e6ab7255fb4b75e23937e2e2aa581e81b","578021.1000000015","559.3000000007451","88","1","arctic","","","","",""
"dual-task","null","null","null","","swim","arctic","633.8999999985099","","q","null","88","88","1","arctic-dual-task","","q","lowercase","586000","0","1","9fc4add2f7a58957a2368529c5bb616e6ab7255fb4b75e23937e2e2aa581e81b","586010.6999999993","633.8999999985099","88","1","arctic","","","","",""
"dual-task","null","null","null","","swim","arctic","644.8999999985099","","a","null","88","88","1","arctic-dual-task","","a","lowercase","594000","0","1","9fc4add2f7a58957a2368529c5bb616e6ab7255fb4b75e23937e2e2aa581e81b","594014.3999999985","644.8999999985099","88","1","arctic","","","","",""
"dual-task","null","null","null","","swim","arctic","646.8000000007451","","T","null","77","77","1","arctic-dual-task","","T","uppercase","608000","0","1","9fc4add2f7a58957a2368529c5bb616e6ab7255fb4b75e23937e2e2aa581e81b","608001.6000000015","646.8000000007451","77","1","arctic","","","","",""
"dual-task","null","null","null","","swim","arctic","941.0999999977648","","D","null","77","77","1","arctic-dual-task","","D","uppercase","618000","0","1","9fc4add2f7a58957a2368529c5bb616e6ab7255fb4b75e23937e2e2aa581e81b","618002.6000000015","941.0999999977648","77","1","arctic","","","","",""
"dual-task","null","null","null","","swim","arctic","778.8999999985099","","f","null","88","88","1","arctic-dual-task","","f","lowercase","626000","0","1","9fc4add2f7a58957a2368529c5bb616e6ab7255fb4b75e23937e2e2aa581e81b","626010.5","778.8999999985099","88","1","arctic","","","","",""
"dual-task","null","null","null","","swim","arctic","638.4000000022352","","r","null","88","88","1","arctic-dual-task","","r","lowercase","638000","0","1","9fc4add2f7a58957a2368529c5bb616e6ab7255fb4b75e23937e2e2aa581e81b","638000.6000000015","638.4000000022352","88","1","arctic","","","","",""
"dual-task","null","null","null","","swim","arctic","529.6000000014901","","G","null","77","77","1","arctic-dual-task","","G","uppercase","646000","0","1","9fc4add2f7a58957a2368529c5bb616e6ab7255fb4b75e23937e2e2aa581e81b","646021","529.6000000014901","77","1","arctic","","","","",""
"dual-task","null","null","null","","swim","arctic","568.3999999985099","","b","null","88","88","1","arctic-dual-task","","b","lowercase","658000","0","1","9fc4add2f7a58957a2368529c5bb616e6ab7255fb4b75e23937e2e2aa581e81b","658005.1000000015","568.3999999985099","88","1","arctic","","","","",""
"dual-task","null","null","null","","swim","arctic","552.8999999985099","","t","null","88","88","1","arctic-dual-task","","t","lowercase","670000","0","1","9fc4add2f7a58957a2368529c5bb616e6ab7255fb4b75e23937e2e2aa581e81b","670011.8000000007","552.8999999985099","88","1","arctic","","","","",""
"dual-task","null","null","null","","swim","arctic","825.1000000014901","","e","null","88","88","1","arctic-dual-task","","e","lowercase","680000","0","1","9fc4add2f7a58957a2368529c5bb616e6ab7255fb4b75e23937e2e2aa581e81b","680010.8999999985","825.1000000014901","88","1","arctic","","","","",""
"dual-task","null","null","null","","swim","arctic","1056.1000000014901","","e","null","88","88","1","arctic-dual-task","","e","lowercase","688000","0","1","9fc4add2f7a58957a2368529c5bb616e6ab7255fb4b75e23937e2e2aa581e81b","688001.1999999993","1056.1000000014901","88","1","arctic","","","","",""
"dual-task","null","null","null","","swim","arctic","565.3999999985099","","R","null","77","77","1","arctic-dual-task","","R","uppercase","702000","0","1","9fc4add2f7a58957a2368529c5bb616e6ab7255fb4b75e23937e2e2aa581e81b","702001.1000000015","565.3999999985099","77","1","arctic","","","","",""
"dual-task","null","null","null","","swim","arctic","541.1000000014901","","n","null","88","88","1","arctic-dual-task","","n","lowercase","716000","0","1","9fc4add2f7a58957a2368529c5bb616e6ab7255fb4b75e23937e2e2aa581e81b","716010.8999999985","541.1000000014901","88","1","arctic","","","","",""
"dual-task","null","null","null","","swim","arctic","840.3999999985099","","A","null","77","77","1","arctic-dual-task","","A","uppercase","724000","0","1","9fc4add2f7a58957a2368529c5bb616e6ab7255fb4b75e23937e2e2aa581e81b","724008.3999999985","840.3999999985099","77","1","arctic","","","","",""
"dual-task","null","null","null","","swim","arctic","786.9000000022352","","N","null","77","77","1","arctic-dual-task","","N","uppercase","734000","0","1","9fc4add2f7a58957a2368529c5bb616e6ab7255fb4b75e23937e2e2aa581e81b","734002.8999999985","786.9000000022352","77","1","arctic","","","","",""
"dual-task","null","null","null","","swim","arctic","447.5999999977648","","D","null","77","77","1","arctic-dual-task","","D","uppercase","744000","0","1","9fc4add2f7a58957a2368529c5bb616e6ab7255fb4b75e23937e2e2aa581e81b","744009.1000000015","447.5999999977648","77","1","arctic","","","","",""
"dual-task","null","null","null","","swim","arctic","918.1000000014901","","f","null","88","88","1","arctic-dual-task","","f","lowercase","754000","0","1","9fc4add2f7a58957a2368529c5bb616e6ab7255fb4b75e23937e2e2aa581e81b","754005.1000000015","918.1000000014901","88","1","arctic","","","","",""
"dual-task","null","null","null","","swim","arctic","629.4000000022352","","Q","null","77","77","1","arctic-dual-task","","Q","uppercase","766000","0","1","9fc4add2f7a58957a2368529c5bb616e6ab7255fb4b75e23937e2e2aa581e81b","766006.1000000015","629.4000000022352","77","1","arctic","","","","",""
"dual-task","null","null","null","","swim","arctic","611.8999999985099","","A","null","77","77","1","arctic-dual-task","","A","uppercase","778000","0","1","9fc4add2f7a58957a2368529c5bb616e6ab7255fb4b75e23937e2e2aa581e81b","778001.1999999993","611.8999999985099","77","1","arctic","","","","",""
"dual-task","null","null","null","","swim","arctic","590.1000000014901","","f","null","88","88","1","arctic-dual-task","","f","lowercase","788000","0","1","9fc4add2f7a58957a2368529c5bb616e6ab7255fb4b75e23937e2e2aa581e81b","788001.1999999993","590.1000000014901","88","1","arctic","","","","",""
"audio-keyboard-response","62","2151073","0.0-7.0-2.0-1.0","9fc4add2f7a58957a2368529c5bb616e6ab7255fb4b75e23937e2e2aa581e81b","swim","arctic","null","","audio/story_arctic_scrambled.mp3","","null","","","","","","","","","","","","","","","","","","","",""
"html-button-response","63","2153920","0.0-7.0-2.0-2.0","9fc4add2f7a58957a2368529c5bb616e6ab7255fb4b75e23937e2e2aa581e81b","swim","arctic","2846","","<p>This concludes the story. Thank you for listening.</p><p>You will now answer some questions about the content of the story.</p>","0","","","","","","","","","","","","","","","","","","","","",""
"survey-multi-choice","64","2165417","0.0-7.0-2.0-3.0-0.0","9fc4add2f7a58957a2368529c5bb616e6ab7255fb4b75e23937e2e2aa581e81b","swim","arctic","11494","","<b>How many sponsorships did the narrator receive to support her expedition?</b>","","","","1","arctic-comprehension","","","","","","","","","","","","","{""Q0"":""None""}","","","",""
"survey-multi-choice","65","2176322","0.0-7.0-2.0-3.0-0.1","9fc4add2f7a58957a2368529c5bb616e6ab7255fb4b75e23937e2e2aa581e81b","swim","arctic","10652","","<b>What were the weather conditions in the Arctic like the winter of the narrator&#39;s expedition?</b>","","","","1","arctic-comprehension","","","","","","","","","","","","","{""Q0"":""There were more storms than any other winter in recorded history.""}","","","",""
"survey-multi-choice","66","2181338","0.0-7.0-2.0-3.0-0.2","9fc4add2f7a58957a2368529c5bb616e6ab7255fb4b75e23937e2e2aa581e81b","swim","arctic","4764","","<b>What was the objective of the narrator&#39;s expedition?</b>","","","","1","arctic-comprehension","","","","","","","","","","","","","{""Q0"":""Dogsled across Arctic America""}","","","",""
"survey-multi-choice","67","2194906","0.0-7.0-2.0-3.0-0.3","9fc4add2f7a58957a2368529c5bb616e6ab7255fb4b75e23937e2e2aa581e81b","swim","arctic","13314","","<b>How did the narrator&#39;s neighbour respond when she told him about her expedition?</b>","","","","0","arctic-comprehension","","","","","","","","","","","","","{""Q0"":""He said he was worried about her.""}","","","",""
"survey-multi-choice","68","2198453","0.0-7.0-2.0-3.0-0.4","9fc4add2f7a58957a2368529c5bb616e6ab7255fb4b75e23937e2e2aa581e81b","swim","arctic","3292","","<b>What is the name of the narrator&#39;s neighbour?</b>","","","","1","arctic-comprehension","","","","","","","","","","","","","{""Q0"":""Dave""}","","","",""
"survey-multi-choice","69","2222602","0.0-7.0-2.0-3.0-0.5","9fc4add2f7a58957a2368529c5bb616e6ab7255fb4b75e23937e2e2aa581e81b","swim","arctic","23895","","<b>How did the narrator prepare for her expedition?</b>","","","","1","arctic-comprehension","","","","","","","","","","","","","{""Q0"":""Trained in Alaska learning how to dogsled""}","","","",""
"survey-multi-choice","70","2229218","0.0-7.0-2.0-3.0-0.6","9fc4add2f7a58957a2368529c5bb616e6ab7255fb4b75e23937e2e2aa581e81b","swim","arctic","6363","","<b>What did the narrator do for leisure while in her tent?</b>","","","","1","arctic-comprehension","","","","","","","","","","","","","{""Q0"":""Read""}","","","",""
"survey-multi-choice","71","2234282","0.0-7.0-2.0-3.0-0.7","9fc4add2f7a58957a2368529c5bb616e6ab7255fb4b75e23937e2e2aa581e81b","swim","arctic","4811","","<b>How did the dogs respond when they saw the bears?</b>","","","","1","arctic-comprehension","","","","","","","","","","","","","{""Q0"":""Approached them""}","","","",""
"survey-multi-choice","72","2241030","0.0-7.0-2.0-3.0-0.8","9fc4add2f7a58957a2368529c5bb616e6ab7255fb4b75e23937e2e2aa581e81b","swim","arctic","6494","","<b>Which dog on the narrator&#39;s dog team never followed instructions?</b>","","","","1","arctic-comprehension","","","","","","","","","","","","","{""Q0"":""Robert""}","","","",""
"survey-multi-choice","73","2250776","0.0-7.0-2.0-3.0-0.9","9fc4add2f7a58957a2368529c5bb616e6ab7255fb4b75e23937e2e2aa581e81b","swim","arctic","9491","","<b>How did the narrator&#39;s encounter with the polar bears end?</b>","","","","1","arctic-comprehension","","","","","","","","","","","","","{""Q0"":""The bears walked back to their den.""}","","","",""
"html-button-response","74","2252106","0.0-7.0-2.0-4.0","9fc4add2f7a58957a2368529c5bb616e6ab7255fb4b75e23937e2e2aa581e81b","swim","arctic","1077","","<p>Thank you for your responses.</p><p>You will now answer some questions about your impressions of the story.</p>","0","","","","","","","","","","","","","","","","","","","","",""
"html-button-response","75","2257779","0.0-7.0-2.0-5.0-0.0","9fc4add2f7a58957a2368529c5bb616e6ab7255fb4b75e23937e2e2aa581e81b","swim","arctic","5673","","E10","0","","","","arctic-engagement","","","","","","","","","","","","","","1","enjoyment","",""
"html-button-response","76","2263013","0.0-7.0-2.0-5.0-0.1","9fc4add2f7a58957a2368529c5bb616e6ab7255fb4b75e23937e2e2aa581e81b","swim","arctic","4982","","A5","4","","","","arctic-engagement","","","","","","","","","","","","","","5","absorption","",""
"html-button-response","77","2266276","0.0-7.0-2.0-5.0-0.2","9fc4add2f7a58957a2368529c5bb616e6ab7255fb4b75e23937e2e2aa581e81b","swim","arctic","3011","","A1","2","","","","arctic-engagement","","","","","","","","","","","","","","3","absorption","",""
"html-button-response","78","2269298","0.0-7.0-2.0-5.0-0.3","9fc4add2f7a58957a2368529c5bb616e6ab7255fb4b75e23937e2e2aa581e81b","swim","arctic","2771","","E6","3","","","","arctic-engagement","","","","","","","","","","","","","","4","enjoyment","",""
"html-button-response","79","2277138","0.0-7.0-2.0-5.0-0.4","9fc4add2f7a58957a2368529c5bb616e6ab7255fb4b75e23937e2e2aa581e81b","swim","arctic","7589","","MS3","4","","","","arctic-engagement","","","","","","","","","","","","","","5","mental-sim","",""
"html-button-response","80","2280864","0.0-7.0-2.0-5.0-0.5","9fc4add2f7a58957a2368529c5bb616e6ab7255fb4b75e23937e2e2aa581e81b","swim","arctic","3475","","EE5","4","","","","arctic-engagement","","","","","","","","","","","","","","5","emo-engage","",""
"html-button-response","81","2285092","0.0-7.0-2.0-5.0-0.6","9fc4add2f7a58957a2368529c5bb616e6ab7255fb4b75e23937e2e2aa581e81b","swim","arctic","3977","","EE4","3","","","","arctic-engagement","","","","","","","","","","","","","","4","emo-engage","",""
"html-button-response","82","2287420","0.0-7.0-2.0-5.0-0.7","9fc4add2f7a58957a2368529c5bb616e6ab7255fb4b75e23937e2e2aa581e81b","swim","arctic","2075","","E8","3","","","","arctic-engagement","","","","","","","","","","","","","","4","enjoyment","",""
"html-button-response","83","2291788","0.0-7.0-2.0-5.0-0.8","9fc4add2f7a58957a2368529c5bb616e6ab7255fb4b75e23937e2e2aa581e81b","swim","arctic","4118","","E1","2","","","","arctic-engagement","","","","","","","","","","","","","","3","enjoyment","",""
"html-button-response","84","2297074","0.0-7.0-2.0-5.0-0.9","9fc4add2f7a58957a2368529c5bb616e6ab7255fb4b75e23937e2e2aa581e81b","swim","arctic","5033","","E7","5","","","","arctic-engagement","","","","","","","","","","","","","","6","enjoyment","",""
"html-button-response","85","2301814","0.0-7.0-2.0-5.0-0.10","9fc4add2f7a58957a2368529c5bb616e6ab7255fb4b75e23937e2e2aa581e81b","swim","arctic","4488","","A2","5","","","","arctic-engagement","","","","","","","","","","","","","","6","absorption","",""
"html-button-response","86","2303908","0.0-7.0-2.0-5.0-0.11","9fc4add2f7a58957a2368529c5bb616e6ab7255fb4b75e23937e2e2aa581e81b","swim","arctic","1841","","EE2","3","","","","arctic-engagement","","","","","","","","","","","","","","4","emo-engage","",""
"html-button-response","87","2306420","0.0-7.0-2.0-5.0-0.12","9fc4add2f7a58957a2368529c5bb616e6ab7255fb4b75e23937e2e2aa581e81b","swim","arctic","2261","","EE3","2","","","","arctic-engagement","","","","","","","","","","","","","","3","emo-engage","",""
"html-button-response","88","2311335","0.0-7.0-2.0-5.0-0.13","9fc4add2f7a58957a2368529c5bb616e6ab7255fb4b75e23937e2e2aa581e81b","swim","arctic","4664","","EE1","3","","","","arctic-engagement","","","","","","","","","","","","","","4","emo-engage","",""
"html-button-response","89","2314474","0.0-7.0-2.0-5.0-0.14","9fc4add2f7a58957a2368529c5bb616e6ab7255fb4b75e23937e2e2aa581e81b","swim","arctic","2886","","A4","2","","","","arctic-engagement","","","","","","","","","","","","","","3","absorption","",""
"html-button-response","90","2320528","0.0-7.0-2.0-5.0-0.15","9fc4add2f7a58957a2368529c5bb616e6ab7255fb4b75e23937e2e2aa581e81b","swim","arctic","5804","","MS1","4","","","","arctic-engagement","","","","","","","","","","","","","","5","mental-sim","",""
"html-button-response","91","2325536","0.0-7.0-2.0-5.0-0.16","9fc4add2f7a58957a2368529c5bb616e6ab7255fb4b75e23937e2e2aa581e81b","swim","arctic","4756","","MS2","2","","","","arctic-engagement","","","","","","","","","","","","","","3","mental-sim","",""
"html-button-response","92","2327793","0.0-7.0-2.0-5.0-0.17","9fc4add2f7a58957a2368529c5bb616e6ab7255fb4b75e23937e2e2aa581e81b","swim","arctic","2005","","A3","3","","","","arctic-engagement","","","","","","","","","","","","","","4","absorption","",""
"html-button-response","93","2329300","0.0-8.0","9fc4add2f7a58957a2368529c5bb616e6ab7255fb4b75e23937e2e2aa581e81b","swim","arctic","1254","","<p>Thank you for your responses.</p><p>You will now answer some demographic, hearing, and general health questions.</p>","0","","","","","","","","","","","","","","","","","","","","",""
"survey-multi-choice","94","2331835","0.0-9.0-0.0","9fc4add2f7a58957a2368529c5bb616e6ab7255fb4b75e23937e2e2aa581e81b","swim","arctic","2533","","","","","","","survey","","","","","","","","","","","","","{""Q0"":""Chrome""}","","","browser",""
"survey-text","95","2334663","0.0-9.0-1.0","9fc4add2f7a58957a2368529c5bb616e6ab7255fb4b75e23937e2e2aa581e81b","swim","arctic","2573.60000000149","","","","","","","survey","","","","","","","","","","","","","{""AGE"":""33""}","","","age","33"
"survey-multi-choice","96","2336250","0.0-9.0-2.0","9fc4add2f7a58957a2368529c5bb616e6ab7255fb4b75e23937e2e2aa581e81b","swim","arctic","1335","","","","","","","survey","","","","","","","","","","","","","{""Q0"":""Female""}","","","gender","Female"
"survey-multi-choice","97","2337933","0.0-9.0-4.0","9fc4add2f7a58957a2368529c5bb616e6ab7255fb4b75e23937e2e2aa581e81b","swim","arctic","1432","","","","","","","survey","","","","","","","","","","","","","{""Q0"":""Right""}","","","handedness","Right"
"survey-multi-choice","98","2342525","0.0-9.0-5.0","9fc4add2f7a58957a2368529c5bb616e6ab7255fb4b75e23937e2e2aa581e81b","swim","arctic","4339","","","","","","","survey","","","","","","","","","","","","","{""Q0"":""College Degree (2 years)""}","","","education","College Degree (2 years)"
"survey-text","99","2346925","0.0-10.0-0.0","9fc4add2f7a58957a2368529c5bb616e6ab7255fb4b75e23937e2e2aa581e81b","swim","arctic","4147.800000000745","","","","","","","survey","","","","","","","","","","","","","{""L1"":""English""}","","","first-language","English"
"survey-text","100","2354625","0.0-10.0-1.0","9fc4add2f7a58957a2368529c5bb616e6ab7255fb4b75e23937e2e2aa581e81b","swim","arctic","7443.599999997765","","","","","","","survey","","","","","","","","","","","","","{""L2name"":"""",""L2fluency"":"""",""L3name"":"""",""L3fluency"":"""",""L4name"":"""",""L4fluency"":""""}","","","additional-languages","{""L2name"":"""",""L2fluency"":"""",""L3name"":"""",""L3fluency"":"""",""L4name"":"""",""L4fluency"":""""}"
"survey-multi-choice","101","2359579","0.0-10.0-2.0","9fc4add2f7a58957a2368529c5bb616e6ab7255fb4b75e23937e2e2aa581e81b","swim","arctic","4701","","","","","","","survey","","","","","","","","","","","","","{""Q0"":""No""}","","","hearing-aid","No"
"survey-multi-choice","102","2362307","0.0-10.0-3.0","9fc4add2f7a58957a2368529c5bb616e6ab7255fb4b75e23937e2e2aa581e81b","swim","arctic","2476","","","","","","","survey","","","","","","","","","","","","","{""Q0"":""Never""}","","","ringing-ears","Never"
"survey-multi-choice","103","2364527","0.0-10.0-5.0","9fc4add2f7a58957a2368529c5bb616e6ab7255fb4b75e23937e2e2aa581e81b","swim","arctic","1968","","","","","","","survey","","","","","","","","","","","","","{""Q0"":""No""}","","","neuro-disease","No"
"survey-multi-choice","104","2367767","0.0-10.0-7.0","9fc4add2f7a58957a2368529c5bb616e6ab7255fb4b75e23937e2e2aa581e81b","swim","arctic","2987","","","","","","","survey","","","","","","","","","","","","","{""Q0"":""No""}","","","take-meds","No"
"survey-text","105","2372553","0.0-10.0-9.0","9fc4add2f7a58957a2368529c5bb616e6ab7255fb4b75e23937e2e2aa581e81b","swim","arctic","4512.599999997765","","","","","","","survey","","","","","","","","","","","","","{""HC"":""N/A""}","","","health-concerns","N/A"
"html-button-response","106","2384459","0.0-11.0-0.0","9fc4add2f7a58957a2368529c5bb616e6ab7255fb4b75e23937e2e2aa581e81b","swim","arctic","11654","","<p>How would you describe your musical skills/experiences?</p>","0","","","","survey","","","","","","","","","","","","","","","","music-skill","1"
"survey-multi-choice","107","2386917","0.0-11.0-1.0","9fc4add2f7a58957a2368529c5bb616e6ab7255fb4b75e23937e2e2aa581e81b","swim","arctic","2206","","","","","","","survey","","","","","","","","","","","","","{""Q0"":""No""}","","","music-instrument","No"
"html-button-response","108","2389577","0.0-12.0-0.0","9fc4add2f7a58957a2368529c5bb616e6ab7255fb4b75e23937e2e2aa581e81b","swim","arctic","2408","","<p>How would you describe your general hearing abilities?</p>","5","","","","survey","","","","","","","","","","","","","","","","ssq-01","6"
"html-button-response","109","2398244","0.0-12.0-1.0","9fc4add2f7a58957a2368529c5bb616e6ab7255fb4b75e23937e2e2aa581e81b","swim","arctic","8414","","<p>When you talk with someone at a place that strongly reverberates/echoes (e.g., in a church or train station),</br>can you understand what the person says?</p>","8","","","","survey","","","","","","","","","","","","","","","","ssq-02","8"
"html-button-response","110","2403758","0.0-12.0-2.0","9fc4add2f7a58957a2368529c5bb616e6ab7255fb4b75e23937e2e2aa581e81b","swim","arctic","5263","","<p>When you are with a group (~5 people) in a lively restaurant, can you follow the group's conversation?</p>","10","","","","survey","","","","","","","","","","","","","","","","ssq-03","10"
"html-button-response","111","2412656","0.0-12.0-3.0","9fc4add2f7a58957a2368529c5bb616e6ab7255fb4b75e23937e2e2aa581e81b","swim","arctic","8647","","<p>Based on the sound of a bus or truck, can you tell whether it is moving towards or away from you?</p>","8","","","","survey","","","","","","","","","","","","","","","","ssq-04","8"
"html-button-response","112","2417412","0.0-12.0-4.0","9fc4add2f7a58957a2368529c5bb616e6ab7255fb4b75e23937e2e2aa581e81b","swim","arctic","4504","","<p>When you are in an unknown environment, can you tell from which direction a brief sound originates?</p>","9","","","","survey","","","","","","","","","","","","","","","","ssq-05","9"
"html-button-response","113","2423752","0.0-12.0-5.0","9fc4add2f7a58957a2368529c5bb616e6ab7255fb4b75e23937e2e2aa581e81b","swim","arctic","6086","","<p>Are you able to ignore distracting sounds when you concentrate on a specific aspect of your acoustic surrounding?</p>","10","","","","survey","","","","","","","","","","","","","","","","ssq-06","10"
"fullscreen","114","2425007","0.0-13.0","9fc4add2f7a58957a2368529c5bb616e6ab7255fb4b75e23937e2e2aa581e81b","swim","arctic","","","","","","","","","true","","","","","","","","","","","","","","","",""
